"Time (s)","Linear Acceleration x (m/s^2)","Linear Acceleration y (m/s^2)","Linear Acceleration z (m/s^2)","Absolute acceleration (m/s^2)"
-1.405833755E-4,8.187196439E-2,-5.521336163E-2,7.113196313E-2,1.217016435E-1
9.856416844E-3,-4.862522610E-2,-2.761495143E-2,6.888604760E-2,8.872590213E-2
1.985441684E-2,-7.080311207E-2,-4.574354463E-3,4.737881899E-2,8.531563682E-2
2.985241683E-2,3.513488646E-2,-4.842357938E-3,-6.936844289E-2,7.790949587E-2
3.985041683E-2,4.880730291E-2,-3.345891457E-2,-1.140049177E-1,1.284475498E-1
4.984841682E-2,-1.829590123E-2,-2.542267039E-2,1.007878715E-1,1.055426322E-1
5.984641681E-2,-2.513775568E-2,-1.560329497E-2,1.819267595E-1,1.843168885E-1
6.984341680E-2,3.122688160E-2,1.582078398E-3,4.735016763E-2,5.674204333E-2
7.984141679E-2,1.768906988E-2,-5.566270645E-3,-1.200176096E-1,1.214418098E-1
8.983941679E-2,-1.712397303E-2,-3.005350987E-2,-1.403887242E-1,1.445871287E-1
9.983741678E-2,-3.013600130E-3,-2.891796232E-2,-2.559501708E-2,3.873545185E-2
1.098354168E-1,1.520893682E-2,-2.352137970E-2,5.671331406E-2,6.325319797E-2
1.198324168E-1,1.654979016E-2,-1.092788874E-2,6.582619965E-2,6.874883902E-2
1.298304168E-1,-4.638121091E-4,-1.303269908E-2,-7.082732320E-3,1.484019758E-2
1.398284168E-1,-1.297319453E-2,-2.165161829E-2,-4.316005290E-2,4.999886516E-2
1.498264167E-1,-1.839370505E-2,-2.164213027E-2,-5.063396394E-2,5.805608058E-2
1.598244167E-1,-1.404398873E-2,-2.622430539E-3,-1.184879780E-2,1.856083971E-2
1.698224167E-1,7.106075501E-3,-6.356293433E-3,-7.648158073E-4,9.564712147E-3
1.798194167E-1,1.386093434E-2,-1.488190387E-2,-2.277432024E-2,3.053303500E-2
1.898174167E-1,7.191088535E-3,3.096100688E-3,-3.101480126E-2,3.198773970E-2
1.998154167E-1,4.410079680E-5,-1.210673310E-2,-6.619340479E-2,6.729146877E-2
2.098134167E-1,1.803610213E-3,-4.777641138E-3,-2.442791283E-2,2.495599707E-2
2.198114167E-1,1.847811509E-3,-1.455449634E-3,-2.721878886E-3,3.597410969E-3
2.298084167E-1,8.013974503E-3,-2.339365915E-3,7.004964352E-3,1.089797898E-2
2.398064167E-1,6.579031236E-3,-1.002641711E-2,-3.610480249E-2,3.804430910E-2
2.498044167E-1,-1.100377464E-2,-5.196438823E-4,-1.353425771E-1,1.357901552E-1
2.598024167E-1,-1.366502521E-2,-2.368632143E-2,-1.503061867E-1,1.527734417E-1
2.698004167E-1,8.516688868E-3,-1.871845393E-2,-1.993315816E-2,2.863992494E-2
2.797984167E-1,1.164381178E-2,-1.521525455E-2,5.160635591E-2,5.504814523E-2
2.897954166E-1,-6.690128334E-4,-2.370833072E-2,2.450275719E-2,3.410157817E-2
2.997934166E-1,-1.545615984E-2,-2.018817899E-2,-2.890863419E-3,2.558930517E-2
3.097914166E-1,-9.981434662E-3,-3.403269087E-2,1.343456268E-2,3.792546058E-2
3.197894166E-1,-4.287370378E-3,-1.644064366E-2,4.757411599E-2,5.051705475E-2
3.297874166E-1,1.084704185E-2,-9.268115466E-3,1.150205791E-2,1.832630943E-2
3.397844168E-1,9.221584420E-3,-2.060343637E-2,3.415943384E-3,2.282997763E-2
3.497824168E-1,-6.125026918E-3,-3.080520599E-2,1.919056177E-3,3.146679913E-2
3.597804168E-1,-9.386370834E-3,-2.581765895E-2,-6.756457686E-3,2.828966581E-2
3.697784168E-1,-3.222016823E-3,-2.129968443E-2,3.426702261E-2,4.047575556E-2
3.797764168E-1,4.115873370E-3,-1.623685449E-2,1.335135680E-1,1.345602048E-1
3.897744168E-1,1.407309690E-2,-1.787484232E-2,1.752708739E-1,1.767411703E-1
3.997714168E-1,4.308475172E-3,-2.201943100E-2,8.589618266E-2,8.877822084E-2
4.097694168E-1,8.070436679E-3,-2.015961899E-2,-3.761572301E-2,4.343368283E-2
4.197674168E-1,1.456799519E-2,-2.864338530E-2,1.804041445E-2,3.685276867E-2
4.297654168E-1,1.446308335E-2,-2.838112854E-2,1.124513125E-1,1.168758612E-1
4.397634584E-1,3.660048192E-2,-2.600527234E-2,2.637217051E-1,2.675163681E-1
4.497604584E-1,3.734183578E-2,-3.244048948E-2,2.867018473E-1,2.909377035E-1
4.597584584E-1,-6.185303489E-4,-1.604926622E-2,2.916825056E-2,3.329787331E-2
4.697564584E-1,2.703492134E-2,-1.426416610E-2,-1.967623150E-1,1.991224800E-1
4.797544584E-1,-2.304866429E-2,2.732199450E-3,-1.539694673E-1,1.557090322E-1
4.897524584E-1,-7.392632009E-2,1.957873923E-3,4.363543153E-2,8.586608735E-2
4.997504584E-1,-5.025769105E-2,1.168518882E-2,-2.502023578E-2,5.734449708E-2
5.097474584E-1,-1.614049420E-2,-3.967709037E-2,-3.816617990E-1,3.840579590E-1
5.197454584E-1,1.448745893E-2,-2.227970519E-2,-6.045021111E-1,6.050860055E-1
5.297434584E-1,4.552855896E-2,-1.564073428E-2,-5.151385295E-1,5.173830176E-1
5.397414584E-1,8.167669480E-2,1.797873318E-2,1.087184501E-1,1.371642034E-1
5.497394584E-1,5.860462337E-2,-2.455181213E-2,5.092234862E-1,5.131723417E-1
5.597364584E-1,6.789361979E-3,-4.623274645E-2,2.666809809E-1,2.707439895E-1
5.697344583E-1,-3.379920881E-2,-1.952995153E-2,-2.725176716E-1,2.752992678E-1
5.797324583E-1,-5.034883909E-2,7.522681051E-3,-4.829718268E-1,4.856473842E-1
5.897304583E-1,-5.325292727E-2,7.103992430E-3,-1.239831913E-1,1.351228059E-1
5.997284583E-1,-3.023399698E-2,-2.495049403E-2,2.477453578E-1,2.508273988E-1
6.097264583E-1,6.019187747E-3,-2.805164707E-2,2.597631401E-1,2.613427146E-1
6.197234583E-1,3.477135866E-2,-2.036693477E-2,-7.717564523E-2,8.706284875E-2
6.297214583E-1,4.429991734E-2,-7.994934507E-3,-2.355737936E-1,2.398362231E-1
6.397194583E-1,4.876971171E-2,-6.730387327E-3,-7.874737680E-2,9.287051333E-2
6.497174583E-1,2.223886147E-2,-2.407309419E-2,1.593664473E-1,1.627013994E-1
6.597154583E-1,-1.460686775E-2,-2.203602933E-2,1.383913153E-1,1.408939436E-1
6.697134585E-1,-3.992022034E-2,-2.741648642E-2,-8.089739799E-2,9.428508218E-2
6.797104585E-1,-3.299946046E-2,-1.440597706E-2,-2.275677860E-1,2.303987712E-1
6.897084585E-1,-1.864533175E-2,-4.674293885E-3,-1.185581446E-1,1.201063323E-1
6.997064585E-1,1.211811233E-2,-1.053189862E-2,8.923903584E-2,9.067179856E-2
7.097044585E-1,2.604414719E-2,-1.406203630E-2,1.375955093E-1,1.407428955E-1
7.197024585E-1,3.255278800E-2,-2.512859199E-2,6.898545027E-3,4.169796237E-2
7.296994585E-1,3.302091700E-2,-1.310062843E-2,-1.106398451E-1,1.162031960E-1
7.396974585E-1,1.218951231E-2,-1.614854554E-2,-7.743760049E-2,8.003712703E-2
7.496954584E-1,-1.666691720E-2,-1.403063264E-2,2.972782910E-2,3.685632380E-2
7.596934584E-1,-3.154512545E-2,-2.493848439E-2,3.287830889E-2,5.194233475E-2
7.696914584E-1,-2.810187374E-2,-1.217830325E-2,-4.448912501E-2,5.401211551E-2
7.796894584E-1,-1.122632971E-2,-9.334865087E-3,-9.386067510E-2,9.498945475E-2
7.896864584E-1,1.370235602E-2,-1.182344578E-2,-3.202110708E-2,3.678178529E-2
7.996844584E-1,2.990969121E-2,-1.041356674E-2,4.222391367E-2,5.278153925E-2
8.096824584E-1,3.410124034E-2,-1.033498336E-2,5.672617793E-2,6.698929569E-2
8.196804584E-1,2.202615073E-2,-2.083688188E-2,-1.125647485E-2,3.234246726E-2
8.296784584E-1,2.032044483E-4,-2.056119937E-2,-6.306631386E-2,6.633373317E-2
8.396754584E-1,-1.326151251E-2,-5.547243211E-3,-3.956986248E-2,4.210004321E-2
8.496734584E-1,-2.276129649E-2,-6.203058125E-3,-1.007241368E-2,2.565166788E-2
8.596714584E-1,-1.224385031E-2,-1.359072103E-2,-1.065187275E-2,2.116794656E-2
8.696694584E-1,-1.861529625E-3,-8.082048884E-3,-3.218892217E-2,3.324020934E-2
8.796674584E-1,1.609675429E-2,-1.041498172E-2,-2.574470580E-2,3.209933363E-2
8.896654584E-1,1.866259017E-2,-1.509460662E-2,1.032325923E-2,2.612870265E-2
8.996624583E-1,3.249485945E-2,-1.298618974E-2,2.512607038E-2,4.307988426E-2
9.096604583E-1,1.899658496E-2,-9.953614706E-3,-3.331743479E-3,2.170357575E-2
9.196584583E-1,-2.234161715E-3,-4.136597296E-3,-5.094152749E-2,5.115801148E-2
9.296564583E-1,-1.649111244E-2,-1.962872607E-2,-5.019074500E-2,5.635915684E-2
9.396544583E-1,-1.954125767E-2,-1.503436888E-2,-2.443259060E-2,3.471086980E-2
9.496514583E-1,-5.285115503E-3,-1.880120230E-2,-7.671546936E-4,1.954497839E-2
9.596494583E-1,2.822642857E-3,-7.139576506E-3,-1.303168952E-2,1.512500569E-2
9.696474583E-1,1.002313262E-2,-8.197759229E-3,-2.395896614E-2,2.723414221E-2
9.796454583E-1,1.711671426E-2,-1.821715111E-2,-1.738201797E-2,3.044636350E-2
9.896434585E-1,1.165399415E-2,-2.009183697E-2,1.615585685E-3,2.328320446E-2
9.996414585E-1,2.853390989E-3,-1.763393932E-2,4.899966717E-3,1.852315658E-2
1.009638458E0,-1.006812420E-2,-1.178629426E-2,-1.980101109E-2,2.514684667E-2
1.019636458E0,-1.255511404E-2,-1.406316349E-2,-5.856395781E-2,6.152349641E-2
1.029634458E0,-1.030257014E-2,-9.607822706E-3,-3.894479513E-2,4.141437283E-2
1.039632458E0,5.722299940E-3,-2.189663947E-2,-8.098978400E-3,2.403749130E-2
1.049630458E0,1.532779061E-2,-2.225378329E-2,1.705223501E-2,3.195232002E-2
1.059627458E0,1.344392736E-2,-1.797259703E-2,-9.596450329E-3,2.440994236E-2
1.069625458E0,1.715986489E-2,-1.438257678E-2,-2.352744162E-2,3.247860815E-2
1.079623458E0,3.880966050E-3,-1.423317814E-2,-2.578095853E-2,2.970358699E-2
1.089621458E0,3.467700379E-3,-1.893875463E-2,-4.079017639E-3,1.968094910E-2
1.099619458E0,-7.584441695E-3,-2.405118769E-2,-1.096119046E-2,2.749783776E-2
1.109617458E0,-1.456751553E-2,-3.511350072E-3,-2.771814108E-2,3.150932295E-2
1.119614458E0,-4.468136136E-3,-4.990484927E-3,-4.208065689E-2,4.261045487E-2
1.129612458E0,2.443268197E-4,-8.425570519E-3,-2.126924694E-2,2.287861008E-2
1.139610458E0,6.269421168E-3,-1.363974742E-2,-6.151855588E-3,1.622324501E-2
1.149608458E0,6.135423998E-3,-1.806057022E-2,9.260820150E-3,2.120354720E-2
1.159606458E0,-5.462487135E-4,-3.468027001E-4,-7.511333227E-3,7.539150258E-3
1.169604458E0,-3.360641515E-4,-1.829705697E-2,-3.131593287E-2,3.627096476E-2
1.179601458E0,-6.074823090E-3,-1.677969994E-2,-3.475760400E-2,3.907112542E-2
1.189599458E0,-1.194852480E-2,-1.466690678E-2,-5.113974810E-3,1.959689102E-2
1.199597458E0,-4.209858226E-4,-1.509287644E-2,-7.204354405E-3,1.672946116E-2
1.209595458E0,-1.360756718E-3,-4.363725650E-3,-1.543372571E-2,1.609638624E-2
1.219593458E0,6.370568862E-3,-2.274150046E-4,-2.845722914E-2,2.916247170E-2
1.229590458E0,8.242742247E-3,-8.586463738E-3,-8.253929615E-3,1.448438861E-2
1.239588458E0,4.156940924E-3,-2.639340869E-2,1.170612574E-3,2.674439220E-2
1.249586458E0,-5.885802708E-3,-2.986216431E-2,7.603719234E-3,3.137209073E-2
1.259584458E0,-2.005366562E-3,-1.204124999E-2,-1.724460840E-2,2.112793685E-2
1.269582458E0,4.054651195E-3,-6.202741782E-3,-4.193915427E-2,4.258881147E-2
1.279580458E0,8.432552917E-4,-1.478701110E-2,-2.936003923E-2,3.288432272E-2
1.289577458E0,-1.064120159E-3,-1.275040305E-2,-1.693236709E-2,2.122286938E-2
1.299575458E0,2.449919404E-3,-2.079765986E-2,-8.849176168E-3,2.273439420E-2
1.309573459E0,1.942819627E-3,-1.217447972E-2,-5.109297037E-3,1.334531456E-2
1.319571459E0,6.956587778E-3,2.186480641E-3,-2.592012227E-2,2.692633561E-2
1.329569458E0,1.270722844E-2,5.892782821E-5,-3.400623679E-2,3.630290991E-2
1.339567458E0,-1.582037285E-4,-1.033752553E-2,-2.801810324E-2,2.986475467E-2
1.349564458E0,-2.022263645E-2,-7.362791109E-2,6.710849404E-3,7.664893878E-2
1.359562458E0,-1.327987185E-2,-2.260179084E-2,1.195229352E-2,2.881064501E-2
1.369560458E0,1.076087764E-2,1.596220437E-2,-3.519789934E-2,4.011833215E-2
1.379558458E0,2.120030461E-2,2.900191098E-2,-3.863957047E-2,5.275964521E-2
1.389556458E0,-3.431858774E-4,-3.012230830E-2,-2.756377459E-2,4.083176342E-2
1.399553458E0,-1.421376812E-2,-5.682338789E-2,2.422442973E-2,6.338573665E-2
1.409551458E0,-1.199406456E-2,-3.485541239E-2,-1.974604726E-3,3.691417643E-2
1.419549458E0,1.033797777E-2,4.790549552E-3,-2.876888573E-2,3.094304341E-2
1.429547458E0,1.169040678E-2,-1.537044559E-3,-3.744790792E-2,3.926033526E-2
1.439545667E0,-6.819278710E-3,-1.681198982E-2,-3.085809588E-2,3.579619596E-2
1.449543667E0,-7.454569554E-3,-1.365610021E-2,-4.959608316E-3,1.632964772E-2
1.459540667E0,3.964421349E-3,-1.438134338E-2,8.962027431E-3,1.740280465E-2
1.469538667E0,1.072301692E-2,-4.666954031E-3,-1.005019426E-2,1.541979107E-2
1.479536667E0,4.872174170E-3,-6.654529982E-3,-1.693938375E-2,1.884047696E-2
1.489534667E0,-5.471331049E-3,-1.899328905E-2,-2.472612083E-2,3.165535569E-2
1.499532667E0,-7.743782890E-3,-1.051698251E-2,-1.859005272E-2,2.271922435E-2
1.509530667E0,3.824590668E-3,-1.106509731E-2,-1.634238303E-2,2.010316779E-2
1.519527667E0,-1.819123607E-4,-1.202221685E-2,1.240077496E-2,1.727269549E-2
1.529525667E0,-6.711945757E-3,-2.711288117E-2,-3.699533343E-2,4.635529352E-2
1.539523667E0,5.870462903E-3,-1.924715186E-2,-2.561957538E-2,3.257725943E-2
1.549521667E0,2.018212164E-3,-2.044517554E-2,-1.648973286E-2,2.634368374E-2
1.559519667E0,-1.082611978E-3,-1.693213982E-2,2.370461226E-3,1.713150589E-2
1.569516667E0,-1.295889169E-3,-1.885658754E-2,-9.307013154E-3,2.106823952E-2
1.579514667E0,-7.643032623E-3,-1.716175496E-2,-3.468568325E-3,1.910425992E-2
1.589512667E0,-1.222036094E-3,-6.612830884E-3,-3.789521992E-2,3.848727838E-2
1.599510667E0,1.791134630E-3,2.182233415E-3,-2.726615131E-2,2.741191918E-2
1.609508667E0,2.454693108E-3,-6.399136850E-3,-3.015409112E-3,7.487800932E-3
1.619506667E0,2.673694175E-3,-2.116802615E-2,-1.220313907E-3,2.137108181E-2
1.629503667E0,1.770363310E-3,-2.270339763E-2,-5.264248252E-3,2.337286375E-2
1.639501667E0,-6.059469581E-3,-1.631310698E-2,-2.248020530E-2,2.842875764E-2
1.649499667E0,8.148273169E-3,-1.012733411E-2,-2.098390281E-2,2.468362674E-2
1.659497667E0,-5.974360616E-3,-1.273333078E-2,-1.140323997E-2,1.810703121E-2
1.669495667E0,-2.078849617E-3,-2.079150201E-2,-2.098097920E-2,2.961097195E-2
1.679492667E0,3.514336492E-3,-1.059301459E-2,-1.918354511E-2,2.219393886E-2
1.689490667E0,-9.835199453E-5,-1.187370214E-2,-1.753638446E-2,2.117827320E-2
1.699488667E0,4.610282863E-3,-5.321698288E-3,-2.217731953E-2,2.326819035E-2
1.709486667E0,-2.002474931E-3,-1.188165641E-2,-4.508086324E-2,4.666334638E-2
1.719484667E0,-3.483885289E-3,-2.138201140E-2,1.329598367E-2,2.541871457E-2
1.729482667E0,5.798076200E-3,-1.302897377E-2,-1.709082663E-2,2.225911499E-2
1.739479667E0,-5.404901197E-3,-4.828937893E-3,-2.487288594E-2,2.590737450E-2
1.749477667E0,3.837143909E-4,-5.485603051E-3,-2.711704731E-2,2.766899587E-2
1.759475667E0,6.256863358E-3,-1.358960069E-2,-1.768548846E-2,2.316467328E-2
1.769473667E0,-2.999850037E-4,-1.007826547E-2,-7.955721617E-3,1.284347820E-2
1.779471667E0,5.381571720E-3,-1.101237758E-2,-1.169852436E-2,1.694370816E-2
1.789469667E0,2.519610906E-3,-1.149984807E-2,-1.514370382E-2,1.918141575E-2
1.799466667E0,3.951594019E-3,-8.413910349E-3,-1.559393942E-2,1.815433638E-2
1.809464667E0,4.933898840E-3,-6.769282732E-3,-3.041195333E-2,3.154446785E-2
1.819462667E0,-5.379100358E-3,-1.322591302E-2,-6.609692574E-3,1.573364331E-2
1.829460667E0,-1.011709920E-3,-1.462481368E-2,-2.337307513E-2,2.759002307E-2
1.839458667E0,-2.975392230E-3,-2.355830396E-2,1.286387444E-4,2.374580367E-2
1.849455667E0,-2.027042373E-3,-1.814552729E-2,1.359945416E-2,2.276651521E-2
1.859453667E0,5.594963115E-3,-2.196447402E-2,-3.519965351E-2,4.186594485E-2
1.869451667E0,3.727645660E-4,-1.191970671E-2,-4.148774922E-2,4.316771591E-2
1.879449667E0,-1.155542289E-3,-6.015643443E-3,-3.400389791E-2,3.455124190E-2
1.889447667E0,-3.390370952E-3,-1.965548394E-2,-9.304089546E-3,2.200906055E-2
1.899445667E0,-9.225946991E-3,-2.358928506E-2,8.060386777E-3,2.658086347E-2
1.909442667E0,-3.615411096E-3,-1.674891983E-2,-1.139914691E-2,2.058004041E-2
1.919440667E0,8.814047193E-3,-2.142878913E-4,-7.127405047E-2,7.181729331E-2
1.929438667E0,4.313591486E-3,2.839904706E-3,-6.215590239E-4,5.201775261E-3
1.939436667E0,1.144781128E-2,-5.856411313E-3,1.172366738E-3,1.291217953E-2
1.949434667E0,-5.612870213E-4,-2.643792976E-2,-1.080390036E-2,2.856577386E-2
1.959432667E0,2.646326465E-3,-2.738799952E-2,-1.394794822E-2,3.084883824E-2
1.969429667E0,-4.524580040E-3,-5.448168880E-3,-1.933674216E-2,2.059281346E-2
1.979427667E0,-2.448749961E-4,-2.141293998E-2,-1.783927023E-2,2.787137465E-2
1.989425667E0,1.408713022E-3,-2.998181296E-2,-1.694055319E-2,3.446557591E-2
1.999423667E0,-1.536783490E-2,-3.033242206E-2,-2.038339376E-2,3.964478426E-2
2.009421667E0,2.156010023E-3,-1.464114591E-2,-3.864541769E-2,4.138211983E-2
2.019418667E0,3.611651519E-3,2.501590747E-3,-2.532370627E-2,2.570198596E-2
2.029416667E0,2.371402262E-3,1.254573794E-3,-6.313823462E-3,6.860165508E-3
2.039414667E0,1.327597523E-2,-1.218731390E-2,-2.741993308E-2,3.281211466E-2
2.049412667E0,-9.789563762E-4,-1.339673165E-2,1.209730446E-2,1.807693420E-2
2.059410667E0,4.012295427E-3,-1.897126834E-2,-1.799129784E-2,2.645173596E-2
2.069408667E0,4.637317099E-3,-2.609845778E-2,-1.380001366E-2,2.988435352E-2
2.079405667E0,6.939685671E-3,-1.851271302E-3,-3.924709618E-2,3.989888471E-2
2.089403667E0,7.947293404E-3,1.086895749E-2,-1.095475852E-2,1.735800806E-2
2.099401667E0,1.551823169E-2,1.465455682E-2,-2.232993186E-2,3.089008590E-2
2.109399667E0,8.387305518E-3,-7.189037441E-3,6.858783960E-3,1.300277165E-2
2.119397667E0,-3.985165260E-3,-2.612858007E-2,-1.469873071E-2,3.024296485E-2
2.129395667E0,5.115765519E-4,-2.894200900E-2,-1.095885158E-2,3.095154315E-2
2.139392667E0,-1.988204070E-3,-1.746304987E-2,-4.404064357E-2,4.741823861E-2
2.149390667E0,-1.305863697E-2,-3.513173901E-2,-1.649791896E-2,4.095056062E-2
2.159388667E0,3.564197710E-3,-3.199004603E-2,1.763344824E-2,3.670156737E-2
2.169386667E0,5.152904475E-3,-2.471242099E-2,-2.442674339E-2,3.512722545E-2
2.179384667E0,4.236371694E-3,-7.267055515E-3,-1.260074973E-2,1.515044009E-2
2.189382667E0,-4.070831537E-3,-1.788108696E-2,-2.876771629E-2,3.411577994E-2
2.199379667E0,-1.345932656E-2,-4.424958103E-2,2.975881934E-2,5.499787470E-2
2.209377667E0,1.989089375E-2,-2.505154351E-2,-5.960651636E-2,6.764735234E-2
2.219375667E0,-2.595441984E-3,-1.588111765E-2,-1.377604008E-3,1.615066593E-2
2.229373667E0,4.771711696E-3,1.013149569E-2,-2.832098901E-2,3.045480021E-2
2.239371667E0,-8.450935101E-3,-3.861509896E-2,-3.236141503E-2,5.108625407E-2
2.249368667E0,8.438281361E-3,-1.253976738E-2,4.113691628E-2,4.382574859E-2
2.259366667E0,-6.250582170E-4,3.113219782E-4,-2.307837546E-2,2.308893746E-2
2.269364667E0,1.886645244E-3,-9.355736906E-3,-2.382740378E-2,2.566776995E-2
2.279362667E0,1.092803035E-2,-1.249662475E-2,-4.044402122E-2,4.371848957E-2
2.289360667E0,-1.513743633E-3,-2.295884558E-2,-2.487756371E-2,3.388647498E-2
2.299358667E0,-8.022000720E-3,-2.777688732E-2,-2.574529052E-3,2.902647352E-2
2.309355667E0,-9.014117899E-3,-2.686501633E-2,-8.710597157E-3,2.964553806E-2
2.319353667E0,3.917250764E-3,-8.522971199E-3,-2.727024436E-2,2.883837927E-2
2.329351667E0,1.348134041E-2,-4.157532498E-3,-1.274809957E-2,1.901435400E-2
2.339349667E0,7.815438691E-3,-5.601912393E-3,-1.648856342E-2,1.908756737E-2
2.349347667E0,1.170793929E-2,1.943691456E-2,-1.519691348E-3,2.274156881E-2
2.359345667E0,1.404070881E-2,5.748016268E-3,-2.352568746E-2,2.799355578E-2
2.369342667E0,1.889359631E-2,2.096507752E-2,1.021508574E-3,2.824085580E-2
2.379340667E0,1.958238461E-2,2.296057919E-2,-6.214888573E-2,6.908792934E-2
2.389338667E0,2.964360178E-3,9.463831595E-3,-4.164211571E-2,4.280674410E-2
2.399336667E0,-2.236660486E-3,-4.462600696E-3,-3.595511377E-2,3.629996779E-2
2.409334667E0,-1.563900867E-2,-5.141696094E-2,-2.562659204E-2,5.953994192E-2
2.419332667E0,-3.872505859E-3,-2.223727633E-2,2.227496803E-2,3.171225253E-2
2.429329667E0,5.154439369E-3,-2.509737334E-2,-2.966467917E-2,3.919744359E-2
2.439327708E0,2.176451067E-2,1.814021340E-2,3.575163066E-2,4.561732524E-2
2.449325708E0,2.373805102E-2,-6.675597089E-3,-4.073872089E-2,4.762039524E-2
2.459323708E0,-1.031456150E-2,-4.240170557E-2,-2.233110130E-2,4.902012749E-2
2.469321708E0,-3.483484207E-2,-8.525773066E-2,5.295647800E-2,1.062390485E-1
2.479318708E0,-2.281254642E-2,-8.794411512E-2,5.010654509E-2,1.037557011E-1
2.489316708E0,-7.660647361E-3,-5.701293818E-2,6.911525846E-2,8.992263113E-2
2.499314708E0,8.583785668E-3,2.501523938E-3,3.483595669E-2,3.596502297E-2
2.509312708E0,2.853665077E-3,1.349399186E-2,-2.953194737E-2,3.259397393E-2
2.519310708E0,3.055655771E-2,1.157983387E-2,-1.817682999E-1,1.846821882E-1
2.529308708E0,2.918276353E-2,2.343778279E-2,-4.705254436E-2,6.012408236E-2
2.539305708E0,2.248798027E-2,-7.578568898E-2,1.315214217E-1,1.534505271E-1
2.549303708E0,4.070616378E-2,6.331234003E-2,1.960319978E-1,2.099856860E-1
2.559301708E0,5.956020002E-2,1.270000622E-2,-6.502688527E-3,6.124534711E-2
2.569299708E0,4.027318203E-2,-1.639390933E-2,9.652583599E-3,4.454056380E-2
2.579297708E0,3.338830030E-2,-1.003852267E-2,1.810344744E-1,1.843611441E-1
2.589295708E0,5.754511703E-2,4.263845842E-2,9.285553873E-2,1.172673429E-1
2.599292708E0,-1.202452947E-2,6.251819678E-2,-2.014418417E-1,2.112627034E-1
2.609290708E0,-3.086381519E-2,-1.475982772E-1,-1.721069455E-1,2.288200760E-1
2.619288708E0,1.062890051E-1,-4.787201336E-1,-1.029449093E-1,5.010668351E-1
2.629286708E0,8.933418101E-2,-8.516588735E-1,6.556892216E-1,1.078532238E0
2.639284708E0,1.233012506E-1,-8.831079767E-1,1.552194850E0,1.790081493E0
2.649281708E0,2.381121796E-1,-6.972604398E-1,1.368996906E0,1.554677478E0
2.659279708E0,-1.568671601E-2,-3.973413270E-1,4.785127401E-1,6.221741281E-1
2.669277709E0,-1.544268292E-1,-2.054570333E-1,-3.139171278E-1,4.057144332E-1
2.679275709E0,-5.528677159E-2,-3.089965497E-1,-3.041347361E-1,4.370737152E-1
2.689273708E0,-9.432404866E-2,-2.240930415E-1,7.907756907E-1,8.273094405E-1
2.699271708E0,-2.983217266E-1,-3.884382103E-1,1.794581820E0,1.860216117E0
2.709268708E0,-3.648000735E-1,-6.182283036E-1,1.935215542E0,2.064060204E0
2.719266708E0,-3.155947306E-1,-4.401727664E-1,1.675697985E0,1.761055319E0
2.729264708E0,-2.187422910E-1,-3.907248736E-1,1.577975809E0,1.640281003E0
2.739262708E0,-3.634361739E-1,-5.011995714E-3,2.001925841E0,2.034654282E0
2.749260708E0,-1.298194342E-1,-3.352263551E-1,1.585708752E0,1.625946506E0
2.759258708E0,-2.391455699E-2,2.459701065E-1,3.069939660E0,3.079870568E0
2.769255708E0,-1.920767858E-2,6.952528714E-1,4.202220227E0,4.259389666E0
2.779253708E0,4.218881210E-2,7.270005481E-1,4.053472908E0,4.118367675E0
2.789251708E0,1.011417651E-1,1.028705474E0,3.698780222E0,3.840499933E0
2.799249708E0,1.341851208E-1,1.216036230E0,2.721537994E0,2.983876474E0
2.809247708E0,5.738548804E-2,1.348795946E0,2.724162809E0,3.040330016E0
2.819245708E0,-4.340417415E-2,1.511416661E0,2.780631124E0,3.165149869E0
2.829242708E0,1.997788936E-1,1.192268248E0,3.278877633E0,3.494632128E0
2.839240708E0,1.999874565E-1,8.828740881E-1,3.454490569E0,3.571129615E0
2.849238708E0,2.020802846E-1,5.866579438E-1,3.452287338E0,3.507604859E0
2.859236708E0,1.855714752E-1,4.139601737E-1,3.597956682E0,3.626443449E0
2.869234708E0,6.180281279E-2,3.147696884E-1,3.486442094E0,3.501168093E0
2.879231708E0,-1.127334498E-1,2.848487185E-1,3.487018045E0,3.500448895E0
2.889229708E0,1.709319293E-2,2.525223502E-1,3.517720020E0,3.526813555E0
2.899227708E0,8.075736632E-2,1.621534861E-1,3.758023041E0,3.762386568E0
2.909225708E0,8.703025013E-2,2.109668098E-2,4.049460549E0,4.050450601E0
2.919223708E0,1.080693543E-1,-8.878781352E-2,4.366293683E0,4.368533254E0
2.929221708E0,1.305593720E-1,-1.723432461E-1,4.477686650E0,4.482903710E0
2.939218708E0,1.395238479E-1,-1.355904625E-1,4.253070538E0,4.257518136E0
2.949216708E0,2.306059444E-1,-1.288123336E-1,4.105597327E0,4.114085698E0
2.959214708E0,2.490576009E-1,4.300956018E-3,3.982271948E0,3.990054894E0
2.969212708E0,2.870021384E-1,1.384933127E-1,3.949994733E0,3.962828411E0
2.979210708E0,2.240280095E-1,2.074448309E-1,4.272860439E0,4.283755157E0
2.989208708E0,2.444253452E-1,1.913863850E-1,4.590977038E0,4.601460926E0
2.999205709E0,3.683849284E-1,2.244900675E-1,4.101660397E0,4.124284333E0
3.009203708E0,2.350091719E-1,2.713363878E-1,3.942526669E0,3.958834334E0
3.019201708E0,2.952411576E-1,2.971028745E-1,3.832679121E0,3.855498244E0
3.029199708E0,2.693040419E-1,2.859835169E-1,4.043090007E0,4.062128512E0
3.039197708E0,1.583083754E-1,3.612318467E-1,3.783467200E0,3.803968197E0
3.049195708E0,2.049865700E-2,5.206098423E-1,3.464802133E0,3.503756360E0
3.059192708E0,-7.398953397E-2,6.183947300E-1,3.550693054E0,3.604900505E0
3.069190708E0,-1.316234373E-1,6.796363471E-1,3.366519794E0,3.436958803E0
3.079188708E0,3.645090284E-2,6.644199186E-1,3.302292808E0,3.368667435E0
3.089186708E0,3.876515770E-2,5.438937474E-1,3.093124455E0,3.140818690E0
3.099184708E0,-4.978977218E-3,3.350417293E-1,2.851354367E0,2.870975353E0
3.109181708E0,-2.392402354E-1,3.986971501E-1,2.476298752E0,2.519573539E0
3.119179708E0,-4.242789379E-1,2.896270266E-1,2.177370962E0,2.237150137E0
3.129177708E0,-3.896349526E-1,4.065715589E-1,2.504486425E0,2.567015403E0
3.139175708E0,-3.529628605E-1,4.126227693E-1,2.289655044E0,2.353159695E0
3.149173708E0,-3.282214639E-1,6.394539157E-1,2.052580270E0,2.174791118E0
3.159171708E0,-3.809680634E-1,7.794169626E-1,2.130707257E0,2.300552300E0
3.169168708E0,-4.760494178E-1,7.565007743E-1,1.783572682E0,1.995005760E0
3.179166708E0,-4.852799421E-1,8.245981056E-1,1.355264720E0,1.658975925E0
3.189164708E0,-5.660431465E-1,5.277396447E-1,1.209160343E0,1.435612312E0
3.199162708E0,-5.367781976E-1,2.843178096E-1,1.081083516E0,1.240043958E0
3.209160708E0,-4.095216619E-1,4.092543711E-1,8.615135515E-1,1.037980121E0
3.219158708E0,-2.342429491E-1,5.661108645E-1,6.130519098E-1,8.667086675E-1
3.229155708E0,-1.081725394E-1,4.330738446E-1,5.173528701E-1,6.833068457E-1
3.239153708E0,2.961135987E-2,6.294719146E-1,3.801742673E-1,7.359648072E-1
3.249151708E0,3.893154753E-2,5.336447113E-1,-1.878476501E-2,5.353925762E-1
3.259149708E0,1.824453710E-2,3.393077116E-1,-2.029042304E-2,3.404031251E-1
3.269147708E0,1.525618963E-2,2.613055990E-1,6.688629985E-3,2.618360273E-1
3.279145708E0,1.153584933E-1,1.727680098E-1,-1.750492644E-1,2.716589998E-1
3.289142708E0,1.526136716E-1,-2.076802361E-1,-1.488701105E-3,2.577289845E-1
3.299140708E0,1.420280642E-1,-2.500009760E-1,-8.650312364E-2,3.002586376E-1
3.309138708E0,9.381249039E-2,-2.609326380E-1,-3.241187650E-1,4.265437829E-1
3.319136709E0,1.061937411E-1,-1.842046885E-1,-4.564704913E-1,5.035611059E-1
3.329134709E0,1.117937931E-1,-2.209073323E-1,-5.731084102E-1,6.243005298E-1
3.339132708E0,1.299071973E-1,-2.230376191E-1,-6.849948817E-1,7.320106881E-1
3.349129708E0,2.199409337E-1,-4.314642523E-1,-7.796116018E-1,9.177851955E-1
3.359127708E0,3.026912778E-1,-5.111933035E-1,-1.120522401E0,1.268270891E0
3.369125708E0,3.705703618E-1,-2.783479303E-1,-1.447088810E0,1.519495307E0
3.379123708E0,3.304344157E-1,-2.863869748E-1,-1.393755187E0,1.460738828E0
3.389121708E0,2.383051743E-1,-2.865076832E-1,-1.307586524E0,1.359653826E0
3.399118708E0,5.772733089E-2,-3.329248910E-1,-1.075822776E0,1.127637385E0
3.409116708E0,-6.332651496E-2,-2.681243661E-1,-1.042631641E0,1.078416275E0
3.419114708E0,-7.625790646E-2,-2.059978460E-1,-1.312946082E0,1.331194124E0
3.429112708E0,1.546971350E-2,-3.199158595E-1,-1.390185462E0,1.426604741E0
3.439110667E0,2.293243078E-1,-4.583579725E-1,-1.520584218E0,1.604636418E0
3.449108667E0,2.984695881E-1,-5.257537841E-1,-1.701282477E0,1.805509126E0
3.459105667E0,3.397865255E-1,-6.290034065E-1,-1.755755723E0,1.895726332E0
3.469103667E0,2.370082984E-1,-5.754486852E-1,-1.780791746E0,1.886407529E0
3.479101667E0,-2.337424457E-4,-6.212699521E-1,-1.836982319E0,1.939195826E0
3.489099667E0,-1.182233915E-1,-7.311883970E-1,-2.004155969E0,2.136645593E0
3.499097667E0,-1.444061816E-1,-1.005529011E0,-2.022526751E0,2.263306474E0
3.509095667E0,-1.046270802E-1,-1.103858932E0,-1.936565080E0,2.231532137E0
3.519092667E0,-1.193873528E-2,-1.129513810E0,-1.962704473E0,2.264542521E0
3.529090667E0,-1.428233586E-2,-1.113582487E0,-2.164930426E0,2.434582857E0
3.539088667E0,-3.322296571E-2,-1.030080227E0,-2.222260621E0,2.449614522E0
3.549086667E0,-1.418825051E-2,-7.304246776E-1,-2.484134606E0,2.589333168E0
3.559084667E0,-8.500133939E-2,-1.239377292E-1,-3.012261556E0,3.016008201E0
3.569082667E0,7.764006034E-4,-8.101573102E-3,-3.553378095E0,3.553387415E0
3.579079667E0,-1.215895604E-1,2.264085755E-2,-3.796152150E0,3.798166370E0
3.589077667E0,-1.854629362E-1,2.203143881E-1,-3.820285948E0,3.831125116E0
3.599075667E0,-7.854535550E-2,2.041443517E-1,-3.791349247E0,3.797653671E0
3.609073667E0,1.549849825E-1,5.518421235E-2,-3.896297997E0,3.899769702E0
3.619071667E0,2.018715390E-1,-8.284326000E-2,-3.917816336E0,3.923888373E0
3.629069667E0,3.260405621E-1,-2.468209130E-1,-3.794034289E0,3.816008280E0
3.639066667E0,3.654896430E-1,-4.750713248E-1,-3.970099799E0,4.015092509E0
3.649064667E0,1.433626546E-1,-5.523508678E-1,-4.494398577E0,4.530481530E0
3.659062667E0,-1.836504456E-2,-6.638669182E-1,-4.594686511E0,4.642434781E0
3.669060667E0,-1.514275182E-1,-7.440386036E-1,-4.357593611E0,4.423250594E0
3.679058667E0,-2.512803651E-1,-6.991723332E-1,-4.007907311E0,4.076187531E0
3.689056667E0,-3.336574375E-1,-7.550911568E-1,-3.934418335E0,4.020091737E0
3.699053667E0,-3.186230401E-1,-6.837058631E-1,-3.740704758E0,3.815998747E0
3.709051667E0,-3.595149580E-1,-5.347088680E-1,-4.163284788E0,4.212849962E0
3.719049667E0,-4.060605488E-1,-6.190403357E-1,-4.727435263E0,4.785053843E0
3.729047667E0,-3.439984942E-1,-6.408038916E-1,-4.554992103E0,4.612690934E0
3.739045667E0,-3.326357462E-1,-8.306287777E-1,-3.981446321E0,4.080748156E0
3.749042667E0,-3.639240510E-1,-8.017374659E-1,-3.377648799E0,3.490520748E0
3.759040667E0,-3.279131694E-1,-6.795227650E-1,-3.260843650E0,3.346995600E0
3.769038667E0,-2.521302944E-1,-5.143687801E-1,-3.510120394E0,3.556555933E0
3.779036667E0,-2.581854699E-1,-4.171980328E-1,-3.722469047E0,3.754662400E0
3.789034667E0,-3.440509730E-1,-2.048760577E-1,-3.394330906E0,3.417868864E0
3.799032667E0,-4.282028581E-1,-1.399501830E-2,-3.085495593E0,3.115098169E0
3.809029667E0,-4.805140959E-1,1.274592148E-1,-2.811418469E0,2.855033004E0
3.819027667E0,-5.505652012E-1,2.919339359E-1,-2.774141300E0,2.843274066E0
3.829025667E0,-5.515260815E-1,3.777133935E-1,-2.758939124E0,2.838766196E0
3.839023667E0,-5.043304630E-1,6.233305840E-1,-2.597346057E0,2.718289310E0
3.849021667E0,-4.173800639E-1,5.926853268E-1,-2.359793565E0,2.468624655E0
3.859019667E0,-2.160380634E-1,4.901521345E-1,-2.295692879E0,2.357356009E0
3.869016667E0,-8.472007005E-2,5.437285636E-1,-2.321262168E0,2.385597681E0
3.879014667E0,-3.465078268E-2,5.336229669E-1,-2.002166162E0,2.072347337E0
3.889012667E0,-3.399588539E-2,2.842812462E-1,-1.653776774E0,1.678376944E0
3.899010667E0,-1.402115718E-1,9.965073422E-2,-1.626147510E0,1.635220254E0
3.909008667E0,-1.703933824E-1,-6.839583166E-2,-1.632944899E0,1.643234900E0
3.919006667E0,-1.108502809E-1,-1.553611777E-1,-1.490702022E0,1.502869721E0
3.929003667E0,-2.807429133E-2,-3.053739803E-1,-1.139990705E0,1.180516938E0
3.939001667E0,6.549678214E-2,-2.145545152E-1,-8.530953151E-1,8.820969817E-1
3.948999667E0,9.706811043E-2,-1.979045686E-1,-8.805684578E-1,9.077385335E-1
3.958997667E0,5.470135110E-2,-1.466182016E-1,-1.099974115E0,1.111050039E0
3.968995667E0,6.193902550E-2,-1.001919671E-1,-1.149983597E0,1.156000496E0
3.978993667E0,1.365151997E-1,-1.139479805E-1,-7.996810001E-1,8.192131859E-1
3.988990667E0,2.219046480E-1,-2.712423573E-1,-4.704862672E-1,5.866612454E-1
3.998988667E0,3.514380529E-1,-3.846047026E-1,-2.979934055E-1,6.001912628E-1
4.008986667E0,3.183345531E-1,-3.161371695E-1,-1.242521632E-1,4.655300180E-1
4.018984667E0,1.455347856E-1,-3.000015586E-1,-3.492845964E-1,4.828882255E-1
4.028982667E0,2.466136292E-3,-2.587663360E-1,-2.797109163E-1,3.810568136E-1
4.038980667E0,-7.275379803E-2,-1.511465777E-1,-1.644476777E-1,2.349073047E-1
4.048977667E0,-5.187607700E-2,-1.077171875E-1,-2.920766079E-1,3.155992154E-1
4.058975667E0,-1.501995298E-1,-7.150523476E-3,-1.307256156E-1,1.992491288E-1
4.068973667E0,-2.753970233E-1,2.047875820E-2,-1.478953797E-1,3.132665691E-1
4.078971667E0,-2.876384616E-1,-1.439260704E-1,-1.009714741E-1,3.371139821E-1
4.088969667E0,-2.630624315E-1,-7.798252445E-2,2.768773556E-2,2.757711509E-1
4.098967667E0,-1.162614314E-1,-2.660826646E-2,-4.318928897E-2,1.268465015E-1
4.108964667E0,4.353621159E-2,1.526455846E-2,-1.079378468E-1,1.173839309E-1
4.118962667E0,1.939980804E-1,1.567439528E-1,-1.022397351E-1,2.695494118E-1
4.128960667E0,3.167166285E-1,2.331539965E-1,-3.371808600E-1,5.180358494E-1
4.138958667E0,3.190120627E-1,3.350850352E-1,-4.679719645E-1,6.580641583E-1
4.148956667E0,2.523692080E-1,4.256421431E-1,-2.746308553E-1,5.659360015E-1
4.158954667E0,2.155950455E-1,4.775366206E-1,-1.296163988E-1,5.397433265E-1
4.168951667E0,1.656520032E-1,5.703977142E-1,-1.276453024E-1,6.075256881E-1
4.178949667E0,1.514559503E-1,6.541608325E-1,-3.770074153E-1,7.700648615E-1
4.188947667E0,1.687796240E-1,5.287497512E-1,-5.297273326E-1,7.672508767E-1
4.198945667E0,2.545050497E-1,3.709501384E-1,-3.421749669E-1,5.652083983E-1
4.208943667E0,3.458253106E-1,3.343474455E-1,-2.507022947E-1,5.424343281E-1
4.218941667E0,3.550401570E-1,3.481832368E-1,-2.292085147E-1,5.475596978E-1
4.228938667E0,3.409375499E-1,3.493674442E-1,-2.698583579E-1,5.577809223E-1
4.238936667E0,3.361137432E-1,3.234457139E-1,-4.689776856E-1,6.614602390E-1
4.248934667E0,3.349477718E-1,1.802184772E-1,-2.640473950E-1,4.630223927E-1
4.258932667E0,3.862093978E-1,1.523144860E-1,6.051283479E-3,4.152035882E-1
4.268930667E0,4.274860626E-1,2.284791111E-1,2.486996233E-1,5.447921994E-1
4.278927667E0,3.840287519E-1,3.433893605E-1,1.825260991E-1,5.465437878E-1
4.288925667E0,3.133288249E-1,5.152742946E-1,-1.659568441E-1,6.254791965E-1
4.298923667E0,1.984552850E-1,4.593858765E-1,-3.301185930E-1,5.994982644E-1
4.308921667E0,1.454725310E-1,3.983577193E-1,-2.863176852E-1,5.116922382E-1
4.318919667E0,1.268005442E-1,4.111702113E-1,-1.981486899E-1,4.737111187E-1
4.328917667E0,9.199583357E-2,1.618736420E-1,-8.572018147E-3,1.863861284E-1
4.338914667E0,6.777072776E-2,1.161333956E-1,1.877652043E-1,2.309450347E-1
4.348912667E0,-2.910488136E-3,1.116350778E-1,8.985416293E-3,1.120339200E-1
4.358910667E0,-6.900825441E-2,1.554639060E-1,-1.954303193E-1,2.590833359E-1
4.368908667E0,-1.669956750E-1,1.653497569E-1,-1.944889176E-1,3.050475974E-1
4.378906667E0,-1.362649297E-1,1.243776956E-1,-1.725811547E-1,2.526305547E-1
4.388904667E0,-1.608578162E-1,8.057644067E-2,8.707965910E-2,1.998766291E-1
4.398901667E0,-2.667161738E-1,1.584867337E-1,1.001107639E-1,3.260026491E-1
4.408899667E0,-3.411327738E-1,8.106327619E-2,8.411745965E-2,3.605808802E-1
4.418897667E0,-3.534549768E-1,1.610038139E-2,-3.637143552E-2,3.556859911E-1
4.428895667E0,-3.366198562E-1,5.424286544E-2,1.030057204E-1,3.561816875E-1
4.438893417E0,-2.792274429E-1,3.658325091E-2,3.202145791E-1,4.264313260E-1
4.448891417E0,-2.451057419E-1,-1.258775795E-2,2.991184098E-1,3.869200168E-1
4.458888417E0,-1.742251359E-1,-3.053185780E-2,9.345253944E-2,2.000499174E-1
4.468886417E0,-1.916149746E-1,2.889503941E-2,1.465680617E-1,2.429679372E-1
4.478884417E0,-2.202209971E-1,3.299693428E-3,2.170351964E-1,3.092126324E-1
4.488882417E0,-2.665348371E-1,-3.635981418E-3,2.958539093E-1,3.982255333E-1
4.498880417E0,-3.231092798E-1,4.448634759E-3,2.358988988E-1,4.000846004E-1
4.508878417E0,-3.668697321E-1,-1.164456917E-1,1.472176874E-1,4.120995595E-1
4.518875417E0,-4.222863164E-1,-2.107926359E-1,2.054226261E-1,5.147404431E-1
4.528873417E0,-3.781747388E-1,-1.633073245E-1,3.636506206E-1,5.494790161E-1
4.538871417E0,-3.032335339E-1,-4.312398288E-2,3.595979154E-1,4.723567664E-1
4.548869417E0,-2.059277890E-1,-2.631733093E-2,1.743967152E-1,2.711329387E-1
4.558867417E0,-1.556627844E-1,-1.965983737E-2,6.159807801E-2,1.685578087E-1
4.568865417E0,-1.681823675E-1,4.048520755E-2,9.454421461E-2,1.971369303E-1
4.578862417E0,-1.388160790E-1,3.978522275E-2,1.582876360E-1,2.142609238E-1
4.588860417E0,-1.161778162E-1,7.629881870E-2,2.899523145E-1,3.215449259E-1
4.598858417E0,-1.215470768E-1,1.422217532E-1,1.936065727E-1,2.692289434E-1
4.608856417E0,-1.520190920E-1,1.577839715E-1,-6.100517035E-2,2.274361818E-1
4.618854417E0,-1.497042706E-1,8.340154119E-2,-1.840522224E-1,2.514804292E-1
4.628852417E0,-7.825049138E-2,-2.764779177E-2,-1.434690374E-1,1.657434900E-1
4.638849417E0,-4.335052595E-3,-1.138379432E-1,2.093478620E-2,1.158280418E-1
4.648847417E0,2.909980159E-2,-1.169332947E-1,1.090271831E-1,1.625026785E-1
4.658845417E0,2.655602524E-2,-1.551327343E-1,-4.926220715E-2,1.649186247E-1
4.668843417E0,5.121216221E-2,-1.626376721E-1,-2.385365778E-1,2.932122046E-1
4.678841417E0,6.598581037E-2,-1.957010088E-1,-2.748138732E-1,3.437668933E-1
4.688839417E0,1.039159491E-1,-1.830803603E-1,-1.112339222E-1,2.380964684E-1
4.698836417E0,1.448917015E-1,-2.188361388E-1,-1.337842941E-3,2.624588552E-1
4.708834417E0,1.798762689E-1,-2.781838063E-1,-1.682419360E-2,3.316997975E-1
4.718832417E0,2.121318493E-1,-1.858800437E-1,-1.198632431E-1,3.064612686E-1
4.728830417E0,2.384652418E-1,-1.838557194E-1,-3.070308620E-1,4.300424948E-1
4.738828417E0,2.610331736E-1,-2.080763119E-1,-2.683433443E-1,4.283015523E-1
4.748826417E0,2.334440184E-1,-2.300229405E-1,-1.783599579E-1,3.731205401E-1
4.758823417E0,1.846913961E-1,-2.565791484E-1,-8.452618003E-2,3.272437109E-1
4.768821417E0,1.296897814E-1,-2.390891397E-1,2.291056037E-2,2.729614440E-1
4.778819417E0,1.151330466E-1,-2.673514190E-1,-5.583213866E-2,2.963943781E-1
4.788817417E0,9.908024697E-2,-2.304186325E-1,-6.851124108E-2,2.600065993E-1
4.798815417E0,6.138430746E-2,-1.960447520E-1,-4.250516474E-2,2.097814745E-1
4.808813417E0,8.735244999E-2,-1.712748136E-1,-2.783450067E-2,1.942685557E-1
4.818810417E0,8.024430055E-2,-7.665063836E-2,-1.960571408E-2,1.126891838E-1
4.828808417E0,4.942017334E-2,-2.701691374E-2,-4.242096484E-2,7.051103047E-2
4.838806417E0,1.329006337E-2,3.813817173E-2,8.925189972E-3,4.136187790E-2
4.848804417E0,-5.290834811E-3,5.830266036E-2,1.513083994E-2,6.046598594E-2
4.858802417E0,-2.346621031E-2,1.099298470E-2,2.504187047E-2,3.603614874E-2
4.868800417E0,-3.659186642E-2,-5.443604283E-2,2.702407658E-2,7.094045504E-2
4.878797417E0,-2.039443038E-2,-1.245670723E-1,6.003394783E-2,1.397746872E-1
4.888795417E0,1.614296556E-2,-8.561003454E-2,2.420513391E-2,9.041881363E-2
4.898793417E0,5.133652518E-2,-6.803133085E-2,-7.569396079E-2,1.139880542E-1
4.908791417E0,7.712278275E-2,-6.264502198E-2,-1.560136539E-1,1.849664364E-1
4.918789417E0,7.572785636E-2,-9.021190289E-2,-1.593050516E-1,1.981186390E-1
4.928787417E0,5.756857898E-2,-1.576971404E-1,-1.216320258E-1,2.073086565E-1
4.938784417E0,-3.232587492E-3,-1.951499270E-1,5.058426261E-2,2.016251752E-1
4.948782417E0,-5.238660745E-2,-2.720618994E-1,1.448478109E-1,3.126386445E-1
4.958780417E0,-7.954457156E-2,-3.394908026E-1,1.070093089E-1,3.647359814E-1
4.968778417E0,-1.257172744E-1,-2.742920823E-1,4.979196489E-2,3.058107572E-1
4.978776417E0,-1.671382557E-1,-2.346887262E-1,-7.682247341E-2,2.981873357E-1
4.988774417E0,-1.032199751E-1,-1.305817193E-1,-5.119412720E-2,1.741458795E-1
4.998771417E0,-6.334862018E-2,-8.781425212E-2,-1.055118370E-1,1.511857741E-1
5.008769417E0,-3.220503855E-2,-8.550659364E-2,-8.682004273E-2,1.260407152E-1
5.018767417E0,-1.947476386E-2,-1.105450837E-1,9.307714820E-2,1.458178229E-1
5.028765417E0,-3.980196040E-2,-1.299506951E-1,1.077191609E-1,1.734208662E-1
5.038763417E0,-1.008114065E-1,-1.101975398E-1,6.131565750E-2,1.614498291E-1
5.048761417E0,-1.364784810E-1,-1.277522882E-1,-7.635937393E-2,2.019350809E-1
5.058758417E0,-1.682753016E-1,-6.863083491E-2,-1.734529746E-1,2.512224174E-1
5.068756417E0,-1.217691796E-1,-5.756057560E-2,-2.064651847E-1,2.465133373E-1
5.078754417E0,-4.688355525E-2,-2.394705243E-2,-6.721198976E-2,8.537552718E-2
5.088752417E0,-2.724010836E-2,-2.777420126E-2,5.585903585E-2,6.807100444E-2
5.098750417E0,-2.697034158E-2,-4.233705729E-2,7.875322402E-2,9.339109186E-2
5.108748417E0,-5.136424920E-2,1.480032608E-2,1.400911009E-1,1.499428301E-1
5.118745417E0,-9.846428848E-2,5.529368319E-2,2.732696235E-2,1.161867909E-1
5.128743417E0,-1.059081960E-1,-4.224521946E-3,-2.944774747E-2,1.100071016E-1
5.138741417E0,-7.282107756E-2,-1.035399549E-1,-4.039081156E-2,1.328715517E-1
5.148739417E0,-1.726925807E-2,-1.842469164E-1,-5.265651584E-2,1.924002654E-1
5.158737417E0,3.510488750E-2,-2.240443635E-1,1.539408159E-1,2.740912343E-1
5.168735417E0,3.111072301E-2,-1.772820055E-1,1.999326754E-1,2.690164702E-1
5.178732417E0,-5.591198970E-3,-8.659114251E-2,1.298923874E-1,1.562092179E-1
5.188730417E0,-9.058255241E-3,-3.054165188E-2,3.648604095E-2,4.843630531E-2
5.198728417E0,1.203298966E-2,-1.574998699E-2,-8.726969361E-3,2.165675240E-2
5.208726417E0,3.793480740E-2,-1.154912800E-2,6.058007777E-2,7.240426639E-2
5.218724417E0,6.429078934E-2,-4.423806019E-2,8.948929667E-2,1.187377185E-1
5.228722417E0,8.935583398E-2,-6.020329781E-2,1.187090027E-1,1.603144705E-1
5.238719417E0,1.255464809E-1,-7.453376357E-2,8.882505298E-2,1.709008216E-1
5.248717417E0,1.488770175E-1,-3.909232769E-2,3.079962373E-2,1.569751358E-1
5.258715417E0,1.523750595E-1,5.600134246E-3,1.856666386E-2,1.536041707E-1
5.268713417E0,1.665164409E-1,3.919987991E-2,-3.381386340E-2,1.743781323E-1
5.278711417E0,1.662811818E-1,1.596231401E-2,5.345173717E-2,1.753890393E-1
5.288709417E0,1.521275761E-1,3.212277554E-3,1.142323744E-1,1.902686351E-1
5.298706417E0,1.078363428E-1,-1.742707808E-2,1.408927542E-1,1.782782882E-1
5.308704417E0,6.816844349E-2,-6.483831257E-3,1.042488384E-1,1.247268899E-1
5.318702417E0,-4.518061308E-3,-2.969877575E-2,3.722279012E-2,4.783269032E-2
5.328700417E0,-1.803260294E-2,-2.276595142E-2,-6.811479986E-2,7.404788499E-2
5.338698417E0,-2.009977183E-2,-1.733904094E-2,-1.552494228E-2,3.075169915E-2
5.348696417E0,1.604096820E-2,-1.523608983E-2,1.806555748E-2,2.856248345E-2
5.358693417E0,6.706857766E-2,-2.171834964E-2,6.932926655E-2,9.887582121E-2
5.368691417E0,1.113575817E-1,1.893379591E-2,8.511148632E-2,1.414318378E-1
5.378689417E0,1.028936822E-1,8.675696589E-2,2.364847898E-2,1.366496672E-1
5.388687417E0,8.856449557E-2,1.155635296E-1,-1.477649868E-2,1.463452909E-1
5.398685417E0,4.169154753E-2,1.851371001E-1,-3.212460279E-2,1.924731698E-1
5.408683417E0,-9.942226340E-3,2.087392765E-1,-7.584832728E-2,2.223148717E-1
5.418680417E0,-1.617475980E-2,2.382479446E-1,-5.240157723E-2,2.444782839E-1
5.428678417E0,-1.941343662E-2,2.592296913E-1,-1.003943539E-1,2.786681551E-1
5.438676667E0,-1.730466456E-2,2.273275385E-1,-8.884317935E-2,2.446842285E-1
5.448674667E0,-3.223149721E-2,2.086038404E-1,-9.494708776E-3,2.112926433E-1
5.458672667E0,-8.101923021E-2,1.907585036E-1,-4.720866501E-2,2.125595926E-1
5.468670667E0,-1.383523674E-1,1.546666381E-1,-6.397087812E-2,2.171529870E-1
5.478667667E0,-1.458092758E-1,8.432362882E-2,-1.456833780E-1,2.226981498E-1
5.488665667E0,-1.259642462E-1,-1.691990521E-2,-2.294798255E-1,2.623247316E-1
5.498663667E0,-1.085755131E-1,-6.668268884E-2,-1.833289218E-1,2.232593035E-1
5.508661667E0,-9.331608005E-2,-5.084895875E-2,-3.806478918E-2,1.128823971E-1
5.518659667E0,-7.685223939E-2,1.792367114E-2,-3.978211641E-2,8.837500479E-2
5.528657667E0,-5.509162534E-2,9.054183204E-2,-2.218597341E-1,2.458752776E-1
5.538654667E0,-2.789527974E-2,1.000379295E-1,-3.419662213E-1,3.573886267E-1
5.548652667E0,-6.772263441E-7,7.092604978E-2,-3.472719848E-1,3.544408780E-1
5.558650667E0,2.367933218E-2,3.179556901E-2,-2.084269255E-1,2.121637393E-1
5.568648667E0,3.822949336E-2,1.903032979E-2,-1.003990316E-1,1.091036808E-1
5.578646667E0,3.319346468E-2,-8.294549491E-3,-1.260262084E-1,1.305879430E-1
5.588644667E0,8.913114101E-3,3.639402039E-2,-2.091239136E-1,2.124541823E-1
5.598641667E0,-3.531871287E-3,5.502158666E-2,-2.613717091E-1,2.671236033E-1
5.608639667E0,8.628663048E-3,5.538500939E-2,-2.481973475E-1,2.544481802E-1
5.618637667E0,4.162901429E-2,5.170204924E-2,-1.585285413E-1,1.718644092E-1
5.628635667E0,4.893125474E-2,6.450251793E-2,-5.553860843E-2,9.818034191E-2
5.638633667E0,5.384965390E-2,6.608393395E-2,-3.562766969E-2,9.239157104E-2
5.648631667E0,6.602525166E-2,8.600201726E-2,-8.906595826E-2,1.403154509E-1
5.658628667E0,1.000092416E-1,5.732783815E-2,-1.457950598E-1,1.858615853E-1
5.668626667E0,1.256965259E-1,3.968636826E-2,-1.101627123E-1,1.717860520E-1
5.678624667E0,1.394293058E-1,4.473180274E-2,-5.671740711E-2,1.570297098E-1
5.688622667E0,1.325877254E-1,9.067129305E-2,1.003382206E-2,1.609393236E-1
5.698620667E0,1.164346734E-1,1.372952730E-1,-4.492474258E-2,1.855404475E-1
5.708618667E0,7.896196961E-2,1.445697575E-1,-1.151737761E-1,2.009985227E-1
5.718615667E0,4.603834480E-2,1.513717869E-1,-6.134196997E-2,1.696932065E-1
5.728613667E0,5.036978857E-3,9.136714825E-2,-2.568097115E-3,9.154191422E-2
5.738611667E0,-3.862154004E-2,6.303769905E-2,8.061673164E-2,1.093820473E-1
5.748609667E0,-5.640650426E-2,4.105633434E-2,7.879356980E-2,1.052413557E-1
5.758607667E0,-3.705836916E-2,1.036159504E-2,-5.310148895E-2,6.557784310E-2
5.768605667E0,-8.412813996E-3,2.404835545E-2,-1.315500730E-1,1.339944796E-1
5.778602667E0,2.571619605E-2,-2.759301066E-3,-1.173354918E-1,1.201522123E-1
5.788600667E0,8.261541959E-2,-2.308692701E-2,-1.164765358E-2,8.656778608E-2
5.798598667E0,8.583851449E-2,2.896593690E-2,8.251707673E-2,1.225411932E-1
5.808596667E0,7.502109244E-2,6.238756176E-2,5.647357821E-2,1.127370268E-1
5.818594667E0,6.193924934E-2,4.519943381E-2,-3.917692959E-2,8.610627874E-2
5.828592667E0,6.133065926E-2,5.947988760E-2,-1.016064817E-1,1.327523405E-1
5.838589667E0,2.297867586E-2,6.597576046E-2,-1.110555822E-1,1.312027547E-1
5.848587667E0,-5.254713407E-3,3.943510244E-2,-2.576575577E-2,4.739845449E-2
5.858585667E0,-1.286919061E-2,4.645300375E-2,5.696825266E-2,7.462492503E-2
5.868583667E0,-4.020719072E-3,8.908675242E-2,5.002176046E-2,1.022486780E-1
5.878581667E0,-1.665431714E-2,1.272874345E-1,2.255914271E-2,1.303394499E-1
5.888579667E0,-2.390018335E-2,1.661997045E-1,1.529222310E-2,1.686043079E-1
5.898576667E0,-2.195032879E-2,1.305538719E-1,2.417940617E-2,1.345762761E-1
5.908574667E0,-1.447813079E-2,6.712749749E-2,7.468005359E-2,1.014535736E-1
5.918572667E0,1.729314029E-3,7.190613449E-4,1.263805497E-1,1.263944259E-1
5.928570667E0,-3.088910440E-3,-4.886342704E-2,1.306367379E-1,1.395103336E-1
5.938568667E0,5.789095243E-3,-3.247475965E-2,1.214256191E-1,1.258264862E-1
5.948566667E0,2.740082456E-2,-5.987938033E-2,2.360637903E-2,6.995431729E-2
5.958563667E0,5.504729614E-2,-7.657994187E-2,-9.981781840E-3,9.483843249E-2
5.968561667E0,4.748422876E-2,-4.354885619E-2,7.753758788E-2,1.008133542E-1
5.978559667E0,3.751599144E-2,-5.364891624E-2,1.134248739E-1,1.309612838E-1
5.988557667E0,2.368967445E-2,-7.399795761E-2,1.443794489E-1,1.639582986E-1
5.998555667E0,1.418693945E-2,-4.969110042E-2,2.063242668E-1,2.126973855E-1
6.008553667E0,2.215247343E-2,-6.337669138E-3,1.223196584E-1,1.244708679E-1
6.018550667E0,5.235257026E-2,-1.475267127E-2,6.271781981E-2,8.301781643E-2
6.028548667E0,7.701692074E-2,-2.039561810E-2,5.805641949E-2,9.858060236E-2
6.038546667E0,6.360325271E-2,-6.474292986E-2,3.260290504E-2,9.643635279E-2
6.048544667E0,5.968352602E-2,-7.020305984E-2,1.022216088E-1,1.376221283E-1
6.058542667E0,2.719633647E-2,-3.348007875E-2,1.194638783E-1,1.270124978E-1
6.068540667E0,8.576675362E-3,-2.986472704E-2,8.117747962E-2,8.692090933E-2
6.078537667E0,-4.517104740E-2,1.771943886E-2,3.256840646E-2,5.843888377E-2
6.088535667E0,-6.751940256E-2,2.253942663E-2,-2.098858058E-2,7.421196662E-2
6.098533667E0,-8.132629126E-2,2.067445720E-2,-5.764828384E-2,1.018072859E-1
6.108531667E0,-7.180976963E-2,8.277830109E-3,-9.281636238E-2,1.176437105E-1
6.118529667E0,-3.732077438E-2,1.701185267E-2,-1.059796143E-1,1.136394384E-1
6.128527667E0,-5.596287875E-3,1.507488940E-2,-9.338705063E-2,9.476134208E-2
6.138524667E0,-3.341448486E-3,4.343865445E-2,-7.973263264E-2,9.085909248E-2
6.148522667E0,-1.658599722E-2,4.337396963E-2,-9.914304972E-2,1.094794083E-1
6.158520667E0,-3.642768300E-2,2.871085212E-2,-1.080664855E-1,1.175995511E-1
6.168518667E0,-1.861882285E-2,3.764656708E-3,-1.162414777E-1,1.177833365E-1
6.178516667E0,-1.231334538E-2,2.595239159E-2,-6.035963774E-2,6.684632354E-2
6.188514667E0,-3.150927471E-2,1.091881642E-2,-6.811304569E-2,7.583826170E-2
6.198512667E0,-4.982990784E-2,-1.134063821E-2,-8.844264507E-2,1.021456375E-1
6.208509667E0,-3.778538363E-2,-3.715658868E-2,-1.080185384E-1,1.203177124E-1
6.218507667E0,-3.226020795E-2,-5.923706369E-2,-1.316249174E-1,1.479015538E-1
6.228505667E0,-4.445661815E-2,-6.808203718E-2,-2.932495594E-2,8.643788362E-2
6.238503667E0,-5.969624828E-2,-5.129111789E-2,2.583124459E-2,8.283522216E-2
6.248501667E0,-5.949893673E-2,-5.441636330E-2,-3.606679559E-2,8.832937116E-2
6.258499667E0,-4.831104789E-2,-2.315537598E-2,-6.864514232E-2,8.707631336E-2
6.268496667E0,-6.597375505E-2,4.246438041E-2,-1.163736248E-1,1.403516317E-1
6.278494667E0,-8.688693853E-2,9.531591916E-2,-1.445279682E-1,1.937080228E-1
6.288492667E0,-8.726307895E-2,9.470329542E-2,-1.463593161E-1,1.949477072E-1
6.298490667E0,-1.209151937E-1,8.550966343E-2,-5.914224744E-2,1.594684673E-1
6.308488667E0,-1.521038035E-1,2.589278653E-2,-3.838638604E-2,1.589953398E-1
6.318486667E0,-1.851813197E-1,-4.773367189E-2,-4.845996916E-2,1.972789731E-1
6.328483667E0,-1.808560795E-1,-8.097797994E-2,-5.120816052E-2,2.046671210E-1
6.338481667E0,-1.631763469E-1,-4.029274279E-2,-5.517198801E-2,1.769010276E-1
6.348479667E0,-1.050301361E-1,2.116606185E-2,-4.448620141E-2,1.160101451E-1
6.358477667E0,-7.997053209E-2,6.505676089E-2,-1.085061961E-1,1.496705139E-1
6.368475667E0,-9.728620243E-2,7.611315133E-2,-1.773185688E-1,2.161011149E-1
6.378473667E0,-9.763801295E-2,1.781909734E-2,-1.048148489E-1,1.443497640E-1
6.388470667E0,-9.121597032E-2,-4.555476179E-2,-3.514585912E-2,1.078462840E-1
6.398468667E0,-1.001181369E-1,-1.261599817E-1,5.279509485E-2,1.694913106E-1
6.408466667E0,-1.139771435E-1,-1.267830026E-1,6.679625273E-2,1.831023166E-1
6.418464667E0,-1.254984881E-1,-1.677430040E-1,1.165408552E-2,2.098175484E-1
6.428462667E0,-9.307118221E-2,-1.211575060E-1,-2.985354424E-2,1.556683023E-1
6.438460667E0,-5.694954157E-2,-7.018783880E-2,-7.973029375E-2,1.205259422E-1
6.448457583E0,-2.288609343E-2,-5.532450898E-2,-8.917764008E-2,1.074114801E-1
6.458455583E0,-1.815688368E-3,-9.476618953E-3,-1.194469213E-2,1.535508714E-2
6.468453583E0,6.253619981E-3,5.739919245E-3,5.571285546E-2,5.635580448E-2
6.478451583E0,-1.324982721E-2,1.187428800E-2,8.325674951E-2,8.513661360E-2
6.488449583E0,-5.003169159E-2,-2.516714707E-3,8.970272005E-2,1.027427954E-1
6.498447583E0,-7.081884930E-2,-2.493634650E-2,4.256012857E-2,8.630466579E-2
6.508444584E0,-4.945086208E-2,-7.752399310E-2,-5.477671623E-3,9.211602550E-2
6.518442584E0,6.255901766E-3,-6.477582045E-3,-5.021004081E-3,1.031047322E-2
6.528440583E0,2.986721895E-2,1.675406355E-2,-6.533269465E-2,7.376388279E-2
6.538438583E0,7.169393538E-2,2.541159723E-2,-6.067363322E-2,9.729881506E-2
6.548436583E0,6.953782942E-2,4.111316197E-2,-2.128269553E-2,8.353894264E-2
6.558434583E0,4.464287024E-2,3.240329571E-2,1.019111216E-2,5.609650794E-2
6.568431583E0,1.518855379E-3,2.868600145E-2,3.284147143E-2,4.363205068E-2
6.578429583E0,-1.912496332E-2,2.703087397E-2,-1.665637851E-2,3.706571616E-2
6.588427583E0,-2.049365032E-2,1.633523846E-2,-1.047984767E-1,1.080256934E-1
6.598425583E0,-1.794108488E-3,4.802592304E-3,-1.869787538E-1,1.870490259E-1
6.608423583E0,1.220568809E-2,-1.177450161E-2,-1.552570242E-1,1.561805406E-1
6.618421583E0,2.685596913E-2,-2.722836368E-2,-6.904333770E-2,7.892787434E-2
6.628419583E0,1.259146728E-2,-4.490562949E-2,-2.502198994E-2,5.292599162E-2
6.638416583E0,-3.353126929E-3,-4.772972502E-2,-2.288658679E-2,5.303928700E-2
6.648414583E0,-1.174404584E-2,-1.539242975E-2,-5.710800111E-2,6.030069069E-2
6.658412583E0,-2.079224205E-3,3.507393837E-2,-9.522424579E-2,1.014995631E-1
6.668410583E0,-1.146713450E-2,2.850685738E-2,-1.115122497E-1,1.156681370E-1
6.678408583E0,-1.167909150E-2,6.243550893E-2,-1.309858167E-1,1.455743045E-1
6.688406583E0,-2.889792190E-2,3.226853566E-2,-1.442005241E-1,1.505660633E-1
6.698403583E0,-8.241961095E-3,4.480597101E-2,-1.724016452E-1,1.783194668E-1
6.708401583E0,6.941435267E-3,2.332675422E-2,-1.565907741E-1,1.584707907E-1
6.718399583E0,2.864711290E-2,-1.417293811E-2,-1.668134612E-1,1.698477556E-1
6.728397583E0,4.407605120E-2,-3.257977199E-2,-1.695365095E-1,1.781762271E-1
6.738395583E0,4.739539676E-2,-4.977604950E-2,-1.499500912E-1,1.649515341E-1
6.748393583E0,3.781061802E-2,2.234615788E-2,-1.327709717E-1,1.398467895E-1
6.758390583E0,5.784796625E-3,7.686380591E-2,-2.199576348E-1,2.330726703E-1
6.768388583E0,-1.528418317E-2,1.396345978E-1,-2.800898159E-1,3.133396434E-1
6.778386583E0,-4.682405527E-2,1.374323537E-1,-3.113671571E-1,3.435544360E-1
6.788384583E0,-3.642501977E-2,1.192225527E-1,-3.353302163E-1,3.577529219E-1
6.798382583E0,-3.627466410E-4,6.653161140E-2,-3.075062406E-1,3.146214788E-1
6.808380583E0,3.393226951E-2,2.568078842E-3,-3.215869206E-1,3.233823456E-1
6.818377583E0,8.140070622E-2,-6.299980178E-2,-3.835492802E-1,3.971210147E-1
6.828375583E0,9.832364467E-2,-5.274545747E-2,-4.095641273E-1,4.244907499E-1
6.838373584E0,1.274743627E-1,-6.749432805E-2,-4.758236057E-1,4.972054919E-1
6.848371584E0,1.345157625E-1,-4.639672430E-2,-5.880135477E-1,6.049851888E-1
6.858369583E0,1.364893531E-1,-1.087009267E-2,-6.380674678E-1,6.525929787E-1
6.868367583E0,1.536951781E-1,1.973194999E-2,-6.815245593E-1,6.989186523E-1
6.878364583E0,1.626464795E-1,6.241321642E-2,-7.149454898E-1,7.358643491E-1
6.888362583E0,1.737795598E-1,2.581870962E-2,-7.717090899E-1,7.914549012E-1
6.898360583E0,1.701066496E-1,1.712052866E-2,-8.554026264E-1,8.723204904E-1
6.908358583E0,1.287490923E-1,3.392718061E-2,-8.838388056E-1,8.938111750E-1
6.918356583E0,1.083575398E-1,3.613403857E-2,-9.876929569E-1,9.942758180E-1
6.928354583E0,5.763452461E-2,8.750847928E-2,-1.086438981E0,1.091480248E0
6.938351583E0,6.001081478E-2,1.151723692E-1,-1.131739699E0,1.139166678E0
6.948349583E0,6.048806635E-2,1.450621387E-1,-1.148011916E0,1.158720496E0
6.958347583E0,6.619146790E-2,1.740876533E-1,-1.289145575E0,1.302529898E0
6.968345583E0,8.304748314E-2,1.366977150E-1,-1.348423478E0,1.357876661E0
6.978343583E0,1.064266887E-1,1.266882046E-1,-1.281675172E0,1.292311026E0
6.988341583E0,1.075561424E-1,1.694884162E-1,-1.258033710E0,1.273947983E0
6.998339583E0,1.128897075E-1,2.223437373E-1,-1.325385448E0,1.348639096E0
7.008336583E0,9.269636655E-2,2.579853673E-1,-1.451678874E0,1.477335649E0
7.018334583E0,4.028774525E-2,2.522181123E-1,-1.496653903E0,1.518291798E0
7.028332583E0,7.455766406E-3,2.697134018E-1,-1.434723703E0,1.459874314E0
7.038330583E0,-3.241805993E-3,2.659230356E-1,-1.423097100E0,1.447733030E0
7.048328583E0,9.517037831E-3,2.291440491E-1,-1.468551600E0,1.486351698E0
7.058326583E0,4.011692433E-2,1.930498447E-1,-1.558225669E0,1.570651089E0
7.068323583E0,7.650093136E-2,1.437273747E-1,-1.634455234E0,1.642544935E0
7.078321583E0,8.859732220E-2,1.528175658E-1,-1.753792813E0,1.762666141E0
7.088319583E0,8.927269388E-2,1.033414236E-1,-1.712928962E0,1.718363958E0
7.098317583E0,9.609710718E-2,3.832456087E-2,-1.581599913E0,1.584980035E0
7.108315583E0,8.970228150E-2,3.251514655E-2,-1.501698881E0,1.504726973E0
7.118313583E0,7.571987126E-2,7.919196619E-2,-1.578014401E0,1.581813616E0
7.128310583E0,6.145902392E-2,1.033286329E-1,-1.709834030E0,1.714055550E0
7.138308583E0,6.052189797E-2,4.363785264E-2,-1.795261266E0,1.796811113E0
7.148306583E0,3.826394169E-2,1.753064688E-1,-1.825801858E0,1.834597752E0
7.158304583E0,-1.784650616E-2,2.022333172E-1,-1.859708692E0,1.870757396E0
7.168302584E0,-4.792023461E-2,1.866453529E-1,-1.896958964E0,1.906721309E0
7.178300584E0,-4.621509517E-2,2.328696391E-1,-1.829754576E0,1.845092386E0
7.188297583E0,-6.142171137E-3,2.269214494E-1,-1.827839613E0,1.841881842E0
7.198295583E0,4.057653375E-2,2.505806726E-1,-1.755737597E0,1.773993133E0
7.208293583E0,7.709539220E-2,3.046611134E-1,-1.676449937E0,1.705651338E0
7.218291583E0,1.047646177E-1,3.610467458E-1,-1.892777621E0,1.929750631E0
7.228289583E0,9.328401173E-2,3.408811608E-1,-2.063561926E0,2.093606862E0
7.238287583E0,8.202399200E-2,3.483329621E-1,-2.077274231E0,2.107873815E0
7.248284583E0,3.789916679E-2,2.861305926E-1,-1.902324370E0,1.924095910E0
7.258282583E0,-1.026411099E-2,1.522410577E-1,-1.856514943E0,1.862774926E0
7.268280583E0,-7.496954558E-2,5.410791353E-2,-1.843990207E0,1.846306579E0
7.278278583E0,-1.528150259E-1,9.750305191E-2,-1.785582955E0,1.794760643E0
7.288276583E0,-1.082668258E-1,1.890874059E-1,-1.851185791E0,1.863964749E0
7.298274583E0,1.293842643E-3,1.902193904E-1,-1.871555151E0,1.881197431E0
7.308271583E0,1.415638318E-2,2.669285009E-1,-1.942453811E0,1.960759555E0
7.318269583E0,-2.416285124E-2,2.290615120E-1,-1.906227386E0,1.920092671E0
7.328267583E0,-5.509474995E-2,5.874167662E-4,-1.706453755E0,1.707343022E0
7.338265583E0,-5.513906088E-2,-1.463627331E-1,-1.644799544E0,1.652219085E0
7.348263583E0,-1.252571534E-1,-2.634839244E-1,-1.558246719E0,1.585322040E0
7.358261583E0,-2.189596795E-1,-2.993429063E-1,-1.606153541E0,1.648417033E0
7.368259583E0,-8.275557004E-2,-2.917910628E-1,-1.448263516E0,1.479681628E0
7.378256583E0,2.871593188E-2,-2.303315638E-1,-1.281200379E0,1.302056698E0
7.388254583E0,1.290766277E-1,-1.408699866E-1,-1.309851151E0,1.323712645E0
7.398252583E0,1.369008418E-1,-5.474146392E-2,-1.415908533E0,1.423564344E0
7.408250583E0,2.353215594E-2,-6.055175532E-2,-1.462537739E0,1.463979820E0
7.418248583E0,-1.821502693E-2,-1.017777868E-1,-1.468758591E0,1.472393393E0
7.428246583E0,-1.791078716E-1,-3.137972965E-1,-1.170024928E0,1.224543468E0
7.438243583E0,-2.687919537E-1,-2.351112972E-1,-1.065701830E0,1.123942538E0
7.448241833E0,-2.259275872E-1,-1.003607415E-1,-1.137038446E0,1.163603017E0
7.458239833E0,8.655096117E-2,-8.182522321E-2,-8.602716029E-1,8.684777871E-1
7.468237833E0,2.800071691E-1,5.236605540E-2,-9.984454018E-1,1.038286781E0
7.478235833E0,1.889079330E-1,6.461354194E-2,-7.882128561E-1,8.131055426E-1
7.488233833E0,5.446294002E-2,-7.802508121E-2,-8.931428951E-1,8.981972813E-1
7.498230833E0,-5.128443014E-2,-2.784056350E-1,-7.128252894E-1,7.669808886E-1
7.508228833E0,-1.991559093E-1,-6.471359877E-1,-4.386680585E-1,8.067699352E-1
7.518226833E0,-4.866133631E-1,-9.044157422E-1,-5.992051184E-1,1.189036237E0
7.528224833E0,-3.619772571E-1,-7.552454502E-1,-7.823422515E-1,1.146072695E0
7.538222833E0,1.027518416E-2,-4.115302536E-1,-4.038543212E-1,5.766810573E-1
7.548220833E0,1.115488314E-1,-1.655677850E-1,-6.978862381E-1,7.258794904E-1
7.558217833E0,2.920850864E-1,-3.119332407E-2,-6.942597950E-1,7.538457296E-1
7.568215834E0,2.859547924E-1,-1.692059956E-1,-6.057417208E-1,6.908862747E-1
7.578213834E0,2.014232403E-2,-3.280184558E-1,-5.275433975E-1,6.215334721E-1
7.588211833E0,-1.770038424E-1,-5.897237121E-1,-4.530013382E-2,6.173787484E-1
7.598209833E0,-3.678372635E-1,-9.739819671E-1,-2.132462007E-1,1.062741298E0
7.608207833E0,-3.668219676E-2,-1.193579413E0,3.450968206E-2,1.194641502E0
7.618205833E0,1.930421520E-1,-9.751977494E-1,2.564910382E-1,1.026675984E0
7.628202833E0,2.766509587E-1,-7.248014103E-1,5.460597754E-2,7.777240192E-1
7.638200833E0,4.203936823E-1,-4.918536743E-1,-1.171010184E-1,6.575435602E-1
7.648198833E0,3.453587759E-1,-5.810316067E-1,-9.799933434E-2,6.829892251E-1
7.658196833E0,2.578861290E-1,-4.721383249E-1,-1.392695671E-1,5.557120349E-1
7.668194833E0,1.349039994E-1,-5.920514155E-1,8.981557131E-2,6.138328800E-1
7.678192833E0,-1.700417638E-1,-9.132597289E-1,1.258361739E-1,9.374392122E-1
7.688189833E0,-1.716310918E-1,-8.871583430E-1,1.473673761E-1,9.155459031E-1
7.698187833E0,4.848860225E-2,-8.561260001E-1,5.148678035E-1,1.000195845E0
7.708185833E0,9.251143008E-2,-8.045251990E-1,1.311986554E-1,8.203854263E-1
7.718183833E0,2.115421393E-1,-9.660175478E-1,3.625390649E-2,9.895727993E-1
7.728181833E0,1.637659289E-1,-1.212708214E0,4.732572627E-1,1.312041512E0
7.738179833E0,1.999134526E-1,-6.805537753E-1,6.531024134E-1,9.641896038E-1
7.748176833E0,7.493393239E-2,-6.992392838E-1,8.079758602E-1,1.071156226E0
7.758174833E0,-1.370638512E-2,-4.237828016E-1,5.185737687E-1,6.698495962E-1
7.768172833E0,2.418678828E-2,-3.792495301E-1,7.739737165E-1,8.622357686E-1
7.778170833E0,-1.011328937E-1,1.756219809E-1,5.629254842E-1,5.982942780E-1
7.788168833E0,-5.388450421E-2,4.155366196E-1,4.253065860E-1,5.970426401E-1
7.798166833E0,1.072811314E-1,6.051606537E-1,1.890165085E-1,6.430053642E-1
7.808163833E0,2.606437673E-1,7.248356165E-1,2.623879552E-1,8.137378469E-1
7.818161833E0,1.405683434E-1,3.462398782E-1,3.452622968E-1,5.087706418E-1
7.828159833E0,1.234287656E-1,3.848603721E-1,6.416997582E-1,7.583737507E-1
7.838157833E0,-1.735106427E-2,3.482579350E-1,4.234471714E-1,5.485363759E-1
7.848155833E0,-3.753006130E-2,3.070730716E-1,1.535589927E-1,3.453733357E-1
7.858153833E0,-2.404967107E-2,2.090785429E-1,2.846447968E-1,3.539984239E-1
7.868151833E0,-8.068803113E-2,3.157606088E-2,3.228978664E-1,3.343211601E-1
7.878148833E0,1.247360203E-1,6.384759780E-2,8.713631862E-1,8.825584359E-1
7.888146833E0,2.159589798E-1,3.277534308E-2,9.267158532E-1,9.521106956E-1
7.898144834E0,2.558842069E-1,5.728288768E-2,1.000364458E0,1.034160097E0
7.908142834E0,2.007051656E-1,1.013738630E-1,7.828948134E-1,8.145449727E-1
7.918140833E0,1.540572486E-1,-4.382040454E-3,6.732291144E-1,6.906448281E-1
7.928138833E0,6.494809404E-2,1.610424261E-3,7.031849849E-1,7.061798435E-1
7.938135833E0,-9.882843297E-2,8.934092358E-2,4.760709429E-1,4.943605996E-1
7.948133833E0,-6.370179657E-2,1.323269213E-1,7.603473651E-1,7.744007029E-1
7.958131833E0,-5.005724575E-2,7.873639500E-2,8.161069983E-1,8.214230216E-1
7.968129833E0,-1.143759236E-2,5.931508748E-2,9.126363426E-1,9.146333648E-1
7.978127833E0,-5.140890274E-2,1.291071063E-1,7.914913899E-1,8.035982457E-1
7.988125833E0,-1.658276937E-1,1.201909978E-1,5.920680070E-1,6.264896048E-1
7.998122833E0,-2.543690471E-1,-3.060677981E-2,3.858636081E-1,4.631750330E-1
8.008120833E0,-8.620571963E-2,-1.566572313E-1,8.559534341E-1,8.744307838E-1
8.018118833E0,-8.009797398E-2,-1.357697527E-1,1.109635470E0,1.120776511E0
8.028116833E0,-1.426746566E-1,-6.067673498E-2,1.065481390E0,1.076702520E0
8.038114833E0,-1.581490570E-1,4.220625325E-2,7.901611483E-1,8.069368825E-1
8.048112833E0,-2.712032541E-1,2.357641205E-2,5.742451090E-1,6.355033418E-1
8.058109833E0,-2.108095197E-1,1.139121937E-1,6.878255188E-1,7.283684410E-1
8.068107833E0,-1.963407308E-2,1.219200012E-1,1.041636445E0,1.048931107E0
8.078105833E0,1.460763840E-1,5.684014382E-2,1.051294291E0,1.062915236E0
8.088103833E0,3.458996068E-1,5.370827462E-2,9.089818329E-1,9.740529191E-1
8.098101833E0,3.852611987E-1,-2.828993482E-2,8.729080206E-1,9.545653064E-1
8.108099833E0,3.653347649E-1,-1.000102283E-3,9.541878265E-1,1.021736218E0
8.118097833E0,7.365673603E-2,2.245722209E-1,1.310737004E0,1.331874427E0
8.128094833E0,6.077336479E-2,1.788648650E-1,1.429576984E0,1.442004298E0
8.138092833E0,5.398748830E-2,3.077282155E-1,1.243251364E0,1.281906884E0
8.148090833E0,1.749997276E-1,2.918678806E-1,1.140622789E0,1.190307570E0
8.158088833E0,1.991956704E-1,2.369758829E-1,1.078645227E0,1.122190719E0
8.168086833E0,7.911330286E-2,3.767087688E-1,1.078949867E0,1.145557169E0
8.178084833E0,8.197244514E-2,2.571743584E-1,1.145858971E0,1.177221693E0
8.188081833E0,9.469192989E-2,2.131081516E-1,1.462184567E0,1.480663822E0
8.198079833E0,3.037730858E-2,1.728361116E-1,1.521346695E0,1.531434252E0
8.208077833E0,-1.619653154E-1,1.655751671E-1,1.409045071E0,1.427955150E0
8.218075833E0,-7.208096623E-2,5.332015654E-2,1.269328777E0,1.272491355E0
8.228073834E0,1.458924159E-2,3.909642074E-2,1.401205124E0,1.401826372E0
8.238071834E0,3.966873525E-2,-2.277647641E-2,1.759816030E0,1.760410417E0
8.248068833E0,2.626784887E-2,1.687113029E-1,1.700096077E0,1.708648640E0
8.258066833E0,4.029164644E-2,3.186315916E-1,1.520616962E0,1.554163908E0
8.268064833E0,-4.699153231E-2,3.118578116E-1,1.391964185E0,1.427244825E0
8.278062833E0,-7.552673042E-2,3.568299166E-1,1.394334061E0,1.441249233E0
8.288060833E0,-1.201480573E-1,3.047261637E-1,1.385102477E0,1.423306876E0
8.298058833E0,-1.209283500E-1,3.242917695E-1,1.462052420E0,1.502460015E0
8.308055833E0,-3.515357014E-2,4.423994226E-1,1.213094350E0,1.291724012E0
8.318053833E0,1.076591630E-1,3.692043060E-1,1.036248236E0,1.105311142E0
8.328051833E0,1.547701156E-1,3.499095907E-1,1.045939411E0,1.113723378E0
8.338049833E0,1.139826252E-1,2.233221044E-1,7.715728498E-1,8.112887671E-1
8.348047833E0,5.394871395E-2,7.515300198E-2,8.348157495E-1,8.399260522E-1
8.358045833E0,1.282522799E-2,-7.901644008E-2,8.773022032E-1,8.809467861E-1
8.368043833E0,-2.974320545E-2,-1.154810291E-1,1.011412187E0,1.018417959E0
8.378040833E0,-9.961564179E-2,-1.101155509E-1,9.741168916E-1,9.853691842E-1
8.388038833E0,-1.414273450E-1,-1.616152134E-1,8.068713212E-1,8.349625741E-1
8.398036833E0,-1.687812685E-1,-2.565745438E-1,7.047444373E-1,7.687537545E-1
8.408034833E0,-1.892392508E-1,-3.328443822E-1,7.366199487E-1,8.301842119E-1
8.418032833E0,-2.036171156E-1,-3.379165860E-1,9.369332778E-1,1.016607848E0
8.428030833E0,-1.908120788E-1,-2.954272087E-1,9.678299654E-1,1.029748186E0
8.438027833E0,-1.849627800E-1,-2.563390106E-1,8.578923708E-1,9.142757999E-1
8.448025542E0,-1.992052635E-1,-2.163967353E-1,7.780527341E-1,8.317910442E-1
8.458023542E0,-2.213141523E-1,-1.548746528E-1,8.378715044E-1,8.803378726E-1
8.468021542E0,-1.958806828E-1,-1.784839372E-1,1.037343419E0,1.070657334E0
8.478019542E0,-1.576778445E-1,-1.667660622E-1,1.223647989E0,1.244984989E0
8.488017542E0,-1.071110688E-1,-1.827566621E-1,1.105652931E0,1.125762490E0
8.498014542E0,-7.538139970E-2,-2.236380185E-1,9.313983035E-1,9.608325133E-1
8.508012542E0,-6.418400000E-2,-1.646830099E-1,8.911384696E-1,9.084975793E-1
8.518010542E0,-5.825247481E-2,-1.344805513E-1,9.434020525E-1,9.547176558E-1
8.528008542E0,-1.154334473E-1,-1.067603546E-1,1.152997836E0,1.163669483E0
8.538006542E0,-1.971321149E-1,-4.660153673E-2,1.303163690E0,1.318813246E0
8.548004542E0,-2.395911963E-1,7.927729899E-2,1.248688105E0,1.273935169E0
8.558002542E0,-2.417568953E-1,1.194812189E-1,1.099887577E0,1.132464057E0
8.567999542E0,-2.658190282E-1,1.663388500E-1,1.051063911E0,1.096842611E0
8.577997542E0,-2.967676463E-1,1.232034285E-1,1.100429614E0,1.146383642E0
8.587995542E0,-3.016939986E-1,6.226617265E-2,1.230926018E0,1.268887390E0
8.597993542E0,-3.001301791E-1,7.711651526E-2,1.493594640E0,1.525401596E0
8.607991542E0,-2.878392587E-1,5.394708769E-2,1.625431226E0,1.651601768E0
8.617989542E0,-2.267937243E-1,2.411818947E-1,1.729568968E0,1.760969311E0
8.627986542E0,-2.347340056E-1,2.640309862E-1,2.284124748E0,2.311284984E0
8.637984542E0,-2.491662494E-1,2.119526687E-1,2.234993518E0,2.258805830E0
8.647982542E0,-2.229128176E-1,3.558481326E-1,2.359509975E0,2.396582012E0
8.657980542E0,-2.703161766E-1,8.837797852E-2,2.387038667E0,2.403920776E0
8.667978542E0,-2.820213522E-1,4.261686483E-2,2.467709777E0,2.484138439E0
8.677976542E0,-3.399872312E-1,1.265234684E-1,2.702854385E0,2.727090269E0
8.687973542E0,-2.772598366E-1,6.260523807E-2,2.974379200E0,2.987929728E0
8.697971542E0,-2.420948461E-1,5.078850859E-2,3.080360568E0,3.090276786E0
8.707969542E0,-1.910719327E-1,7.107350925E-2,3.354901376E0,3.361089581E0
8.717967542E0,-1.829064422E-1,7.300420047E-2,3.193707089E0,3.199773328E0
8.727965542E0,-2.107790229E-1,1.938816294E-1,2.999140989E0,3.012783522E0
8.737963542E0,-2.172256877E-1,2.668392212E-1,2.898732601E0,2.919082195E0
8.747961542E0,-2.174959205E-1,2.123535318E-1,2.992622513E0,3.008020612E0
8.757958542E0,-1.635306881E-1,2.337325603E-1,3.376023273E0,3.388053473E0
8.767956542E0,-1.268957259E-1,2.100679832E-1,3.719322075E0,3.727410332E0
8.777954542E0,-1.787735936E-1,1.464300674E-1,3.855160496E0,3.862080296E0
8.787952542E0,-3.459166642E-2,1.730152008E-1,3.902836354E0,3.906822551E0
8.797950542E0,-9.413889293E-2,1.945880462E-1,3.918039114E0,3.923997597E0
8.807948542E0,7.254133397E-3,1.591584692E-1,3.742544877E0,3.745934623E0
8.817945542E0,-5.729007793E-2,1.714962038E-1,3.705677013E0,3.710085609E0
8.827943542E0,5.258738622E-2,2.772751490E-1,3.958024714E0,3.968073409E0
8.837941542E0,8.410382833E-2,2.901252459E-1,4.198709559E0,4.209561506E0
8.847939542E0,1.471390332E-1,3.250956886E-1,4.604660107E0,4.618466391E0
8.857937542E0,2.222827801E-1,3.341255437E-1,4.734590501E0,4.751567818E0
8.867935542E0,3.375176597E-1,-3.946229564E-1,4.580234533E0,4.609576317E0
8.877933542E0,-2.095239363E-1,5.198714852E-1,4.281049465E0,4.317586266E0
8.887930542E0,7.517608477E-2,4.397431057E-1,4.471190978E0,4.493392282E0
8.897928542E0,-3.080088453E-1,7.087566505E-1,4.857484356E0,4.918572934E0
8.907926542E0,-1.543796312E-1,7.627746905E-1,5.224363809E0,5.282010556E0
8.917924542E0,-1.904211741E-1,6.094264899E-1,4.788404766E0,4.830784726E0
8.927922542E0,-1.600037938E-1,5.825812650E-1,4.744316760E0,4.782629367E0
8.937920542E0,-2.412569584E-1,5.317019373E-1,4.675568706E0,4.711884400E0
8.947917542E0,-3.423938355E-1,3.894725096E-1,4.816388370E0,4.844225357E0
8.957915542E0,-2.553023724E-1,2.194184302E-1,5.257246796E0,5.268013632E0
8.967913542E0,-1.750761251E-1,2.494991205E-1,5.192698213E0,5.201635915E0
8.977911542E0,-2.711406523E-1,1.440085892E-1,4.833258172E0,4.842999100E0
8.987909542E0,-3.599414393E-1,1.222689338E-1,4.492838539E0,4.508891845E0
8.997907542E0,-5.469655091E-1,2.070440590E-1,3.930563266E0,3.973835187E0
9.007904542E0,-4.976245107E-1,3.035357619E-1,4.017597317E0,4.059661600E0
9.017902542E0,-3.697811704E-1,4.214330249E-1,4.142310825E0,4.180081683E0
9.027900542E0,-2.003261382E-1,4.299955048E-1,3.891038427E0,3.919847795E0
9.037898542E0,-1.977758568E-2,4.401269023E-1,3.511258262E0,3.538790390E0
9.047896542E0,4.109470669E-2,2.976492237E-1,3.188208368E0,3.202336090E0
9.057894542E0,5.915745020E-2,8.641731575E-2,2.899112086E0,2.901003006E0
9.067892542E0,4.053010320E-2,-3.949859954E-2,2.629410433E0,2.630019402E0
9.077889542E0,-8.731749460E-2,-1.062539218E-1,2.435414436E0,2.439294512E0
9.087887542E0,-2.092234625E-1,-1.406470615E-1,2.114882938E0,2.129855839E0
9.097885542E0,-1.676606496E-1,-9.551039390E-2,1.942466674E0,1.952026924E0
9.107883542E0,-7.334805787E-2,-2.049185961E-2,1.811850986E0,1.813450813E0
9.117881542E0,-4.355817519E-2,5.114903055E-2,1.599673657E0,1.601083804E0
9.127879542E0,7.082871191E-2,1.914528240E-1,1.128879241E0,1.147187531E0
9.137876542E0,1.525899264E-1,1.639250828E-1,5.728493786E-1,6.150703447E-1
9.147874542E0,1.708527543E-1,-1.221856110E-2,1.854274875E-1,2.524347639E-1
9.157872542E0,7.726196475E-2,-2.611547774E-1,2.754985821E-1,3.873895942E-1
9.167870542E0,6.839049608E-3,-3.504314547E-1,2.845243442E-1,4.514455443E-1
9.177868542E0,-7.709305331E-2,-2.600003909E-1,9.921497047E-2,2.887683370E-1
9.187866542E0,-1.439269475E-1,-2.177503109E-1,-1.980539650E-1,3.276515484E-1
9.197863542E0,-1.485587463E-2,-2.992042907E-1,-2.546310389E-1,3.931677385E-1
9.207861542E0,1.724390125E-1,-3.054955293E-1,-5.458399200E-1,6.488481716E-1
9.217859542E0,3.261032734E-1,-2.014566059E-1,-8.864343846E-1,9.657608540E-1
9.227857542E0,3.498958132E-1,-2.810433505E-1,-1.167164471E0,1.250474049E0
9.237855542E0,5.008934697E-1,-2.770836892E-1,-1.325342764E0,1.443676931E0
9.247853542E0,5.764186652E-1,-3.027908997E-1,-1.626364442E0,1.751856759E0
9.257851542E0,5.665898611E-1,-2.231154236E-1,-1.724075509E0,1.828453150E0
9.267848542E0,6.175609171E-1,-1.917242078E-1,-2.131472073E0,2.227400471E0
9.277846542E0,6.153837794E-1,-6.368948087E-2,-2.568495310E0,2.641954145E0
9.287844542E0,6.899406029E-1,-3.184919894E-2,-2.502108947E0,2.595685187E0
9.297842542E0,7.456832061E-1,-1.037229545E-1,-2.595389578E0,2.702378389E0
9.307840542E0,7.258791252E-1,-2.229346716E-1,-2.653644218E0,2.760149998E0
9.317838542E0,6.935245807E-1,-3.572750359E-1,-2.623145726E0,2.736697882E0
9.327835542E0,6.369760119E-1,-3.562031682E-1,-2.837512254E0,2.929862612E0
9.337833542E0,5.623740187E-1,-2.053442004E-1,-3.038572857E0,3.096991408E0
9.347831542E0,4.588744278E-1,-1.816082324E-1,-3.103528406E0,3.142520622E0
9.357829542E0,3.315756826E-1,6.174842454E-2,-3.061710289E0,3.080231354E0
9.367827542E0,2.305167196E-1,1.031008838E-1,-3.155724746E0,3.165812127E0
9.377825542E0,1.264309088E-1,1.784019848E-1,-3.323200697E0,3.330386601E0
9.387822542E0,2.239145187E-1,1.269661483E-1,-3.338302301E0,3.348211517E0
9.397820542E0,2.952419981E-1,1.751854315E-1,-3.278975281E0,3.296898037E0
9.407818542E0,4.233542738E-1,9.709564716E-2,-3.158602161E0,3.188326209E0
9.417816542E0,3.584781005E-1,-4.281009704E-2,-3.245918632E0,3.265934326E0
9.427814542E0,2.575276216E-1,5.642796993E-2,-3.370166118E0,3.380462136E0
9.437812542E0,2.121361433E-1,4.363557771E-2,-3.290937515E0,3.298056327E0
9.447810208E0,8.460738324E-2,7.283752285E-2,-3.327677325E0,3.329549533E0
9.457807208E0,-3.057874516E-3,6.437492073E-3,-3.297511539E0,3.297519241E0
9.467805208E0,-9.318415225E-2,8.382202908E-3,-3.191189278E0,3.192560502E0
9.477803208E0,-2.189424120E-1,9.464939140E-2,-2.998581410E0,3.008053317E0
9.487801208E0,-2.588054027E-1,-1.058123839E-1,-2.974627122E0,2.987738779E0
9.497799208E0,-2.424818769E-1,-2.191244066E-1,-3.124314088E0,3.141361407E0
9.507797208E0,1.003565571E-1,-3.351521686E-1,-2.948581869E0,2.969264800E0
9.517794208E0,1.818480048E-1,-4.462128671E-1,-3.132927037E0,3.169764414E0
9.527792208E0,7.802636029E-2,-6.077609836E-1,-2.988213712E0,3.050390584E0
9.537790208E0,-4.338877039E-2,-5.517486046E-1,-3.116643711E0,3.165403154E0
9.547788208E0,2.473483684E-2,-6.653212669E-1,-2.916568948E0,2.991594663E0
9.557786208E0,1.614082950E-1,-7.227636556E-1,-2.617013751E0,2.719779571E0
9.567784208E0,2.127017884E-1,-7.249695177E-1,-3.081856286E0,3.173115349E0
9.577782208E0,1.940772005E-1,-6.818167739E-1,-3.192376848E0,3.270139143E0
9.587779208E0,1.715452839E-1,-7.676783849E-1,-3.243511333E0,3.337532570E0
9.597777208E0,8.995858141E-2,-7.328275909E-1,-3.030839329E0,3.119473652E0
9.607775208E0,-4.589559051E-2,-5.335624482E-1,-2.949007546E0,2.997238863E0
9.617773208E0,-1.942781803E-1,-3.705386041E-1,-3.229202612E0,3.256192927E0
9.627771208E0,-3.445762357E-1,-3.821171509E-1,-3.604728928E0,3.641265843E0
9.637769208E0,-3.106730926E-1,-2.911621400E-1,-3.172410361E0,3.200856238E0
9.647766209E0,-3.036102408E-1,-8.438244816E-3,-2.905923507E0,2.921753209E0
9.657764209E0,-2.082124424E-1,-3.381261173E-2,-3.069193556E0,3.076433779E0
9.667762208E0,-1.352502002E-1,5.003298438E-2,-3.259452597E0,3.262641131E0
9.677760208E0,-1.731109855E-1,1.407460074E-1,-3.211963266E0,3.219702607E0
9.687758208E0,-3.145162482E-1,2.336881762E-1,-3.149093419E0,3.173376749E0
9.697756208E0,-3.154546167E-1,2.747923116E-1,-3.239244035E0,3.266148244E0
9.707754208E0,-3.893307877E-1,5.086764792E-1,-2.867777442E0,2.938448175E0
9.717751208E0,-1.095707822E-1,5.004061043E-1,-2.510218450E0,2.561954077E0
9.727749208E0,-1.094721196E-2,2.294307454E-1,-2.669589576E0,2.679452707E0
9.737747208E0,6.252297962E-2,2.413582979E-1,-2.417385131E0,2.430208597E0
9.747745208E0,6.237006580E-2,2.700377212E-1,-2.391946235E0,2.407948751E0
9.757743208E0,-1.979372947E-2,2.436888884E-1,-2.204721898E0,2.218236848E0
9.767741208E0,-6.275688652E-2,4.918649667E-1,-2.361616727E0,2.413110677E0
9.777738208E0,-5.061506099E-2,5.855159460E-1,-2.377581380E0,2.449139446E0
9.787736208E0,2.237465392E-2,5.422031712E-1,-2.064927835E0,2.135043763E0
9.797734208E0,3.737858187E-2,3.433009579E-1,-1.881907062E0,1.913328747E0
9.807732208E0,-7.661548197E-2,5.008333530E-1,-1.776885222E0,1.847708059E0
9.817730208E0,-1.528681259E-1,4.902199257E-1,-1.528977311E0,1.612902929E0
9.827728208E0,-1.799971235E-1,4.471538668E-1,-1.551758648E0,1.624900135E0
9.837725208E0,-1.419296483E-1,4.565921134E-1,-1.211371760E0,1.302321743E0
9.847723208E0,-4.109303475E-2,5.342648450E-1,-1.117836775E0,1.239631646E0
9.857721208E0,-3.755289285E-2,4.935653736E-1,-8.230692780E-1,9.604478300E-1
9.867719208E0,-5.426907741E-2,2.701792239E-1,-5.931351238E-1,6.540269268E-1
9.877717208E0,-1.150685994E-1,2.389485873E-1,-6.453799957E-1,6.977481987E-1
9.887715208E0,-1.846790987E-1,2.755399877E-1,-6.559944463E-1,7.350900407E-1
9.897713208E0,-2.265994140E-1,3.119295862E-2,-5.368240982E-1,5.835241276E-1
9.907710208E0,-3.139618956E-1,-1.525302848E-1,-2.619394737E-1,4.364055998E-1
9.917708208E0,-1.435160892E-1,-1.484192536E-1,-1.081688118E-1,2.330786017E-1
9.927706208E0,-6.737335464E-2,-2.882856022E-1,-9.524295688E-2,3.109967495E-1
9.937704208E0,2.909151499E-2,-4.446953684E-1,5.632213533E-2,4.491909058E-1
9.947702208E0,1.368322649E-1,-4.862532842E-1,-3.758999527E-2,5.065356186E-1
9.957700208E0,8.065548772E-2,-3.913712102E-1,-9.605571985E-2,4.109786286E-1
9.967697208E0,2.944553101E-1,-3.998805900E-1,-8.717964649E-2,5.041911410E-1
9.977695209E0,3.799218138E-1,-6.588350236E-1,-5.111168146E-2,7.622444338E-1
9.987693209E0,4.548775270E-1,-6.627864989E-1,-5.950419009E-2,8.060646726E-1
9.997691208E0,3.876513212E-1,-6.202831614E-1,-1.770753247E-1,7.525824990E-1
1.000768921E1,3.415117100E-1,-5.425052530E-1,-3.839281797E-3,6.410592310E-1
1.001768721E1,3.674463041E-1,-3.575525959E-1,3.575981677E-2,5.139449481E-1
1.002768521E1,3.631090953E-1,-1.668269829E-1,5.922995567E-2,4.039649056E-1
1.003768221E1,3.488092909E-1,-1.053927000E-1,-1.030735481E-1,3.786815271E-1
1.004768021E1,3.547109222E-1,-1.486563217E-2,-1.714193130E-1,3.942402899E-1
1.005767821E1,3.448806198E-1,4.562092669E-2,-2.078012735E-1,4.052225069E-1
1.006767621E1,3.265717451E-1,-1.827689778E-2,-6.849194527E-2,3.341770432E-1
1.007767421E1,2.537880531E-1,7.099623464E-2,1.868974775E-1,3.230781768E-1
1.008767221E1,1.619223018E-1,1.650347382E-1,-7.166581392E-2,2.420563685E-1
1.009766921E1,9.977580068E-2,1.569088991E-1,-2.605718100E-1,3.201144814E-1
1.010766721E1,3.437763548E-2,1.331708847E-1,-2.114101750E-1,2.522113566E-1
1.011766521E1,-1.767833476E-2,7.844982661E-2,-1.955285525E-1,2.114197570E-1
1.012766321E1,-8.049037697E-2,4.205785275E-2,-1.474141538E-2,9.200474493E-2
1.013766121E1,-1.574360256E-1,-6.025109880E-2,7.787497222E-2,1.856900869E-1
1.014765921E1,-1.981458759E-1,-2.021866674E-1,5.523689210E-2,2.884308424E-1
1.015765721E1,-2.264770610E-1,-3.561370946E-1,8.373446703E-2,4.302754354E-1
1.016765421E1,-1.932644193E-1,-6.035661546E-1,1.954770970E-1,6.632153000E-1
1.017765221E1,-1.440668330E-1,-8.081267915E-1,4.291330040E-1,9.262717196E-1
1.018765021E1,-1.010139851E-1,-7.993168648E-1,4.630088478E-1,9.292408023E-1
1.019764821E1,-5.785298207E-2,-7.140422411E-1,4.372261351E-1,8.392675276E-1
1.020764621E1,-2.011480557E-2,-6.246904271E-1,2.463759398E-1,6.718212849E-1
1.021764421E1,2.793279785E-2,-3.884124094E-1,1.894521260E-1,4.330549030E-1
1.022764121E1,5.047388499E-3,-1.601882735E-1,1.511493552E-1,2.202995385E-1
1.023763921E1,-5.673995543E-2,1.112503675E-1,4.079777777E-2,1.313793191E-1
1.024763721E1,-1.300814900E-1,2.975131298E-1,-1.786564118E-1,3.706121556E-1
1.025763521E1,-1.806787444E-1,4.640945296E-1,-3.386099195E-1,6.022335251E-1
1.026763321E1,-1.845954470E-1,5.447401319E-1,-3.883855122E-1,6.940177205E-1
1.027763121E1,-1.227155332E-1,5.344723481E-1,-4.433855921E-1,7.052025073E-1
1.028762921E1,3.905647695E-3,5.094579595E-1,-2.727995074E-1,5.779119637E-1
1.029762621E1,3.004754389E-2,5.008069309E-1,-3.147298908E-1,5.922544564E-1
1.030762421E1,-2.565356232E-3,3.937167842E-1,-4.476213151E-1,5.961411988E-1
1.031762221E1,-2.340877969E-3,2.636807015E-1,-4.610728347E-1,5.311507799E-1
1.032762021E1,-1.388896443E-2,1.262544691E-1,-4.150593406E-1,4.340591555E-1
1.033761821E1,-2.665243121E-2,-1.163647078E-2,-3.517035896E-1,3.529039167E-1
1.034761621E1,-5.151667424E-2,-1.265317002E-1,-3.165969068E-1,3.448156613E-1
1.035761321E1,-6.010909368E-2,-2.321584350E-1,-4.192827845E-1,4.830203882E-1
1.036761121E1,-6.345160426E-2,-2.775817989E-1,-5.404306608E-1,6.108543692E-1
1.037760921E1,-6.755838247E-2,-3.122856816E-1,-5.268978649E-1,6.162043833E-1
1.038760721E1,-6.683670358E-2,-3.101825843E-1,-4.807756126E-1,5.760430281E-1
1.039760521E1,-5.377668704E-2,-3.136667939E-1,-4.780934948E-1,5.743275889E-1
1.040760321E1,-3.675564327E-2,-3.044974096E-1,-5.095871830E-1,5.947678092E-1
1.041760021E1,-3.425726050E-2,-2.663488591E-1,-5.273545325E-1,5.917922588E-1
1.042759821E1,-2.822213909E-2,-1.753773663E-1,-5.381484926E-1,5.667076052E-1
1.043759621E1,-3.478268308E-2,-8.404736616E-2,-5.536699265E-1,5.610919553E-1
1.044759458E1,-6.728984909E-3,1.408148400E-2,-6.368073928E-1,6.369986052E-1
1.045759258E1,2.278300427E-2,4.742186911E-2,-6.459612089E-1,6.481001330E-1
1.046759058E1,4.589894352E-2,8.801674850E-2,-6.004763031E-1,6.086258716E-1
1.047758858E1,6.454581474E-2,1.012644196E-1,-5.015332282E-1,5.157094374E-1
1.048758558E1,9.253014117E-2,1.178148904E-1,-4.491410065E-1,4.734657528E-1
1.049758358E1,9.968207164E-2,1.045412723E-1,-4.748974067E-1,4.963798343E-1
1.050758158E1,9.365220359E-2,6.374809921E-2,-4.671141779E-1,4.806560211E-1
1.051757958E1,4.696304084E-2,5.280196533E-2,-3.721916485E-1,3.788405970E-1
1.052757758E1,2.314744569E-2,7.412412956E-2,-1.955180275E-1,2.103746418E-1
1.053757558E1,-8.162347600E-4,1.311310469E-1,-8.320704818E-2,1.553043160E-1
1.054757358E1,-2.405908143E-2,1.537964628E-1,-1.273242903E-1,2.011061070E-1
1.055757058E1,-3.818144113E-2,1.551044849E-1,-1.208888447E-1,2.003230802E-1
1.056756858E1,-3.991252759E-2,1.236791360E-1,-5.159056842E-2,1.398253385E-1
1.057756658E1,-6.019240737E-2,9.174814917E-2,9.883840978E-2,1.476816848E-1
1.058756458E1,-1.219208052E-1,1.090269638E-1,2.383307558E-1,2.890555496E-1
1.059756258E1,-1.724746623E-1,9.958758429E-2,2.303697717E-1,3.045249215E-1
1.060756058E1,-1.954337911E-1,1.538789816E-1,1.872249216E-1,3.113298555E-1
1.061755758E1,-1.477752925E-1,1.386700083E-1,1.328142411E-1,2.422943063E-1
1.062755558E1,-8.902521048E-2,1.230396699E-1,2.288056415E-1,2.746202288E-1
1.063755358E1,-3.867160225E-2,1.479000574E-1,3.709836137E-1,4.012465096E-1
1.064755158E1,-3.052135336E-2,1.562050771E-1,3.442460507E-1,3.792583850E-1
1.065754958E1,-4.605791470E-2,1.768597817E-1,3.105263275E-1,3.603155755E-1
1.066754758E1,-8.080875786E-2,2.334046959E-1,3.397203058E-1,4.200210633E-1
1.067754558E1,-1.171485636E-1,2.064462543E-1,4.474587625E-1,5.065206669E-1
1.068754258E1,-9.773229931E-2,1.827803799E-1,4.007611442E-1,4.511870613E-1
1.069754058E1,-4.007835098E-2,2.491762445E-1,2.738905978E-1,3.724394375E-1
1.070753858E1,5.488112558E-2,1.678043450E-1,2.300300485E-1,2.899725148E-1
1.071753658E1,1.649245547E-1,1.147827436E-1,2.348990250E-1,3.091160606E-1
1.072753458E1,1.807403594E-1,6.879219979E-2,2.274742305E-1,2.985698743E-1
1.073753258E1,1.739127484E-1,3.622320861E-2,1.481807238E-1,2.313337239E-1
1.074752958E1,1.016681333E-1,-1.724124625E-3,8.820407867E-2,1.346081031E-1
1.075752758E1,9.349498658E-2,-4.344203487E-2,-4.133455217E-2,1.110723553E-1
1.076752558E1,9.137992077E-2,-4.539463945E-2,-8.444841206E-2,1.324480936E-1
1.077752358E1,1.687172050E-2,-9.550717793E-2,-3.081739926E-1,3.230750466E-1
1.078752158E1,-4.162813721E-2,-1.674103888E-1,-3.717969614E-1,4.098684187E-1
1.079751958E1,2.318999332E-2,-2.901812330E-1,-4.505496007E-1,5.364120305E-1
1.080751758E1,1.068953705E-1,-4.102061516E-1,-4.833267528E-1,6.428844818E-1
1.081751458E1,1.487466429E-1,-4.313616702E-1,-4.380792439E-1,6.325439734E-1
1.082751258E1,1.698089898E-1,-3.562360588E-1,-5.070319498E-1,6.425111833E-1
1.083751058E1,2.454603024E-1,-2.119985510E-1,-5.435308546E-1,6.329454444E-1
1.084750858E1,2.998652271E-1,-1.754800580E-1,-4.095284593E-1,5.370530367E-1
1.085750658E1,2.819647804E-1,-8.435397953E-2,-4.920332569E-1,5.733379955E-1
1.086750458E1,1.972767604E-1,-1.385449509E-1,-2.903008085E-1,3.773425275E-1
1.087750158E1,1.384517061E-1,-1.188198806E-1,-1.776729101E-1,2.546658633E-1
1.088749958E1,1.097069036E-1,-7.695403576E-2,-2.035877699E-1,2.437324524E-1
1.089749758E1,1.065121129E-1,1.593278557E-2,-1.595810401E-1,1.925221863E-1
1.090749558E1,1.079179845E-1,1.092847529E-1,-1.045219034E-1,1.857801843E-1
1.091749358E1,1.298081509E-1,1.644989870E-1,5.878790617E-3,2.096297521E-1
1.092749158E1,1.694507930E-1,2.082031234E-1,1.795264775E-1,3.229425149E-1
1.093748958E1,1.682013344E-1,2.482709493E-1,3.214822555E-1,4.396373434E-1
1.094748658E1,1.753520771E-1,1.891467552E-1,3.997162467E-1,4.757078135E-1
1.095748458E1,1.805924066E-1,2.646915389E-1,4.059417772E-1,5.171691740E-1
1.096748258E1,1.633161501E-1,3.191066779E-1,3.922107607E-1,5.313478311E-1
1.097748058E1,1.231966311E-1,3.615266926E-1,5.032558179E-1,6.317795324E-1
1.098747858E1,1.221741175E-1,2.424368168E-1,7.400815004E-1,7.883037184E-1
1.099747658E1,1.146269153E-1,2.054511313E-1,6.496367687E-1,6.909250526E-1
1.100747358E1,9.958064072E-2,1.886773700E-1,7.387343019E-1,7.689238082E-1
1.101747158E1,6.930487270E-2,1.636447088E-1,7.131919098E-1,7.350003104E-1
1.102746958E1,1.435085792E-2,1.489937791E-1,7.513081545E-1,7.660737799E-1
1.103746758E1,-9.848191235E-3,1.558329749E-1,6.758650392E-1,6.936673945E-1
1.104746558E1,-1.324810959E-2,1.452972425E-1,7.263463908E-1,7.408548310E-1
1.105746358E1,2.597662099E-3,1.903574212E-1,7.143040502E-1,7.392381022E-1
1.106746158E1,3.175345078E-2,2.303688946E-1,5.973497969E-1,6.410186340E-1
1.107745858E1,6.506935067E-2,2.470417184E-1,5.275784808E-1,5.861763254E-1
1.108745658E1,8.898148427E-2,1.889692191E-1,4.555010229E-1,5.011070267E-1
1.109745458E1,1.008682159E-1,1.378815843E-1,5.085282522E-1,5.364575581E-1
1.110745258E1,1.081698351E-1,9.637578182E-2,5.042404890E-1,5.246403295E-1
1.111745058E1,9.495925728E-2,7.269309662E-2,4.402432984E-1,4.561970064E-1
1.112744858E1,7.438391039E-2,6.368546091E-2,3.650574607E-1,3.779626352E-1
1.113744558E1,7.718229644E-2,2.693819560E-2,3.028056639E-1,3.136463668E-1
1.114744358E1,9.236950720E-2,2.238131426E-2,2.793910736E-1,2.951142509E-1
1.115744158E1,1.344428733E-1,2.752324607E-2,2.687766230E-1,3.017835124E-1
1.116743958E1,1.888754809E-1,3.484794348E-2,2.202143276E-1,2.922031426E-1
1.117743758E1,2.305723412E-1,4.715264138E-2,1.239650649E-1,2.659968297E-1
1.118743558E1,2.372435574E-1,8.245341517E-2,2.147331476E-2,2.520796986E-1
1.119743358E1,2.137771279E-1,1.249585434E-1,-7.499404907E-2,2.587265069E-1
1.120743058E1,1.804311514E-1,1.531331693E-1,-8.579093277E-2,2.517245559E-1
1.121742858E1,1.490440560E-1,1.296828013E-1,-9.098559916E-2,2.175089397E-1
1.122742658E1,1.266267083E-1,4.390776560E-2,-9.145688474E-2,1.622546668E-1
1.123742458E1,8.679320949E-2,-1.285729632E-2,-8.450103700E-2,1.218145990E-1
1.124742258E1,3.171501447E-2,-9.546906140E-2,-9.167381644E-2,1.361039031E-1
1.125742058E1,1.219114314E-2,-9.506341081E-2,-1.009936935E-1,1.392314697E-1
1.126741758E1,4.794872152E-3,-4.783588853E-2,-1.495975041E-1,1.571326709E-1
1.127741558E1,-5.115662280E-2,-1.013501544E-2,-2.189384651E-1,2.250639245E-1
1.128741358E1,-1.000555534E-1,-9.196427688E-3,-2.582685918E-1,2.771251586E-1
1.129741158E1,-1.736571703E-1,-6.290982775E-3,-3.300221139E-1,3.729758503E-1
1.130740958E1,-2.308697087E-1,-2.177313074E-2,-4.032228220E-1,4.651489393E-1
1.131740758E1,-2.943714574E-1,-7.119482070E-2,-5.263955891E-1,6.073018802E-1
1.132740558E1,-3.085533673E-1,-1.094064115E-1,-6.456197315E-1,7.238782916E-1
1.133740258E1,-2.764823031E-1,-1.179226253E-1,-6.490830374E-1,7.153020333E-1
1.134740058E1,-2.624781850E-1,-1.203917583E-1,-7.353908640E-1,7.900561347E-1
1.135739858E1,-2.398098456E-1,-1.256413154E-1,-7.643345815E-1,8.108648806E-1
1.136739658E1,-2.653552527E-1,-1.642052376E-1,-7.105986696E-1,7.760974420E-1
1.137739458E1,-2.808896419E-1,-2.086021593E-1,-7.174276328E-1,7.981956277E-1
1.138739258E1,-3.025941409E-1,-2.360978869E-1,-6.784015614E-1,7.794447413E-1
1.139739058E1,-2.902041102E-1,-2.171760047E-1,-7.313954616E-1,8.162862021E-1
1.140738758E1,-2.696468532E-1,-2.315963714E-1,-7.708934033E-1,8.488951313E-1
1.141738558E1,-2.211608822E-1,-2.311284114E-1,-7.796683198E-1,8.427426459E-1
1.142738358E1,-1.910206782E-1,-2.350940662E-1,-7.266042531E-1,7.872177970E-1
1.143738158E1,-1.877957377E-1,-1.839253012E-1,-6.624971348E-1,7.127399310E-1
1.144737958E1,-1.983046095E-1,-1.423811629E-1,-6.997667027E-1,7.411278917E-1
1.145737758E1,-2.122352354E-1,-1.084186341E-1,-7.434056425E-1,7.806730075E-1
1.146737458E1,-2.212239955E-1,-1.143067072E-1,-7.576120377E-1,7.974848457E-1
1.147737258E1,-2.111893695E-1,-1.105617117E-1,-7.506339705E-1,7.875761548E-1
1.148737058E1,-2.161110805E-1,-1.291454056E-1,-8.101779217E-1,8.483930691E-1
1.149736858E1,-2.149046172E-1,-1.540427037E-1,-8.449179840E-1,8.853245443E-1
1.150736658E1,-2.285550883E-1,-1.461100785E-1,-8.651803404E-1,9.067097688E-1
1.151736458E1,-2.668165084E-1,-1.685106886E-1,-8.946245795E-1,9.486516957E-1
1.152736258E1,-3.282030086E-1,-1.595692726E-1,-8.281657112E-1,9.050071893E-1
1.153735958E1,-3.589797916E-1,-1.124097973E-1,-8.057469016E-1,8.892302980E-1
1.154735758E1,-3.418998920E-1,-5.970306851E-2,-9.258791167E-1,9.887932702E-1
1.155735558E1,-3.293989104E-1,1.559518196E-2,-1.040227266E0,1.091246817E0
1.156735358E1,-3.020094559E-1,5.520071246E-2,-1.082637121E0,1.125326604E0
1.157735158E1,-2.543866801E-1,5.088429786E-2,-9.936910307E-1,1.026997400E0
1.158734958E1,-2.046066655E-1,2.985924527E-2,-9.494083124E-1,9.716643483E-1
1.159734658E1,-1.668845414E-1,-1.826450899E-3,-9.174585414E-1,9.325148585E-1
1.160734458E1,-1.857539083E-1,1.276739538E-3,-9.418478626E-1,9.599914275E-1
1.161734258E1,-2.264545127E-1,-1.172454447E-2,-9.858797354E-1,1.011621453E0
1.162734058E1,-2.467960623E-1,-6.773151487E-2,-1.073768064E0,1.103844967E0
1.163733858E1,-2.433213727E-1,-1.051598346E-1,-1.045273413E0,1.078360046E0
1.164733658E1,-2.498499899E-1,-4.397537403E-2,-1.038422230E0,1.068961917E0
1.165733458E1,-2.050999329E-1,2.745231204E-2,-1.067450733E0,1.087322711E0
1.166733158E1,-1.098228612E-1,4.782613099E-2,-1.078187975E0,1.084821510E0
1.167732958E1,-1.560649266E-3,1.142679694E-1,-1.234596900E0,1.239874635E0
1.168732758E1,8.081239410E-2,1.100060800E-1,-1.328327183E0,1.335322090E0
1.169732558E1,1.462605530E-1,1.064091653E-1,-1.296405478E0,1.308962270E0
1.170732358E1,1.019116698E-1,4.030814655E-2,-1.244033137E0,1.248851144E0
1.171732158E1,-1.290873354E-2,-8.280603882E-2,-1.170433649E0,1.173430186E0
1.172731958E1,-1.138954378E-1,-1.592205593E-1,-1.092752804E0,1.110149561E0
1.173731658E1,-2.122290227E-1,-1.233049873E-1,-1.155251353E0,1.181038089E0
1.174731458E1,-2.865247863E-1,-6.433007989E-2,-1.274449183E0,1.307843849E0
1.175731258E1,-3.406181458E-1,-1.938578568E-2,-1.521494045E0,1.559275684E0
1.176731058E1,-1.427345358E-1,4.912530921E-2,-1.395447956E0,1.403588772E0
1.177730858E1,-7.948801802E-2,1.171384772E-1,-1.283080843E0,1.290866460E0
1.178730658E1,1.121459417E-3,9.035417296E-2,-1.104492844E0,1.108183007E0
1.179730358E1,8.804156262E-2,1.273229747E-1,-1.187550788E0,1.197597316E0
1.180730158E1,9.717125896E-2,1.466043510E-1,-1.244916067E0,1.257279246E0
1.181729958E1,6.887659156E-2,1.855199100E-1,-1.265155034E0,1.280538513E0
1.182729758E1,2.464027639E-2,1.504855135E-1,-1.249747036E0,1.259015761E0
1.183729558E1,-2.449458023E-2,1.937360155E-1,-1.154615176E0,1.171012311E0
1.184729358E1,-5.291033068E-2,2.215640842E-1,-1.232739825E0,1.253609836E0
1.185729158E1,-1.267496095E-1,1.396835865E-1,-1.247873588E0,1.262048121E0
1.186728858E1,-1.491865088E-1,1.627997131E-1,-1.302391858E0,1.320978770E0
1.187728658E1,-1.138084330E-1,8.674373657E-2,-1.372828587E0,1.380266338E0
1.188728458E1,-8.100570853E-2,7.944261074E-2,-1.298249105E0,1.303197526E0
1.189728258E1,-7.815767596E-2,4.170296330E-2,-1.037470888E0,1.041246178E0
1.190728058E1,-1.163938799E-1,-1.541179866E-3,-9.581124777E-1,9.651577231E-1
1.191727858E1,-1.489294323E-1,3.903648678E-2,-1.005083161E0,1.016806758E0
1.192727558E1,-1.537092662E-1,-5.714556947E-4,-1.161143593E0,1.171273370E0
1.193727358E1,-1.563491744E-1,-6.545464564E-2,-1.232548621E0,1.244148495E0
1.194727158E1,-1.777746699E-1,-1.658660295E-1,-1.196232149E0,1.220691086E0
1.195726958E1,-2.120180296E-1,-2.540141577E-1,-1.169524407E0,1.215426746E0
1.196726758E1,-1.917042542E-1,-2.750604795E-1,-1.044799204E0,1.097275793E0
1.197726558E1,-1.849007265E-1,-1.890780869E-1,-1.074481425E0,1.106548297E0
1.198726358E1,-1.560168698E-1,-8.802054919E-2,-1.133619579E0,1.147685598E0
1.199726058E1,-6.261944041E-2,-4.324399699E-2,-1.212347660E0,1.214733751E0
1.200725858E1,-3.783154923E-2,-3.719450422E-2,-1.201544929E0,1.202715625E0
1.201725658E1,-1.945215158E-2,-1.637238655E-2,-1.109132609E0,1.109423989E0
1.202725458E1,-3.290199012E-2,-2.615656905E-2,-1.064881466E0,1.065710675E0
1.203725258E1,-9.102319493E-2,-1.662839410E-1,-1.098084880E0,1.114327589E0
1.204725058E1,-1.540101054E-1,-3.383588182E-1,-1.000047539E0,1.066911844E0
1.205724858E1,-1.387553776E-1,-5.715673035E-1,-8.868811119E-1,1.064189994E0
1.206724558E1,-7.005907215E-2,-6.001382244E-1,-7.553012180E-1,9.672404520E-1
1.207724358E1,1.711830854E-2,-5.045204245E-1,-7.276321936E-1,8.855972585E-1
1.208724158E1,1.008913398E-1,-3.816301874E-1,-8.606434858E-1,9.468515576E-1
1.209723958E1,1.864047765E-1,-2.554582737E-1,-9.210376221E-1,9.738151630E-1
1.210723758E1,1.785041466E-1,-1.822333363E-1,-7.615489680E-1,8.031373169E-1
1.211723558E1,5.318324947E-2,-1.782611400E-2,-6.329488152E-1,6.354293281E-1
1.212723258E1,-7.068310711E-2,4.889953360E-3,-5.748730999E-1,5.792228365E-1
1.213723058E1,-1.490639366E-1,1.929164551E-2,-6.092763627E-1,6.275427562E-1
1.214722858E1,-1.280933819E-1,3.773880690E-2,-7.131778765E-1,7.255720609E-1
1.215722658E1,-2.118429786E-1,-1.074824218E-2,-8.189195091E-1,8.459445222E-1
1.216722458E1,-4.715603094E-2,-1.607679153E-1,-6.906111324E-1,7.106431946E-1
1.217722258E1,3.561009150E-2,-2.638202307E-1,-6.578094220E-1,7.096354194E-1
1.218722058E1,5.205319282E-2,-2.697963774E-1,-5.721085364E-1,6.346714091E-1
1.219721758E1,8.794924971E-2,-2.612197911E-1,-5.040422684E-1,5.744819041E-1
1.220721558E1,3.909572639E-2,-1.432054742E-1,-2.230823869E-1,2.679590173E-1
1.221721358E1,-4.082302130E-2,-1.248156886E-1,-1.321225154E-1,1.862842835E-1
1.222721158E1,-1.326672567E-1,-7.471601397E-2,-2.264246553E-1,2.728574871E-1
1.223720958E1,-1.930419144E-1,-1.988771068E-1,-3.837176800E-1,4.733461125E-1
1.224720758E1,-6.877224617E-2,-3.564810571E-1,-3.180850232E-1,4.826866974E-1
1.225720558E1,1.442365576E-1,-5.032175186E-1,-3.671700597E-2,5.247667997E-1
1.226720258E1,2.569413104E-1,-4.636212340E-1,4.288932681E-2,5.317922338E-1
1.227720058E1,2.843024606E-1,-2.706895031E-1,-4.638596177E-2,3.952876847E-1
1.228719858E1,3.116110956E-1,-1.844182215E-1,-4.842196226E-2,3.653166322E-1
1.229719658E1,3.603345184E-1,-2.322993529E-1,-1.823547757E-1,4.658939994E-1
1.230719458E1,3.095929291E-1,-2.756347857E-1,1.301408941E-1,4.344640022E-1
1.231719258E1,2.046402139E-1,-2.739574388E-1,3.080640650E-1,4.602540207E-1
1.232719058E1,7.442939990E-2,-3.275860908E-1,3.186972266E-1,4.630554013E-1
1.233718758E1,-1.504531619E-1,-3.221720807E-1,2.400352192E-1,4.290080535E-1
1.234718558E1,-1.051909162E-1,-4.161872685E-1,3.745837444E-1,5.697279639E-1
1.235718358E1,-7.032881152E-2,-5.199142429E-1,6.477685833E-1,8.335832887E-1
1.236718158E1,-1.122976039E-2,-4.668494453E-1,8.846123922E-1,1.000306751E0
1.237717958E1,-2.280170166E-2,-3.256664499E-1,7.826609248E-1,8.480192671E-1
1.238717758E1,1.053480967E-2,-2.109137464E-1,5.072857189E-1,5.494855696E-1
1.239717458E1,1.102001345E-1,-2.444603189E-1,2.476073635E-1,3.649853745E-1
1.240717258E1,1.296470784E-1,-1.483195952E-1,3.622426111E-1,4.123430326E-1
1.241717058E1,1.746523847E-1,-8.013038948E-2,3.662584788E-1,4.136056190E-1
1.242716858E1,2.437809455E-1,-1.563188054E-1,4.904340434E-1,5.695526923E-1
1.243716658E1,2.865252066E-1,-1.960477853E-1,6.283856481E-1,7.179136096E-1
1.244716783E1,3.900921318E-1,-2.343044362E-1,5.064285171E-1,6.808379271E-1
1.245716583E1,4.405529450E-1,-2.940681696E-1,5.475993472E-1,7.618582748E-1
1.246716283E1,3.374427788E-1,-2.395781131E-1,6.050242674E-1,7.330209174E-1
1.247716083E1,2.775963438E-1,4.863260821E-2,7.580149108E-1,8.087097537E-1
1.248715883E1,3.564826651E-1,-4.687369265E-2,1.005127015E0,1.067500515E0
1.249715683E1,3.777468688E-1,-1.634048268E-2,1.024245071E0,1.091804779E0
1.250715483E1,2.053777853E-1,-5.640231527E-2,9.557104415E-1,9.791545863E-1
1.251715283E1,4.631667227E-2,4.765334576E-3,8.492004848E-1,8.504759878E-1
1.252714983E1,-2.913216228E-2,2.794812669E-1,1.209406511E0,1.241620944E0
1.253714783E1,-3.772744138E-2,3.820252765E-1,1.314983836E0,1.369871951E0
1.254714583E1,-4.198583149E-2,5.260580586E-1,1.119502646E0,1.237653452E0
1.255714383E1,-1.199195774E-1,5.033050076E-1,1.296009037E0,1.395469835E0
1.256714183E1,-1.966754108E-1,3.361875643E-1,1.259613043E0,1.318456793E0
1.257713983E1,-1.202048758E-1,2.173271187E-1,1.433167759E0,1.454527454E0
1.258713783E1,-4.569130342E-2,2.234369108E-1,1.480229074E0,1.497694849E0
1.259713483E1,2.345181154E-3,2.299484798E-1,1.319476252E0,1.339365291E0
1.260713283E1,2.310518129E-2,2.114164607E-1,1.201786419E0,1.220459490E0
1.261713083E1,6.773849498E-2,2.244695657E-1,1.105641822E0,1.130229591E0
1.262712883E1,9.365054992E-2,2.109703913E-1,1.233594688E0,1.255003898E0
1.263712683E1,6.448480270E-2,1.451077561E-1,1.445304240E0,1.454000996E0
1.264712483E1,4.036136535E-2,1.243606656E-1,1.382394632E0,1.388563838E0
1.265712283E1,-1.378874863E-2,6.214921463E-2,1.247709281E0,1.249332264E0
1.266711983E1,-7.925630383E-2,8.673924152E-2,1.122822111E0,1.128952944E0
1.267711783E1,-1.154679459E-1,2.625381555E-2,1.179133136E0,1.185064160E0
1.268711583E1,-1.399766600E-1,-3.142385054E-2,1.416972726E0,1.424216497E0
1.269711383E1,-1.746110887E-1,-5.935797315E-2,1.609121003E0,1.619655150E0
1.270711183E1,-1.915397830E-1,2.779093891E-2,1.589385481E0,1.601126488E0
1.271710983E1,-1.508571863E-1,1.806693523E-1,1.544991665E0,1.562817504E0
1.272710783E1,-1.130545625E-1,2.143466832E-1,1.615592117E0,1.633665732E0
1.273710483E1,-7.962783957E-2,1.604337469E-1,1.813757764E0,1.822579711E0
1.274710283E1,-6.160022961E-2,1.784151410E-1,1.991284493E0,2.000210110E0
1.275710083E1,-6.636164015E-2,1.718495949E-1,1.981580454E0,1.990124932E0
1.276709883E1,-1.022429694E-1,1.279095235E-1,1.920562420E0,1.927530669E0
1.277709683E1,-1.110870384E-1,2.249335422E-1,1.873340306E0,1.890063314E0
1.278709483E1,-9.296917571E-2,2.270268454E-1,1.777338966E0,1.794190139E0
1.279709183E1,-9.398994424E-2,2.926698080E-1,1.905572498E0,1.930206277E0
1.280708983E1,-1.034033493E-1,3.734684977E-1,1.922870901E0,1.961530900E0
1.281708783E1,-6.118942616E-2,4.241403954E-1,1.950773229E0,1.997287013E0
1.282708583E1,-2.314003618E-2,4.387078196E-1,1.790029762E0,1.843151259E0
1.283708383E1,-3.781075050E-2,4.638731394E-1,1.706934396E0,1.769246443E0
1.284708183E1,-4.665690713E-2,4.639087709E-1,1.816767325E0,1.875641685E0
1.285707983E1,-8.254253039E-2,4.705873144E-1,2.053822219E0,2.108661043E0
1.286707683E1,-1.216849066E-1,4.079188670E-1,2.192826907E0,2.233762490E0
1.287707483E1,-2.228657841E-1,3.298427140E-1,2.434382987E0,2.466715610E0
1.288707283E1,-2.543058424E-1,3.056744724E-1,2.642139237E0,2.671892231E0
1.289707083E1,-1.663200475E-1,3.119971215E-1,2.793506109E0,2.815791352E0
1.290706883E1,-1.479582920E-1,3.103091765E-1,2.576358646E0,2.599193589E0
1.291706683E1,-1.037471473E-1,4.259052313E-1,2.589285670E0,2.626130046E0
1.292706483E1,-1.538793471E-1,2.405594403E-1,2.850587797E0,2.864855753E0
1.293706183E1,-7.128957300E-2,2.715530455E-1,2.843658847E0,2.857484715E0
1.294705983E1,-3.901582967E-2,3.379146125E-1,3.197805988E0,3.215846958E0
1.295705783E1,-2.810322820E-2,3.176002890E-1,3.227595797E0,3.243306086E0
1.296705583E1,-4.821119298E-2,3.988861979E-1,3.522807682E0,3.545646413E0
1.297705383E1,2.619398666E-2,3.002904110E-1,3.714303995E0,3.726515077E0
1.298705183E1,3.900392510E-2,3.253803383E-1,3.754798302E0,3.769072029E0
1.299704983E1,1.553583272E-1,2.613380876E-1,3.816423277E0,3.828514129E0
1.300704683E1,2.495796293E-1,1.800988833E-1,3.740956773E0,3.753596033E0
1.301704483E1,2.858942372E-1,2.352983167E-1,3.887034253E0,3.904630085E0
1.302704283E1,2.948751584E-1,2.645178400E-1,4.092683167E0,4.111809401E0
1.303704083E1,1.950049709E-1,3.268349794E-1,4.223491228E0,4.240604461E0
1.304703883E1,1.973929372E-1,3.512101942E-1,4.233818581E0,4.252943962E0
1.305703683E1,1.790599793E-1,4.106001443E-1,4.078606580E0,4.103131315E0
1.306703383E1,1.295934394E-1,4.910171570E-1,4.030575796E0,4.062441822E0
1.307703183E1,7.213850649E-2,4.768576857E-1,4.139117661E0,4.167120376E0
1.308702983E1,8.894392504E-2,4.460481948E-1,4.323404941E0,4.347263541E0
1.309702783E1,1.473417214E-1,4.570988842E-1,4.318187470E0,4.344812079E0
1.310702583E1,1.517463468E-1,4.820639735E-1,4.226007285E0,4.256119148E0
1.311702383E1,1.355049104E-1,4.372881156E-1,4.208683155E0,4.233508754E0
1.312702183E1,1.151185565E-1,3.141759402E-1,4.368312142E0,4.381108281E0
1.313701883E1,3.714552922E-2,2.235967226E-1,4.476016100E0,4.481751378E0
1.314701683E1,-4.356542483E-2,1.620030848E-1,4.239597384E0,4.242915144E0
1.315701483E1,-5.788096648E-2,2.703331884E-1,4.126534452E0,4.135784911E0
1.316701283E1,-5.332206602E-2,3.775145882E-1,3.811854263E0,3.830873716E0
1.317701083E1,-7.042465104E-2,4.194681412E-1,3.649266585E0,3.673970571E0
1.318700883E1,-2.582532428E-2,4.604857012E-1,3.624387267E0,3.653614250E0
1.319700683E1,-4.012872839E-2,5.589729491E-1,3.680181983E0,3.722606681E0
1.320700383E1,-1.339603045E-1,6.527261451E-1,3.679078614E0,3.738932498E0
1.321700183E1,-2.356486015E-1,5.939843954E-1,3.517610092E0,3.575182301E0
1.322699983E1,-3.180849866E-1,4.469092704E-1,3.413860606E0,3.457650964E0
1.323699783E1,-3.145417567E-1,3.390140352E-1,3.410548743E0,3.441759690E0
1.324699583E1,-3.170753917E-1,2.147759419E-1,3.356340376E0,3.378118741E0
1.325699383E1,-2.795968956E-1,1.872645365E-1,3.131473419E0,3.149502850E0
1.326699183E1,-1.954548593E-1,2.503239068E-1,2.776991233E0,2.795093016E0
1.327698883E1,-1.577363532E-1,3.862318365E-1,2.417884483E0,2.453613899E0
1.328698683E1,-1.475493707E-1,4.519687930E-1,2.268177052E0,2.317471412E0
1.329698483E1,-1.439781472E-1,4.733394526E-1,2.197639166E0,2.252642414E0
1.330698283E1,-1.813613885E-1,4.442901198E-1,2.124122123E0,2.177654807E0
1.331698083E1,-2.745460341E-1,3.026676697E-1,1.926178671E0,1.969047362E0
1.332697883E1,-3.164300784E-1,1.141985063E-1,1.723963242E0,1.756479022E0
1.333697583E1,-1.883965391E-1,-3.151038705E-2,1.727698444E0,1.738225553E0
1.334697383E1,-3.119474933E-2,-1.514343795E-1,1.675023217E0,1.682143947E0
1.335697183E1,-1.751484113E-2,-2.175412729E-1,1.420902640E0,1.437565750E0
1.336696983E1,3.611258660E-3,-1.499339931E-1,1.002457761E0,1.013614723E0
1.337696783E1,6.328386683E-3,-1.526143157E-2,6.840254134E-1,6.842249089E-1
1.338696583E1,2.212770956E-2,2.168346735E-1,5.263511503E-1,5.696950452E-1
1.339696383E1,7.901053805E-2,2.736830948E-1,5.500639486E-1,6.194476968E-1
1.340696083E1,1.849627800E-1,1.986573794E-1,4.026585656E-1,4.856026203E-1
1.341695883E1,2.687422706E-1,1.078649028E-1,2.366982132E-1,3.740097451E-1
1.342695683E1,2.808979376E-1,-9.931091049E-2,-3.895005763E-2,3.004719875E-1
1.343695483E1,2.686474544E-1,-2.042188489E-1,-2.801260686E-1,4.385742894E-1
1.344694917E1,3.225105614E-1,-1.558357889E-1,-5.824896830E-1,6.838070533E-1
1.345694717E1,3.240067177E-1,-1.871387117E-1,-7.752484095E-1,8.608201595E-1
1.346694517E1,2.164452855E-1,-2.328082799E-1,-8.217308503E-1,8.810731225E-1
1.347694217E1,1.303881947E-1,-1.352544669E-1,-8.589068627E-1,8.792132000E-1
1.348694017E1,1.025668868E-1,-1.041259099E-1,-9.570061845E-1,9.681027882E-1
1.349693817E1,1.329735137E-1,-9.350780477E-2,-9.216129881E-1,9.358398179E-1
1.350693617E1,2.219047393E-1,-7.956169294E-3,-9.841565609E-1,1.008895015E0
1.351693417E1,2.254710475E-1,-7.749883180E-2,-1.059749365E0,1.086237533E0
1.352693217E1,2.157440581E-1,-2.082993466E-1,-1.030415638E0,1.073168441E0
1.353693017E1,1.438783882E-1,-3.582973485E-1,-9.896827644E-1,1.062332318E0
1.354692717E1,4.462826134E-2,-4.098953355E-1,-1.000236404E0,1.081886654E0
1.355692517E1,3.690367833E-2,-1.630584158E-1,-1.504827141E0,1.514085418E0
1.356692317E1,4.999363901E-2,1.119783002E-1,-1.824901972E0,1.829017690E0
1.357692117E1,-2.013243858E-2,1.604526042E-1,-2.074671051E0,2.080963797E0
1.358691917E1,-7.782379081E-2,1.916702307E-1,-2.077710434E0,2.087983397E0
1.359691717E1,-5.481585603E-2,2.628924054E-1,-2.104031090E0,2.121099720E0
1.360691517E1,4.327785602E-2,1.743023192E-1,-2.027926070E0,2.035863064E0
1.361691217E1,1.095607780E-1,1.192049014E-1,-1.933442082E0,1.940209178E0
1.362691017E1,1.261401377E-1,1.896222800E-2,-1.969795976E0,1.973921753E0
1.363690817E1,4.187147275E-2,-1.309787087E-1,-1.993419896E0,1.998157032E0
1.364690617E1,-9.709977675E-3,-1.090337612E-1,-2.316535864E0,2.319120750E0
1.365690417E1,-4.986264311E-2,-9.035879591E-2,-2.448840228E0,2.451013965E0
1.366690217E1,-1.538066041E-1,-2.945632826E-1,-2.179860122E0,2.205042890E0
1.367689917E1,-3.381620228E-1,-4.254420587E-1,-1.913434079E0,1.989116506E0
1.368689717E1,-1.557495790E-1,-3.803323979E-1,-1.655057314E0,1.705322661E0
1.369689517E1,-1.386692774E-2,-3.600580182E-1,-1.795043750E0,1.830851204E0
1.370689317E1,1.017725609E-1,-4.729351177E-1,-1.995314979E0,2.053121318E0
1.371689117E1,2.015647429E-1,-5.132618657E-1,-2.234317580E0,2.301356369E0
1.372688917E1,2.799463763E-1,-5.547010099E-1,-2.186088576E0,2.272673854E0
1.373688717E1,3.613949841E-1,-4.833746269E-1,-2.213313212E0,2.294125702E0
1.374688417E1,3.926282519E-1,-6.238187534E-1,-2.238311813E0,2.356553957E0
1.375688217E1,4.078552786E-1,-6.413490714E-1,-2.334118441E0,2.454747127E0
1.376688017E1,3.338277011E-1,-4.838636734E-1,-2.647206434E0,2.711690781E0
1.377687817E1,3.258214742E-1,-3.046752746E-1,-2.707332183E0,2.743835674E0
1.378687617E1,3.183852046E-1,-2.326046141E-1,-2.870447280E0,2.897402567E0
1.379687417E1,3.310599216E-1,-4.691312481E-2,-2.783835983E0,2.803844556E0
1.380687217E1,3.335289815E-1,-2.943135699E-2,-2.822353347E0,2.842144648E0
1.381686917E1,2.855504026E-1,5.774620643E-2,-2.834457083E0,2.849389516E0
1.382686717E1,2.844503404E-1,1.663364380E-1,-2.871518490E0,2.890362996E0
1.383686517E1,2.584059648E-1,1.126340746E-1,-3.121393404E0,3.134095860E0
1.384686317E1,2.866278435E-1,1.160994452E-1,-3.112613225E0,3.127937929E0
1.385686117E1,2.955444088E-1,-1.172655445E-2,-3.089493919E0,3.103619932E0
1.386685917E1,3.182211537E-1,-6.458582249E-1,-2.975053968E0,3.060938363E0
1.387685717E1,3.937423658E-1,-5.209111201E-1,-2.392713974E0,2.480214025E0
1.388685417E1,3.763875373E-1,-4.101978924E-1,-2.961346341E0,3.013221206E0
1.389685217E1,2.929570890E-1,-2.277210013E-1,-3.120718051E0,3.142699773E0
1.390685017E1,1.084275145E-1,1.511296939E-2,-3.190748398E0,3.192625921E0
1.391684817E1,1.575276442E-4,5.111789413E-2,-3.600513670E0,3.600876525E0
1.392684617E1,-4.693823129E-2,4.890207348E-2,-2.850342214E0,2.851148075E0
1.393684417E1,-9.074513242E-2,1.485526250E-1,-2.663078701E0,2.668762022E0
1.394684217E1,-2.161550991E-1,1.747014647E-1,-2.756997263E0,2.770970505E0
1.395683917E1,-3.741308045E-1,9.517633516E-2,-3.190918552E0,3.214186305E0
1.396683717E1,-1.980257156E-1,1.376908509E-2,-2.791571265E0,2.798619999E0
1.397683517E1,-1.508921690E-1,-2.674936936E-2,-2.925454962E0,2.929465942E0
1.398683317E1,-1.026868187E-1,-9.513820035E-2,-2.588459458E0,2.592241931E0
1.399683117E1,-4.434894715E-2,-2.169552723E-1,-2.597023290E0,2.606447082E0
1.400682917E1,-6.326568564E-2,-3.316371149E-1,-2.417985640E0,2.441442254E0
1.401682617E1,-6.008602459E-2,-4.000681760E-1,-2.253307582E0,2.289336134E0
1.402682417E1,-6.598204622E-2,-2.983008594E-1,-2.194940675E0,2.216100540E0
1.403682217E1,-9.912442999E-2,-2.664941441E-1,-1.877792376E0,1.899196933E0
1.404682017E1,-3.743648758E-2,-1.920826056E-1,-1.837681646E0,1.848072253E0
1.405681817E1,-8.845174480E-3,-1.053264894E-1,-1.674758922E0,1.678090985E0
1.406681617E1,-7.100788339E-2,-3.945123710E-2,-1.481942893E0,1.484167530E0
1.407681417E1,-1.350842581E-1,9.640867241E-2,-1.442905127E0,1.452417845E0
1.408681117E1,-1.388689598E-1,3.340742709E-2,-1.430872727E0,1.437983799E0
1.409680917E1,-1.409891145E-2,-8.805481022E-2,-1.320877830E0,1.323884689E0
1.410680717E1,8.472732425E-2,-2.495717904E-1,-9.696852869E-1,1.004865341E0
1.411680517E1,1.674631051E-1,-4.337232144E-1,-7.818943548E-1,9.096804386E-1
1.412680317E1,2.264078811E-1,-4.109204255E-1,-7.583809465E-1,8.917722718E-1
1.413680117E1,1.720117090E-1,-3.394042638E-1,-7.883467573E-1,8.753707169E-1
1.414679917E1,1.084086847E-1,-2.124368364E-1,-8.497933924E-1,8.826271366E-1
1.415679617E1,1.207580498E-1,-1.059170125E-1,-6.427703834E-1,6.625365544E-1
1.416679417E1,2.020104469E-1,-9.656059038E-2,-4.799915010E-1,5.296451730E-1
1.417679217E1,2.876817128E-1,-1.623259424E-1,-2.519079906E-1,4.154131861E-1
1.418679017E1,2.272000692E-1,-5.436770350E-2,-3.652931035E-2,2.364531859E-1
1.419678817E1,1.709123959E-1,-5.338306893E-2,8.495887399E-2,1.981888226E-1
1.420678617E1,9.886159765E-2,7.457462098E-2,-7.368953526E-2,1.441011353E-1
1.421678417E1,1.186413486E-1,2.468307436E-1,-1.722238898E-2,2.744044392E-1
1.422678117E1,-4.667214186E-2,5.515750153E-1,1.090973496E-2,5.536535999E-1
1.423677917E1,-1.504705665E-1,7.496804358E-1,-1.553406394E-1,7.802517936E-1
1.424677717E1,-1.909839869E-1,7.264908171E-1,-7.786093891E-2,7.551993885E-1
1.425677517E1,-2.634097013E-1,6.811952148E-1,-7.945138156E-2,7.346591819E-1
1.426677317E1,-2.066110544E-1,4.684911972E-1,-1.764397323E-2,5.123313766E-1
1.427677117E1,-4.695698349E-2,2.583785194E-1,3.879276752E-1,4.684573607E-1
1.428676917E1,-8.974740556E-3,1.858756766E-2,2.811364675E-1,2.818931659E-1
1.429676617E1,3.872017069E-3,-9.015544072E-2,1.056521702E-1,1.389437910E-1
1.430676417E1,-5.214180554E-2,-7.387690198E-2,1.045365214E-2,9.102660806E-2
1.431676217E1,-1.568187058E-1,-1.264049618E-1,1.827898085E-2,2.022484660E-1
1.432676017E1,-3.182058413E-1,-1.025003382E-1,8.294860125E-2,3.444441133E-1
1.433675817E1,-5.427219654E-1,-1.140751209E-1,-9.637380838E-2,5.628926859E-1
1.434675617E1,-4.421810657E-1,-1.536532426E-1,1.587823105E-1,4.943128927E-1
1.435675417E1,-2.854666230E-1,-2.154027634E-1,1.634314317E-1,3.931912718E-1
1.436675117E1,-1.710546294E-1,-2.787392552E-1,1.660872370E-1,3.667972586E-1
1.437674917E1,-1.058684989E-1,-3.140341453E-1,3.592587769E-2,3.333410448E-1
1.438674717E1,-1.407278627E-1,-3.404819056E-1,-1.820308399E-1,4.109348928E-1
1.439674517E1,-2.409988951E-1,-3.480296012E-1,-3.088937849E-1,5.240424040E-1
1.440674317E1,-2.561647636E-1,-3.387059966E-1,-2.902242100E-1,5.143658526E-1
1.441674117E1,-2.329661182E-1,-3.063376746E-1,-2.760008579E-1,4.735952456E-1
1.442673917E1,-1.425758570E-1,-2.480161569E-1,-2.174152654E-1,3.593178074E-1
1.443673617E1,-6.834579685E-2,-1.637653442E-1,-2.154997176E-1,2.791601049E-1
1.444673417E1,-3.781173265E-2,-9.005168919E-2,-2.897213495E-1,3.057408939E-1
1.445673304E1,-3.718116526E-2,-1.047647821E-1,-3.206069273E-1,3.393330229E-1
1.446673104E1,-8.317349064E-2,-1.395697851E-1,-3.377930635E-1,3.748355749E-1
1.447672904E1,-1.296671874E-1,-1.130494096E-1,-3.449015236E-1,3.854228969E-1
1.448672704E1,-1.545509181E-1,-6.847436707E-2,-3.147398311E-1,3.572616499E-1
1.449672504E1,-1.806295181E-1,1.619623918E-2,-3.532332212E-1,3.970680666E-1
1.450672204E1,-1.102322759E-1,8.146110613E-2,-3.709602249E-1,3.954725716E-1
1.451672004E1,-1.532490355E-2,5.996078454E-2,-3.174535239E-1,3.234298814E-1
1.452671804E1,1.484753778E-2,-1.575378768E-2,-2.549345094E-1,2.558519792E-1
1.453671604E1,2.435085292E-2,-1.299221351E-1,-1.455108851E-1,1.965862226E-1
1.454671404E1,-5.883774455E-3,-2.201285928E-1,-2.090204179E-2,2.211969971E-1
1.455671204E1,-2.846741152E-2,-2.455459276E-1,-2.048805892E-2,2.480382161E-1
1.456670904E1,-1.566281323E-2,-2.509100901E-1,-6.870887697E-2,2.606187001E-1
1.457670704E1,2.658726673E-2,-2.300434971E-1,-1.459815860E-1,2.737471767E-1
1.458670504E1,6.527155013E-2,-2.130791165E-1,-1.147749960E-1,2.506718669E-1
1.459670304E1,1.365194389E-1,-1.421779722E-1,6.228454113E-3,1.972078259E-1
1.460670104E1,1.700995781E-1,-6.668789651E-2,6.837675512E-2,1.950808106E-1
1.461669904E1,1.613852534E-1,-9.676085752E-2,2.019452870E-2,1.892503171E-1
1.462669704E1,9.044548089E-2,-1.798410577E-1,7.506655455E-3,2.014436420E-1
1.463669404E1,-1.798581151E-2,-1.058221049E-1,1.265395939E-1,1.659339511E-1
1.464669204E1,-7.307497462E-2,-9.243961897E-2,1.124793792E-1,1.629007238E-1
1.465669004E1,-1.648567636E-1,-1.064482686E-1,2.012319267E-2,1.972661381E-1
1.466668804E1,-2.030328691E-1,-1.143148933E-1,-5.883292973E-2,2.403155309E-1
1.467668604E1,-5.812294071E-2,-1.270368265E-1,2.670481861E-2,1.422314272E-1
1.468668404E1,1.106582821E-2,-1.104047871E-1,2.979565680E-2,1.148888625E-1
1.469668204E1,4.721990263E-2,-1.623281351E-1,7.644825161E-2,1.855383460E-1
1.470667904E1,3.173834852E-2,-1.579472550E-1,1.295684516E-1,2.067429365E-1
1.471667704E1,-4.669701537E-2,-9.876528304E-2,2.476237357E-2,1.120194962E-1
1.472667504E1,-9.856989468E-2,-5.216746934E-2,-8.323511481E-2,1.391601715E-1
1.473667304E1,-1.690457637E-1,-2.002656743E-2,-2.064400417E-1,2.675724657E-1
1.474667104E1,-1.342060520E-1,-4.182513356E-2,-1.825231755E-1,2.303808060E-1
1.475666904E1,-5.449226746E-2,-6.650531720E-2,-4.602109551E-2,9.752079605E-2
1.476666704E1,4.142350294E-2,-3.308720067E-2,-6.829080105E-2,8.645405110E-2
1.477666404E1,8.468618360E-2,-3.991788145E-2,-1.366330576E-1,1.656314565E-1
1.478666204E1,1.530474345E-1,-3.133055091E-2,-2.098957461E-1,2.616511893E-1
1.479666004E1,2.070996441E-1,-1.298812777E-3,-3.024542463E-1,3.665658476E-1
1.480665804E1,2.142093102E-1,-5.631014854E-3,-1.962278795E-1,2.905558769E-1
1.481665604E1,2.067917882E-1,-1.224432539E-2,-1.095996255E-1,2.343605024E-1
1.482665404E1,2.070099807E-1,-4.750753082E-3,-9.617734194E-2,2.283107157E-1
1.483665204E1,2.287272158E-1,7.189509787E-2,-1.598704773E-1,2.881728888E-1
1.484664904E1,2.538161746E-1,1.284837931E-1,-2.363345164E-1,3.698442094E-1
1.485664704E1,2.691836440E-1,1.004488426E-1,-2.817001390E-1,4.023739213E-1
1.486664504E1,2.670526994E-1,6.825557157E-2,-2.482061183E-1,3.709208062E-1
1.487664304E1,2.429019811E-1,3.922202624E-2,-1.943567705E-1,3.135511027E-1
1.488664104E1,2.019261922E-1,9.721142203E-3,-2.110154879E-1,2.922263230E-1
1.489663904E1,1.236666468E-1,1.446904477E-2,-2.860510522E-1,3.119743535E-1
1.490663704E1,4.746893006E-2,-5.173250958E-3,-3.414779788E-1,3.448003362E-1
1.491663404E1,-1.144936902E-2,1.091941942E-2,-3.814986616E-1,3.818265976E-1
1.492663204E1,-6.329096572E-2,3.819620535E-2,-3.681061989E-1,3.754555501E-1
1.493663004E1,-6.567279247E-2,3.627941497E-2,-3.276586694E-1,3.361388333E-1
1.494662804E1,-1.301782066E-2,6.011511449E-2,-3.716800171E-1,3.767350870E-1
1.495662604E1,3.112302043E-2,1.130417351E-1,-4.449163932E-1,4.601061543E-1
1.496662404E1,3.917149351E-2,1.121025992E-1,-5.166851181E-1,5.301555526E-1
1.497662204E1,4.420761812E-2,1.040506178E-1,-5.735136223E-1,5.845500146E-1
1.498661904E1,7.615409098E-2,1.007251601E-1,-6.237932450E-1,6.364456111E-1
1.499661704E1,1.307001894E-1,4.611815929E-2,-6.256041276E-1,6.407729306E-1
1.500661504E1,1.292860220E-1,9.144314378E-2,-6.427241904E-1,6.619449440E-1
1.501661304E1,1.046684858E-1,1.295939967E-1,-7.139403534E-1,7.331172649E-1
1.502661104E1,9.482933946E-2,1.810451821E-1,-7.897062349E-1,8.157241562E-1
1.503660904E1,7.733503668E-2,2.485181404E-1,-9.019049478E-1,9.387089585E-1
1.504660704E1,4.969441232E-2,2.842129069E-1,-9.286787635E-1,9.724663268E-1
1.505660404E1,4.675036208E-2,3.053241328E-1,-9.873900712E-1,1.034576036E0
1.506660204E1,4.700555650E-2,2.907727154E-1,-1.078169264E0,1.117679406E0
1.507660004E1,5.626628528E-2,2.543853097E-1,-1.057446731E0,1.089069038E0
1.508659804E1,2.650176491E-2,1.965997990E-1,-1.099742566E0,1.117491627E0
1.509659604E1,-1.486088131E-3,1.425577123E-1,-1.199803628E0,1.208244038E0
1.510659404E1,-1.199435692E-2,1.255141750E-1,-1.238011090E0,1.244415176E0
1.511659204E1,-1.211172150E-2,1.245194540E-1,-1.274235760E0,1.280362667E0
1.512658904E1,2.627866622E-4,1.170073533E-1,-1.339603538E0,1.344703844E0
1.513658704E1,8.158236276E-3,9.060775939E-2,-1.350286401E0,1.353347586E0
1.514658504E1,-2.848070023E-2,5.810856935E-2,-1.291905461E0,1.293525213E0
1.515658304E1,-7.367682670E-2,3.595303070E-2,-1.324026555E0,1.326562179E0
1.516658104E1,-1.141478273E-1,5.803690441E-3,-1.395923334E0,1.400594647E0
1.517657904E1,-1.735091444E-1,-2.308758482E-2,-1.469287180E0,1.479676747E0
1.518657704E1,-1.948194680E-1,-7.652868737E-2,-1.518527752E0,1.532885449E0
1.519657404E1,-1.572453333E-1,-1.155625064E-1,-1.503668223E0,1.516277980E0
1.520657204E1,-8.527323492E-2,-1.786332970E-1,-1.461663580E0,1.475005695E0
1.521657004E1,-3.412869485E-2,-2.157765102E-1,-1.520029317E0,1.535647549E0
1.522656804E1,-8.114537476E-3,-3.064404394E-1,-1.520825123E0,1.551412467E0
1.523656604E1,3.143628045E-2,-2.676903565E-1,-1.417352795E0,1.442752686E0
1.524656404E1,4.865284505E-2,-2.092496836E-1,-1.467237146E0,1.482881442E0
1.525656204E1,5.261200848E-2,-2.091289203E-1,-1.499396247E0,1.514824094E0
1.526655904E1,6.598023724E-2,-2.175494225E-1,-1.451270154E0,1.468967734E0
1.527655704E1,2.680359544E-2,-2.353034330E-1,-1.395321656E0,1.415276885E0
1.528655504E1,-2.952402622E-2,-1.848368639E-1,-1.345201077E0,1.358161358E0
1.529655304E1,-7.745779166E-2,-1.250158095E-1,-1.346882152E0,1.354887521E0
1.530655104E1,-1.308260781E-1,-3.919878356E-2,-1.423451441E0,1.429988116E0
1.531654904E1,-1.559903381E-1,2.857154220E-2,-1.450831028E0,1.459472504E0
1.532654704E1,-1.421084269E-1,1.136224367E-1,-1.405677075E0,1.417403578E0
1.533654404E1,-5.953339876E-2,1.593149553E-1,-1.396827314E0,1.407143214E0
1.534654204E1,2.717064983E-2,2.585082180E-1,-1.452875215E0,1.475944150E0
1.535654004E1,7.616860395E-2,2.634069422E-1,-1.534906973E0,1.559206301E0
1.536653804E1,9.926945007E-2,2.505461558E-1,-1.566121749E0,1.589139746E0
1.537653604E1,3.851699822E-2,1.604846177E-1,-1.510416495E0,1.519406746E0
1.538653404E1,-6.241873473E-2,1.335322243E-1,-1.363432696E0,1.371377289E0
1.539653204E1,-1.120623265E-1,6.351320559E-2,-1.296255205E0,1.302639416E0
1.540652904E1,-1.046285603E-1,-1.461752750E-2,-1.325670792E0,1.329873625E0
1.541652704E1,-7.684752507E-2,-5.201896833E-2,-1.445560348E0,1.448535894E0
1.542652504E1,3.307794563E-2,-2.293222248E-1,-1.387153096E0,1.406369988E0
1.543652304E1,1.030537041E-1,-3.690086436E-1,-1.290962890E0,1.346615249E0
1.544652104E1,1.039585333E-1,-4.600303493E-1,-1.186305331E0,1.276618830E0
1.545651846E1,4.190784425E-2,-4.383427706E-1,-1.121225821E0,1.204594535E0
1.546651646E1,-5.140259414E-2,-3.693315560E-1,-1.157394358E0,1.215980972E0
1.547651346E1,-1.169232631E-1,-2.886499203E-1,-1.276110962E0,1.313563479E0
1.548651146E1,-1.442337527E-1,-2.653450566E-1,-1.278041128E0,1.313240457E0
1.549650946E1,-1.901669847E-1,-3.219115873E-1,-1.229059002E0,1.284669834E0
1.550650746E1,-6.232738569E-2,-3.861667863E-1,-1.273516552E0,1.332236428E0
1.551650546E1,7.253439040E-2,-3.750367940E-1,-8.447571856E-1,9.271076190E-1
1.552650346E1,1.699070677E-2,-1.570260262E-1,-8.497191328E-1,8.642733720E-1
1.553650146E1,-4.609245439E-2,-4.164567886E-2,-9.945856547E-1,9.965237085E-1
1.554649846E1,-1.049118944E-1,9.114685440E-3,-9.374460787E-1,9.433423204E-1
1.555649646E1,-2.460947253E-1,1.030244680E-1,-9.422349483E-1,9.792769540E-1
1.556649446E1,-3.823922624E-1,1.172165009E-1,-8.388193381E-1,9.292908223E-1
1.557649246E1,-4.500199526E-1,8.159237612E-2,-1.062767698E0,1.157000628E0
1.558649046E1,-1.560780372E-2,-5.654019993E-3,-6.596243978E-1,6.598332498E-1
1.559648846E1,1.322305884E-1,-7.018877984E-2,-7.267410779E-1,7.419999917E-1
1.560648646E1,1.696778842E-1,-9.200381868E-2,-5.431010842E-1,5.763801478E-1
1.561648346E1,1.395963169E-1,-8.192214081E-2,-4.372389990E-1,4.662363254E-1
1.562648146E1,9.085670460E-2,-1.739806492E-1,-3.424152875E-1,3.946801695E-1
1.563647946E1,9.270183004E-2,-2.475253563E-1,-6.823408306E-2,2.729804414E-1
1.564647746E1,1.130522601E-3,-1.474657829E-1,-9.594520748E-2,1.759344140E-1
1.565647546E1,-8.072995749E-2,-7.584819023E-2,-2.312269735E-1,2.563906927E-1
1.566647346E1,1.088169208E-1,-4.762286715E-2,-5.484337449E-2,1.308314009E-1
1.567647146E1,1.926287173E-1,-5.402396944E-2,-2.164259166E-1,2.947279921E-1
1.568646846E1,1.942394425E-1,-6.641215461E-2,-7.336384535E-2,2.179949291E-1
1.569646646E1,1.597849618E-1,-1.027016469E-1,3.294321299E-3,1.899729319E-1
1.570646446E1,1.018875317E-1,-1.929041942E-1,7.522267520E-2,2.307629696E-1
1.571646246E1,1.832192134E-2,-2.896844755E-1,7.369245887E-2,2.994718127E-1
1.572646046E1,-1.589930295E-1,-3.385656634E-1,7.890700579E-2,3.822719025E-1
1.573645846E1,-2.132134928E-1,-3.744978634E-1,-8.522199869E-2,4.392851378E-1
1.574645646E1,-8.533896128E-2,-3.488275634E-1,1.093476105E-1,3.753935365E-1
1.575645346E1,-3.692328934E-2,-3.269203122E-1,-3.236258447E-2,3.305866856E-1
1.576645146E1,4.273876101E-3,-3.905612977E-1,-2.551549494E-2,3.914172119E-1
1.577644946E1,3.619842189E-2,-4.372313245E-1,1.501103050E-1,4.636967334E-1
1.578644746E1,4.086265446E-2,-4.531122161E-1,2.445176947E-1,5.164971829E-1
1.579644546E1,4.277494979E-2,-3.252608724E-1,3.007690787E-1,4.450689499E-1
1.580644346E1,3.407280369E-2,-2.199844589E-1,6.420593619E-2,2.316819379E-1
1.581644146E1,4.528499502E-2,-2.240506127E-1,-3.841620684E-2,2.317869987E-1
1.582643846E1,3.656138781E-2,-1.868193258E-1,6.089933574E-2,1.998672676E-1
1.583643646E1,1.103944265E-2,-1.392460686E-1,2.106973994E-1,2.527938509E-1
1.584643446E1,-9.590749294E-3,-3.680001816E-2,3.356980062E-1,3.378451941E-1
1.585643246E1,-4.007507105E-2,6.498403614E-2,2.128404039E-1,2.261193796E-1
1.586643046E1,-1.916247686E-2,1.930890211E-1,4.533170879E-2,1.992624761E-1
1.587642846E1,4.825871531E-3,2.427563124E-1,-1.478983033E-1,2.843023467E-1
1.588642646E1,-2.559163665E-2,1.220411848E-1,-1.146510351E-1,1.693925692E-1
1.589642346E1,4.342301315E-2,1.169591504E-1,1.755474472E-1,2.153645912E-1
1.590642146E1,5.943276269E-2,1.444282366E-1,2.720387846E-1,3.136827524E-1
1.591641946E1,4.993417100E-2,1.785746238E-1,2.570313209E-1,3.169344059E-1
1.592641746E1,4.325609341E-2,1.336915061E-1,1.030033815E-1,1.742245822E-1
1.593641546E1,1.821248705E-2,8.613326898E-2,1.425785065E-2,8.918475775E-2
1.594641346E1,-4.806800472E-2,5.595911460E-2,1.688874686E-1,1.842957748E-1
1.595641146E1,-1.105983664E-1,5.780433141E-2,2.536563081E-1,2.826921683E-1
