"Time (s)","Linear Acceleration x (m/s^2)","Linear Acceleration y (m/s^2)","Linear Acceleration z (m/s^2)","Absolute acceleration (m/s^2)"
1.531604165E-2,-5.278937554E-2,9.329431287E-3,-5.234427452E-3,5.386237730E-2
2.531404168E-2,-5.126893502E-2,-1.049883102E-2,-1.826026976E-2,5.542712876E-2
3.531204167E-2,-5.648229422E-2,-1.322779737E-2,-2.454953492E-2,6.299129978E-2
4.531104167E-2,-6.398681179E-2,-1.892795555E-2,-4.101587892E-2,7.832548696E-2
5.530904167E-2,-6.073044257E-2,-3.089645910E-3,-2.380226076E-2,6.530145622E-2
6.530704166E-2,-7.003908198E-2,-7.417056011E-3,2.694163084E-2,7.540780594E-2
7.530604166E-2,-6.783707539E-2,-3.121738901E-2,-1.497588873E-2,7.616213900E-2
8.530404166E-2,-4.292462938E-2,-1.220526097E-2,-4.895698249E-2,6.624408153E-2
9.530204168E-2,-4.962698204E-2,-1.189428959E-2,-3.009620368E-2,5.924603740E-2
1.053010417E-1,-5.394551625E-2,-3.118253869E-3,-3.099784434E-2,6.229533357E-2
1.152990417E-1,-4.437165080E-2,1.631215795E-2,-2.905481458E-2,5.548974807E-2
1.252970417E-1,-6.207363937E-2,-7.500065917E-3,2.225450277E-3,6.256468910E-2
1.352950417E-1,-6.553657975E-2,4.508660082E-3,-2.382389545E-2,6.987810312E-2
1.452940417E-1,-6.866504112E-2,-2.402305710E-3,-2.382681906E-2,7.272122284E-2
1.552920417E-1,-6.730673293E-2,7.560559474E-3,-2.337775290E-2,7.165108295E-2
1.652900417E-1,-6.849059310E-2,3.179861139E-2,-2.741876364E-2,8.033617883E-2
1.752890417E-1,-7.200891757E-2,1.113425206E-2,-1.379592061E-2,7.415917478E-2
1.852870417E-1,-6.335304670E-2,3.541674509E-3,-1.918179095E-2,6.628795583E-2
1.952850417E-1,-4.661551980E-2,9.255388635E-4,-3.893777847E-2,6.074548461E-2
2.052840417E-1,-4.741879933E-2,5.081810555E-3,-2.052080333E-2,5.191792270E-2
2.152820417E-1,-5.331957182E-2,8.708112091E-3,-1.078928232E-2,5.509279960E-2
2.252800417E-1,-4.904304620E-2,1.970188936E-2,-1.213414192E-2,5.422750432E-2
2.352780417E-1,-5.132298522E-2,6.315906532E-4,-6.592735648E-3,5.174854473E-2
2.452770417E-1,-6.679360321E-2,1.232935670E-3,-2.096051395E-2,7.001606034E-2
2.552750417E-1,-6.403887028E-2,1.371255211E-2,-3.053942263E-2,7.226110521E-2
2.652730417E-1,-7.253408890E-2,9.837746189E-3,-3.053825319E-2,7.931305196E-2
2.752720417E-1,-6.088857321E-2,1.339497292E-2,-2.694630861E-2,6.791868075E-2
2.852700417E-1,-5.598279582E-2,-8.786355145E-5,-1.571731567E-2,5.814735729E-2
2.952686667E-1,-5.966301508E-2,9.807630745E-4,-1.930867553E-2,6.271731990E-2
3.052676667E-1,-4.762109471E-2,-8.993337443E-4,-3.098322630E-2,5.682022329E-2
3.152656667E-1,-4.918467673E-2,-1.614418983E-2,-2.184695184E-2,5.618769077E-2
3.252636667E-1,-5.779457387E-2,-1.528173465E-2,7.607227564E-4,5.978564110E-2
3.352616667E-1,-5.187693581E-2,-2.690783119E-2,-9.865422249E-3,5.926697567E-2
3.452606667E-1,-5.612943303E-2,-1.541237196E-2,-6.269969344E-3,5.854371851E-2
3.552586667E-1,-6.448152278E-2,-2.127285120E-2,-1.749603868E-2,7.011784614E-2
3.652566667E-1,-6.141350700E-2,-1.613763912E-2,-4.129537582E-2,7.574529888E-2
3.752556667E-1,-5.139591096E-2,-4.496645881E-4,-3.905121446E-2,6.455028437E-2
3.852536667E-1,-6.101852758E-2,-9.403455667E-3,-2.094004869E-2,6.519333805E-2
3.952516667E-1,-6.029128013E-2,-2.317856841E-3,-1.524953842E-2,6.223310487E-2
4.052506667E-1,-5.966504334E-2,1.520274928E-2,-2.138560653E-2,6.517963753E-2
4.152486667E-1,-5.221110418E-2,8.716983413E-3,-2.542778671E-2,5.872442028E-2
4.252466667E-1,-4.903847806E-2,2.266499102E-2,-2.243342757E-2,5.849557950E-2
4.352446667E-1,-5.466910919E-2,2.711216169E-2,-1.330124617E-2,6.245561593E-2
4.452436667E-1,-5.600331590E-2,2.450011452E-2,-1.988345683E-2,6.428047027E-2
4.552416667E-1,-4.135662541E-2,4.148472968E-2,-3.694153905E-2,6.925337948E-2
4.652396667E-1,-4.984955996E-2,2.656162349E-2,-1.613012910E-2,5.874248493E-2
4.752386667E-1,-5.836228369E-2,1.750360579E-2,-1.792230070E-2,6.351174093E-2
4.852366667E-1,-5.908280684E-2,1.588045756E-2,-2.315672815E-2,6.541560253E-2
4.952346667E-1,-6.788714217E-2,2.563700282E-3,-1.656983972E-2,6.992707787E-2
5.052326667E-1,-6.456696521E-2,6.631297579E-3,-2.510209680E-2,6.959153949E-2
5.152316667E-1,-6.455210963E-2,-1.518034485E-2,-8.186686635E-3,6.681646179E-2
5.252296667E-1,-5.705607053E-2,-3.377819081E-2,-2.659781456E-2,7.144092033E-2
5.352276667E-1,-5.422305800E-2,-1.800362039E-2,-2.240653038E-2,6.137037534E-2
5.452266667E-1,-4.997390466E-2,-2.551468181E-2,-1.611843467E-2,5.837974024E-2
5.552246667E-1,-4.771570997E-2,-1.257226968E-2,-4.139828682E-3,4.951756380E-2
5.652226667E-1,-4.053004839E-2,-1.094651989E-2,-2.794033527E-2,5.042988653E-2
5.752216667E-1,-4.704185491E-2,-2.945470474E-2,-3.692048907E-2,6.666062000E-2
5.852196667E-1,-6.111082222E-2,-1.349983908E-2,-2.943312943E-2,6.915986810E-2
5.952176667E-1,-6.602209965E-2,-1.134596923E-2,-7.275690436E-3,6.738385809E-2
6.052156667E-1,-5.857431835E-2,3.725870939E-3,-1.520334542E-2,6.062981606E-2
6.152146667E-1,-6.298328340E-2,8.591058142E-3,-3.735552192E-2,7.373015181E-2
6.252126667E-1,-5.779859383E-2,1.043801084E-2,-4.064984322E-2,7.142856062E-2
6.352106667E-1,-5.460422337E-2,-3.294396673E-3,-2.478225410E-2,6.005526103E-2
6.452096667E-1,-5.720245192E-2,1.013501087E-2,-1.819711983E-2,6.087671247E-2
6.552076667E-1,-5.089164343E-2,3.078441183E-2,-3.107034981E-2,6.710444113E-2
6.652056667E-1,-5.979907248E-2,3.237527704E-2,-1.669906318E-2,7.002104215E-2
6.752046667E-1,-5.420719743E-2,9.300599489E-3,-5.171277523E-3,5.524186379E-2
6.852026667E-1,-5.257023286E-2,7.219015842E-3,-2.642356753E-2,5.927856690E-2
6.952006667E-1,-5.010495538E-2,2.653566734E-2,-2.657150209E-2,6.261543674E-2
7.051986667E-1,-5.675747881E-2,1.543851541E-2,-1.833335996E-2,6.161064231E-2
7.151976667E-1,-6.323834991E-2,2.146246087E-2,-2.087514460E-2,6.996783395E-2
7.251956667E-1,-5.868276592E-2,1.320524448E-2,-2.461560845E-2,6.499210473E-2
7.351936667E-1,-5.420264756E-2,-8.614136372E-4,-2.640778005E-2,6.029958444E-2
7.451926667E-1,-5.288254727E-2,2.008108586E-2,-2.341166675E-2,6.122025772E-2
7.551906667E-1,-6.342129467E-2,1.768058685E-3,-1.577812672E-2,6.537840570E-2
7.651886667E-1,-5.228974923E-2,-3.285210149E-3,-2.491147757E-2,5.801372420E-2
7.751876667E-1,-5.235388588E-2,-1.104270887E-2,-8.746265173E-3,5.421593807E-2
7.851856667E-1,-6.366457539E-2,-3.020253393E-2,-1.383802056E-2,7.181129457E-2
7.951836667E-1,-5.823843235E-2,-5.837636269E-3,-4.601992607E-2,7.445553435E-2
8.051816667E-1,-5.838174395E-2,-1.338894526E-2,-3.449389458E-2,6.911961115E-2
8.151806667E-1,-5.958320059E-2,-3.485784949E-2,-3.655094504E-3,6.912732585E-2
8.251786667E-1,-5.781986307E-2,-2.348330885E-2,-1.981913745E-2,6.547824501E-2
8.351766667E-1,-5.657203071E-2,-2.222450838E-2,-1.592255294E-2,6.283192758E-2
8.451756667E-1,-4.980983544E-2,-1.807327078E-2,-2.699600995E-2,5.946803659E-2
8.551736667E-1,-4.910424097E-2,-7.655103926E-3,-3.552943647E-2,6.109147201E-2
8.651716667E-1,-5.291874519E-2,-2.000316486E-3,-2.295382977E-2,5.771718253E-2
8.751706667E-1,-5.163659697E-2,8.536665333E-3,-2.280238688E-2,5.708906769E-2
8.851686667E-1,-4.828210417E-2,2.151388439E-2,-1.875962198E-2,5.608861044E-2
8.951666667E-1,-5.854891950E-2,1.707744884E-2,-1.905724525E-2,6.389674350E-2
9.051646667E-1,-5.779598085E-2,3.708589219E-2,-4.914760172E-2,8.444658405E-2
9.151636667E-1,-6.345085965E-2,3.440132584E-2,-3.762390912E-2,8.139423412E-2
9.251616667E-1,-6.587429300E-2,2.891221332E-2,-1.322464764E-2,7.314526548E-2
9.351596667E-1,-6.205176713E-2,3.543364263E-2,-7.683826089E-3,7.186797630E-2
9.451586667E-1,-5.754451403E-2,2.759376441E-2,-1.392806768E-3,6.383358709E-2
9.551566667E-1,-4.752900107E-2,8.694069637E-3,-3.417463660E-2,5.918191089E-2
9.651546667E-1,-4.409242798E-2,3.861334480E-3,-3.222868323E-2,5.475162218E-2
9.751526667E-1,-4.682026371E-2,5.790684954E-4,-1.949929476E-2,5.072174002E-2
9.851516667E-1,-4.274723947E-2,6.333836471E-4,-2.264217317E-2,4.837763598E-2
9.951496667E-1,-5.080536045E-2,-1.949249509E-2,-2.758131623E-2,6.100713909E-2
1.005147667E0,-5.342034493E-2,-3.072262321E-2,-1.770010650E-2,6.411635204E-2
1.015146667E0,-5.253136715E-2,-3.043555918E-2,-9.467226863E-3,6.144506637E-2
1.025144667E0,-5.054704143E-2,-3.000985219E-2,-2.533715487E-2,6.401223353E-2
1.035142667E0,-5.041430963E-2,-1.514441416E-2,-3.057275176E-2,6.087404247E-2
1.045141667E0,-5.921966823E-2,-2.472260108E-2,-1.290889800E-2,6.545850408E-2
1.055139667E0,-5.833070872E-2,-1.512751206E-2,-1.156169951E-2,6.135948253E-2
1.065137667E0,-6.288859505E-2,-6.242715837E-3,-1.575181425E-2,6.513114877E-2
1.075135667E0,-6.313352030E-2,-1.186271920E-2,-4.463705957E-2,7.822424547E-2
1.085134667E0,-5.500682244E-2,2.488888356E-2,-2.607448876E-2,6.576538606E-2
1.095132667E0,-6.925180921E-2,4.393392275E-3,4.461425543E-3,6.953430299E-2
1.105130667E0,-5.855723351E-2,2.603344861E-3,-2.757020652E-2,6.477532932E-2
1.115129667E0,-5.075646311E-2,2.055960281E-2,-2.891740501E-2,6.192844361E-2
1.125127667E0,-5.909990994E-2,1.401392582E-2,-2.711704731E-2,6.651709349E-2
1.135125667E0,-4.494818626E-2,3.621748701E-2,-4.327758193E-2,7.214565068E-2
1.145124667E0,-3.943349445E-2,3.921545726E-2,-2.710769176E-2,6.186824327E-2
1.155122667E0,-5.150556453E-2,1.526390750E-2,-5.847215652E-3,5.403702416E-2
1.165120667E0,-5.129177570E-2,1.709192984E-2,-1.857309580E-2,5.716590074E-2
1.175118667E0,-5.139797576E-2,1.614820065E-2,-1.587402105E-2,5.616494316E-2
1.185117667E0,-6.464111522E-2,1.134038697E-2,-2.829643071E-2,7.146863748E-2
1.195115667E0,-5.630991099E-2,5.227655189E-3,-2.964129031E-2,6.384935823E-2
1.205113667E0,-6.812097598E-2,-1.170811059E-2,-8.831634521E-3,6.968174072E-2
1.215112667E0,-5.920859506E-2,-2.698809793E-3,-5.237351060E-3,5.950101806E-2
1.225110667E0,-5.787771396E-2,-8.990996273E-3,-2.693870723E-2,6.446985136E-2
1.235108667E0,-5.610893123E-2,-8.182792298E-3,-4.056096554E-2,6.971629780E-2
1.245106667E0,-5.090967843E-2,-9.334195855E-3,-2.304446161E-2,5.665659521E-2
1.255105667E0,-4.392187200E-2,-1.650958370E-2,-8.522316813E-3,4.768990541E-2
1.265103667E0,-4.527358381E-2,-1.667219797E-2,-9.419864416E-3,4.915682477E-2
1.275101667E0,-4.056525959E-2,-4.730452280E-3,-3.276955068E-2,5.236182690E-2
1.285100667E0,-4.500302218E-2,-1.669912028E-2,-2.782865345E-2,5.548483195E-2
1.295098333E0,-4.535586510E-2,-2.300030143E-2,-2.214165151E-2,5.546549464E-2
1.305096333E0,-5.444373557E-2,-9.903266982E-3,-1.540507436E-2,5.744137321E-2
1.315095333E0,-6.060237028E-2,-1.019442406E-2,-1.854619861E-2,6.419139388E-2
1.325093333E0,-5.297787515E-2,1.101665678E-2,-2.707436264E-2,6.050655415E-2
1.335091333E0,-6.022697903E-2,2.773542234E-3,-1.988754988E-2,6.348618889E-2
1.345089333E0,-5.514074195E-2,4.160600002E-3,-1.449934065E-2,5.716679888E-2
1.355088333E0,-5.221170718E-2,5.153518890E-3,-1.060626447E-2,5.352675938E-2
1.365086333E0,-5.573114628E-2,1.025623096E-2,-1.764338851E-2,5.935014825E-2
1.375084333E0,-5.311314683E-2,2.949467366E-2,-2.333331406E-2,6.507984086E-2
1.385083333E0,-5.256378265E-2,1.946218778E-2,-1.599915147E-2,5.828980054E-2
1.395081333E0,-4.926803609E-2,3.350450001E-3,-3.097153187E-2,5.829065690E-2
1.405079333E0,-5.145670373E-2,2.770166838E-2,-3.291573107E-2,6.707175368E-2
1.415077333E0,-5.318927027E-2,7.583498375E-3,-2.169083118E-2,5.794048737E-2
1.425076333E0,-5.166725831E-2,2.309233340E-2,-1.959343493E-2,5.988876469E-2
1.435074333E0,-5.274747659E-2,9.182937979E-3,-5.070705414E-3,5.378043036E-2
1.445072333E0,-5.349010952E-2,-1.407912456E-2,-2.272988141E-2,5.980017620E-2
1.455071333E0,-5.391074359E-2,-8.408426300E-3,-7.307850122E-3,5.504974642E-2
1.465069333E0,-5.658639293E-2,-2.358258132E-2,-1.673823953E-2,6.354782978E-2
1.475067333E0,-5.671868619E-2,-1.457811590E-2,-2.706266820E-2,6.451293542E-2
1.485065333E0,-5.252283387E-2,-9.236373764E-3,-3.035582006E-2,6.136313624E-2
1.495064333E0,-6.804247711E-2,-3.235484376E-2,-1.314044774E-2,7.648062482E-2
1.505062333E0,-6.465238938E-2,-2.436789436E-2,-1.762935519E-2,7.130581949E-2
1.515060333E0,-5.743135214E-2,-1.511894680E-2,-7.899588346E-3,5.991115303E-2
1.525059333E0,-5.404382257E-2,-1.014687432E-2,-2.676212132E-2,6.115476231E-2
1.535057333E0,-5.281287404E-2,8.764839219E-4,-2.841162086E-2,5.997656282E-2
1.545055333E0,-4.742060831E-2,-2.396328303E-3,-1.194527686E-2,4.896065891E-2
1.555054333E0,-4.508945134E-2,1.586041257E-3,-1.164414525E-2,4.659571082E-2
1.565052333E0,-5.187298894E-2,1.933100915E-2,-3.155391455E-2,6.371926255E-2
1.575050333E0,-4.785364944E-2,1.594611768E-2,-1.928060889E-2,5.399992883E-2
1.585048333E0,-4.419649014E-2,2.415595792E-2,-2.915831029E-2,5.819834279E-2
1.595047333E0,-4.596105192E-2,8.122634499E-3,-2.885776341E-2,5.487409219E-2
1.605045333E0,-5.267014716E-2,2.509711753E-3,-2.615868866E-2,5.886187261E-2
1.615043333E0,-5.904622519E-2,2.631279249E-2,-1.223237514E-2,6.579096260E-2
1.625042333E0,-5.515760751E-2,2.110089509E-2,-7.438827753E-3,5.952264778E-2
1.635040333E0,-5.113649558E-2,1.504253557E-2,-1.746797204E-2,5.609232661E-2
1.645038333E0,-5.347952971E-2,1.028477268E-3,-3.917459071E-2,6.630057632E-2
1.655037333E0,-5.963202484E-2,-1.198313529E-2,-2.121194422E-2,6.441677185E-2
1.665035333E0,-5.757959733E-2,-3.397364770E-3,-1.387836635E-2,5.932588953E-2
1.675033333E0,-5.831130328E-2,3.771924614E-3,-3.453482509E-2,6.787554529E-2
1.685031333E0,-5.333565166E-2,1.870423788E-5,-3.677898645E-2,6.478723588E-2
1.695030333E0,-6.109772081E-2,-1.059358104E-2,-1.178038538E-2,6.311840402E-2
1.705028333E0,-5.829325000E-2,-2.637289319E-2,-1.028466761E-2,6.480283079E-2
1.715026333E0,-5.851462193E-2,-5.913921876E-3,-2.285968959E-2,6.309913517E-2
1.725025333E0,-5.089158861E-2,-4.459721628E-3,-1.192948937E-2,5.246099146E-2
1.735023333E0,-5.009256659E-2,-2.328433221E-2,-1.731360555E-2,5.788943160E-2
1.745021333E0,-4.404142929E-2,-1.179276503E-2,-2.479628742E-2,5.189964037E-2
1.755019333E0,-3.931883421E-2,-1.965603440E-2,-2.464542925E-2,5.039571008E-2
1.765018333E0,-4.458370373E-2,8.315992327E-3,-3.422258377E-2,5.681590980E-2
1.775016333E0,-6.557615809E-2,1.753144631E-2,-1.284633279E-3,6.789134262E-2
1.785014333E0,-6.791038485E-2,-1.382485748E-2,-3.977276087E-3,6.941733055E-2
1.795013333E0,-6.291852549E-2,5.872239908E-3,-2.852447212E-2,6.933159136E-2
1.805011333E0,-5.749115819E-2,5.786199044E-3,-2.897295356E-2,6.463857523E-2
1.815009333E0,-6.378574066E-2,3.352191603E-2,-3.989672184E-2,8.236557521E-2
1.825007333E0,-5.580633782E-2,4.625815443E-2,-2.836952090E-2,7.783953949E-2
1.835006333E0,-5.022242960E-2,1.589169518E-2,-2.326022387E-3,5.272806454E-2
1.845004333E0,-4.468359975E-2,1.540072778E-2,-1.873447895E-3,4.730027812E-2
1.855002333E0,-4.229632778E-2,2.052693377E-2,-2.028165221E-2,5.120234145E-2
1.865001333E0,-4.233066190E-2,1.521697902E-2,-3.479853451E-2,5.687160444E-2
1.874999333E0,-4.285442624E-2,2.488945229E-2,-2.297078669E-2,5.462274000E-2
1.884997333E0,-4.088696608E-2,-2.394848226E-3,-6.354169250E-3,4.144701148E-2
1.894995333E0,-5.202655144E-2,-1.079419764E-2,5.174201131E-3,5.338585126E-2
1.904994333E0,-5.445870079E-2,-9.274497153E-3,-2.536288261E-2,6.078685881E-2
1.914992333E0,-6.355413610E-2,-1.121217991E-2,-3.015935361E-2,7.123501810E-2
1.924990333E0,-6.193847733E-2,-1.038994033E-2,-2.282869935E-2,6.682421229E-2
1.934989333E0,-5.852015851E-2,-2.413253936E-2,-2.297955751E-2,6.734276852E-2
1.944987333E0,-5.159062324E-2,-3.447934734E-2,-4.117609262E-3,6.218820230E-2
1.954985333E0,-4.494449520E-2,-2.495893594E-2,-2.372566223E-2,5.662034247E-2
1.964984333E0,-4.806151796E-2,-8.667467090E-3,-2.237846375E-2,5.371992306E-2
1.974982333E0,-4.169591010E-2,-1.959653213E-3,-2.028457582E-2,4.640962374E-2
1.984980333E0,-4.138012391E-2,-2.254869081E-3,-2.597216249E-2,4.890758953E-2
1.994978333E0,-5.152210118E-2,-7.308459969E-3,-1.893211484E-2,5.537477286E-2
2.004977333E0,-6.282639530E-2,3.991174644E-3,-2.117276788E-2,6.641815656E-2
2.014975333E0,-6.202653274E-2,2.063600262E-2,-3.254794121E-2,7.302399499E-2
2.024973333E0,-5.824645400E-2,3.255201599E-2,-5.140755057E-2,8.423193815E-2
2.034972333E0,-6.207351146E-2,2.700163104E-2,-2.385956347E-2,7.177386483E-2
2.044970333E0,-5.271169893E-2,1.821379582E-2,9.905183315E-4,5.577855044E-2
2.054968333E0,-4.919593262E-2,2.837047793E-2,-6.196294427E-3,5.712720778E-2
2.064966333E0,-4.791937580E-2,3.410864758E-2,-9.490615726E-3,5.957967945E-2
2.074965333E0,-4.608948966E-2,1.759040040E-2,-2.595871389E-2,5.574511701E-2
2.084963333E0,-5.572409308E-2,2.033081907E-2,-2.835080981E-2,6.574408848E-2
2.094961333E0,-5.969236080E-2,1.636639087E-2,-1.936773241E-2,6.485480511E-2
2.104960333E0,-6.372518543E-2,-2.989156027E-3,-2.430687547E-2,6.826901572E-2
2.114958333E0,-6.389747730E-2,1.536673398E-3,-2.370519698E-2,6.817026723E-2
2.124956333E0,-7.151195906E-2,-1.233284676E-2,-9.630364180E-3,7.320384766E-2
2.134954333E0,-5.188546909E-2,-1.774239375E-2,-2.729304850E-2,6.125197903E-2
2.144953333E0,-5.632588120E-2,-1.491186172E-2,-2.579440713E-2,6.372063992E-2
2.154951333E0,-4.213033995E-2,-1.280781882E-2,-1.411517859E-2,4.624115087E-2
2.164949333E0,-3.954517627E-2,-3.368469018E-3,-2.893260777E-2,4.911479759E-2
2.174948333E0,-3.978582574E-2,-6.021898936E-3,-1.875260532E-2,4.439409198E-2
2.184946333E0,-4.288031844E-2,-1.411250394E-2,-2.039801180E-2,4.953749452E-2
2.194944333E0,-4.261074353E-2,5.241350464E-3,-2.683521152E-2,5.062880401E-2
2.204942333E0,-5.659255078E-2,-8.845576476E-3,-2.099852085E-2,6.100736763E-2
2.214941333E0,-6.510978783E-2,6.705136949E-3,-2.174696445E-2,6.897226831E-2
2.224939333E0,-5.610101921E-2,9.736603063E-3,-1.950104892E-2,6.018651598E-2
2.234937333E0,-6.452148484E-2,-1.733173192E-2,-2.578855991E-2,7.161327223E-2
2.244936333E0,-5.055654315E-2,8.393853942E-3,-2.982898593E-2,5.929746404E-2
2.254934333E0,-4.944065686E-2,2.801281105E-2,-1.396081209E-2,5.851495884E-2
2.264932333E0,-4.426391585E-2,2.149413633E-3,-2.189197540E-2,4.942846156E-2
2.274930333E0,-4.417037867E-2,3.588931889E-3,-2.218842924E-2,4.956035892E-2
2.284929333E0,-3.467705861E-2,1.170991044E-2,-2.054419219E-2,4.197242224E-2
2.294927208E0,-4.657535674E-2,1.000048151E-2,-2.114470124E-2,5.211882459E-2
2.304925208E0,-5.813464427E-2,1.479474153E-2,-2.009746492E-2,6.326475589E-2
2.314924208E0,-5.352776924E-2,1.738625263E-2,-2.533364654E-2,6.171950670E-2
2.324922208E0,-6.474552456E-2,9.198058513E-4,-2.278952301E-2,6.864540300E-2
2.334920208E0,-5.968030091E-2,2.650915158E-3,-2.353855133E-2,6.420925998E-2
2.344919208E0,-6.117400870E-2,-1.452176564E-3,-3.521427155E-2,7.060037590E-2
2.354917208E0,-5.141500577E-2,1.432573545E-2,-3.371621490E-2,6.313091685E-2
2.364915208E0,-4.129994396E-2,1.575653313E-3,-1.829652250E-2,4.519879191E-2
2.374913208E0,-4.887503011E-2,-5.367714276E-3,-7.817727327E-4,4.917511661E-2
2.384912208E0,-5.206190882E-2,-1.576726825E-2,-6.766982675E-3,5.481643141E-2
2.394910208E0,-4.770098230E-2,9.061357006E-5,-2.682117820E-2,5.472446914E-2
2.404908208E0,-5.559423007E-2,-6.107661144E-3,-2.876654685E-2,6.289305335E-2
2.414906208E0,-6.609221142E-2,-1.217784529E-2,-3.849339008E-2,7.744818530E-2
2.424905208E0,-5.177638197E-2,3.103457673E-3,-1.019988298E-2,5.286267864E-2
2.434903208E0,-5.682428325E-2,-9.261656119E-3,-1.409120500E-2,5.927342996E-2
2.444901208E0,-4.638236208E-2,-1.886971865E-3,-4.597607195E-2,6.533516180E-2
2.454900208E0,-4.017885000E-2,2.139584829E-2,-3.924241841E-2,6.010066317E-2
2.464898208E0,-3.826613439E-2,1.117428036E-3,-6.158287525E-3,3.877460757E-2
2.474896208E0,-4.341009445E-2,-2.819102551E-3,1.524953842E-2,4.609698539E-2
2.484895208E0,-4.204668822E-2,-2.405055729E-3,-1.664702296E-3,4.214830384E-2
2.494893208E0,-3.746283660E-2,1.528872390E-2,-4.597373307E-2,6.124372079E-2
2.504891208E0,-4.742186911E-2,3.331150991E-2,-4.762264788E-2,7.500937911E-2
2.514889208E0,-6.162577920E-2,2.285118144E-2,-2.396773696E-2,6.995974249E-2
2.524888208E0,-7.207698282E-2,1.446941479E-2,-1.752644420E-2,7.557533766E-2
2.534886208E0,-6.760009870E-2,1.473159617E-2,-1.048698127E-2,6.997692510E-2
2.544884208E0,-4.509182677E-2,1.268679516E-2,-1.512967050E-2,4.922534451E-2
2.554883208E0,-2.655708505E-2,3.480700841E-2,-2.815258920E-2,5.205165587E-2
2.564881208E0,-5.075951463E-2,2.933449878E-2,-2.800114632E-2,6.497003416E-2
2.574879208E0,-9.104856636E-2,3.051940277E-2,-3.204332650E-2,1.012326536E-1
2.584877208E0,-7.570930973E-2,-6.322635398E-3,9.568383694E-3,7.657303223E-2
2.594876208E0,-4.828979691E-2,-1.166102909E-2,1.435900748E-2,5.171136414E-2
2.604874208E0,-5.892590046E-2,1.112846194E-3,-5.539242804E-2,8.088152605E-2
2.614872208E0,-4.998938151E-2,-5.344709137E-3,-7.005958378E-2,8.623137166E-2
2.624871208E0,-4.665296026E-2,-1.732632553E-2,1.193416715E-3,4.978076436E-2
2.634869208E0,-5.154726248E-2,-3.485257329E-2,1.242124021E-2,6.345162995E-2
2.644867208E0,-4.452546911E-2,-2.318051215E-2,-1.886428714E-2,5.362569228E-2
2.654865208E0,-5.087401042E-2,-4.116839531E-3,-4.820152223E-2,7.020327663E-2
2.664864208E0,-5.449482562E-2,-5.226188817E-3,-3.652638674E-2,6.581167068E-2
2.674862208E0,-4.651299253E-2,1.025485823E-2,-1.991269290E-2,5.162495453E-2
2.684860208E0,-7.341312641E-2,-9.358856943E-3,-2.440627813E-2,7.792779828E-2
2.694859208E0,-6.745190833E-2,-2.981878985E-3,-2.800290048E-2,7.309455503E-2
2.704857208E0,-3.958711177E-2,1.565358331E-2,-1.198971570E-2,4.422586767E-2
2.714855208E0,-6.037595512E-2,-2.300947881E-2,-3.010497451E-2,7.128114451E-2
2.724853208E0,-1.913422750E-2,-3.422589339E-2,-3.908863664E-2,5.536652377E-2
2.734852208E0,1.905803097E-2,3.633860660E-2,1.719783068E-2,4.449121548E-2
2.744850208E0,-5.108058158E-2,5.273206369E-2,8.966705203E-3,7.396146401E-2
2.754848208E0,-4.411144970E-2,2.653209049E-2,-4.521417975E-2,6.851345759E-2
2.764847208E0,-3.235953296E-2,4.368971013E-2,-3.562825441E-2,6.500232809E-2
2.774845208E0,-9.362285787E-2,9.648031450E-3,-2.859054565E-2,9.836535634E-2
2.784843208E0,-8.795562683E-2,1.120485947E-2,-2.814206421E-2,9.302535646E-2
2.794841208E0,-8.118729198E-2,4.973536567E-2,-1.242299438E-2,9.601725765E-2
2.804840208E0,-7.706659466E-2,-1.954961736E-3,-1.422101319E-2,7.839208572E-2
2.814838208E0,-4.795847906E-2,-1.803754795E-2,-3.293385744E-2,6.090983349E-2
2.824836208E0,-4.464535531E-2,-1.488228988E-2,-1.870992064E-2,5.064337502E-2
2.834835208E0,-3.449005734E-2,-2.623878181E-2,-2.110610962E-2,4.820275500E-2
2.844833208E0,1.170839153E-2,2.437234829E-2,-2.395078003E-2,3.612115250E-2
2.854831208E0,-3.562708497E-2,1.107928823E-2,-8.679606915E-3,3.830633613E-2
2.864829208E0,-7.850853631E-2,-2.900869466E-2,-1.227096677E-2,8.459120088E-2
2.874828208E0,-4.140466394E-2,-2.909361862E-2,-1.780594110E-2,5.364546932E-2
2.884826208E0,-7.133738313E-2,-4.452419460E-2,-1.630963862E-2,8.565880252E-2
2.894824208E0,-9.037832927E-2,-1.518237310E-2,-3.277656734E-2,9.732959581E-2
2.904822208E0,-4.995395103E-2,1.146591252E-2,-1.885493159E-2,5.461110528E-2
2.914821208E0,-3.873656116E-2,-2.811145998E-2,-5.233842731E-3,4.814736195E-2
2.924819208E0,-3.662582595E-2,3.306027150E-3,-2.319999754E-2,4.348126985E-2
2.934817208E0,-1.896431107E-2,1.619672569E-2,-3.667256713E-2,4.434925250E-2
2.944816208E0,-4.809345838E-2,2.451273172E-2,-1.451746702E-2,5.589822541E-2
2.954814208E0,-6.477101477E-2,3.985429298E-2,-1.227389038E-2,7.703439107E-2
2.964812208E0,-6.257538529E-2,8.971896891E-3,-2.859054565E-2,6.938006255E-2
2.974810208E0,-8.081254028E-2,1.912251937E-3,-2.065645874E-2,8.343268341E-2
2.984809208E0,-8.355386116E-2,8.559088034E-3,-1.961039186E-2,8.625006186E-2
2.994807208E0,-5.901788447E-2,1.181058533E-2,-2.110727906E-2,6.378179868E-2
3.004805208E0,-4.130904369E-2,2.977216287E-2,-3.068969607E-2,5.945314304E-2
3.014804208E0,-4.257299244E-2,3.673709435E-2,-7.635294199E-3,5.674831720E-2
3.024802208E0,-2.766337825E-2,1.517657385E-2,2.964538336E-4,3.155437806E-2
3.034800208E0,-3.306443308E-2,7.409584823E-3,-3.158373535E-2,4.632160425E-2
3.044798208E0,-3.410260621E-2,2.876866646E-3,-3.651937008E-2,5.004926077E-2
3.054797208E0,-4.746415179E-2,-5.748221835E-3,-2.084532380E-3,4.785637925E-2
3.064795208E0,-7.326239616E-2,-5.313835382E-3,-2.830637097E-3,7.350937385E-2
3.074793208E0,-7.883068135E-2,-9.130160005E-3,-1.465663075E-2,8.069977056E-2
3.084792208E0,-6.248535644E-2,-1.850932003E-2,-3.082242787E-2,7.209047619E-2
3.094790208E0,-7.619976321E-2,-2.076485378E-2,-2.872970939E-2,8.404153299E-2
3.104788208E0,-5.852194922E-2,2.757112929E-3,-2.065002680E-2,6.211959288E-2
3.114786208E0,-3.487511477E-2,-1.596597766E-2,-4.188360572E-3,3.858404381E-2
3.124785208E0,-2.415574322E-2,-9.775852498E-3,-2.634463012E-2,3.705545518E-2
3.134783208E0,-3.384479882E-2,-9.674805303E-3,-1.332112670E-2,3.763674643E-2
3.144781208E0,-3.133678185E-2,-2.391944718E-2,-1.795913815E-2,4.332048584E-2
3.154780208E0,-2.910667207E-2,6.144329582E-3,-2.409403682E-2,3.828150670E-2
3.164778208E0,-4.541744359E-2,2.051139982E-2,-1.615702629E-2,5.238808265E-2
3.174776208E0,-5.246642651E-2,9.667114844E-3,-1.825325310E-2,5.638581620E-2
3.184774208E0,-5.177473744E-2,2.954960551E-2,-3.171939075E-2,6.752719728E-2
3.194773208E0,-4.234116862E-2,3.619725930E-2,-3.545751572E-2,6.603220094E-2
3.204771208E0,-4.203484761E-2,1.116107616E-2,-1.644353986E-2,4.649610777E-2
3.214769208E0,-6.135379231E-2,2.941490485E-2,-1.300069928E-2,6.927151391E-2
3.224768208E0,-7.502295624E-2,1.019462506E-2,-1.868945539E-2,7.798506323E-2
3.234766208E0,-5.732136967E-2,4.251711499E-3,-3.006462872E-2,6.486677402E-2
3.244764208E0,-6.258896179E-2,1.250483255E-2,-6.115018129E-3,6.411819104E-2
3.254762208E0,-7.763373803E-2,-1.064999525E-3,-2.820112109E-3,7.769224245E-2
3.264761208E0,-4.942640428E-2,3.346886854E-3,-3.155859232E-2,5.873768671E-2
3.274759208E0,-4.815193053E-2,1.508145381E-3,-3.440092385E-2,5.919718303E-2
3.284757208E0,-5.320460094E-2,-1.609825949E-2,-1.748551369E-2,5.827200622E-2
3.294756917E0,-3.859187912E-2,-1.217652967E-3,-2.167855203E-2,4.428064398E-2
3.304754917E0,-3.838894419E-2,-1.387815850E-2,-8.055709004E-3,4.160779695E-2
3.314752917E0,-3.941628171E-2,-1.971649369E-2,-1.314454079E-2,4.599089410E-2
3.324750917E0,-2.691283330E-2,1.885048680E-3,-1.987877905E-2,3.351148850E-2
3.334749917E0,-5.483264850E-2,-2.360573036E-2,-1.793048680E-2,6.233259344E-2
3.344747917E0,-5.890095843E-2,-1.671917669E-2,-4.459086657E-3,6.139004176E-2
3.354745917E0,-3.795314390E-2,-3.653810858E-3,-2.331694186E-2,4.469307825E-2
3.364744917E0,-5.415948780E-2,2.619749042E-3,-3.185095310E-2,6.288558195E-2
3.374742917E0,-6.516272340E-2,1.009696970E-2,-3.799345315E-2,7.610277130E-2
3.384740917E0,-4.457652261E-2,5.823966118E-3,-2.602010965E-2,5.194257460E-2
3.394738917E0,-6.265808685E-2,-5.225263769E-4,-2.223111391E-3,6.269968984E-2
3.404737917E0,-6.362273125E-2,9.814128920E-3,-1.779249251E-2,6.678878534E-2
3.414735917E0,-4.392861458E-2,2.091383672E-2,-3.021490216E-2,5.727173873E-2
3.424733917E0,-4.700408556E-2,2.852839386E-2,-2.257960796E-2,5.943981840E-2
3.434732917E0,-4.992551895E-2,1.373904273E-2,-2.332980573E-2,5.679435335E-2
3.444730917E0,-4.333563382E-2,6.259266199E-3,-1.614474714E-2,4.666699510E-2
3.454728917E0,-5.025499128E-2,8.437644106E-3,-7.915960550E-3,5.156956872E-2
3.464726917E0,-5.122305265E-2,1.264663210E-2,-2.573067248E-2,5.870098749E-2
3.474725917E0,-4.314152453E-2,2.643119175E-2,-3.650767565E-2,6.239077991E-2
3.484723917E0,-5.293151770E-2,-1.920586503E-3,-2.094180286E-2,5.695606487E-2
3.494721917E0,-5.299134202E-2,-6.298645826E-3,-7.621260881E-3,5.390583351E-2
3.504720917E0,-4.653597940E-2,-6.538925276E-3,-6.726636887E-3,4.747212409E-2
3.514718917E0,-5.282899043E-2,-1.638826083E-3,-3.097620964E-2,6.126266028E-2
3.524716917E0,-4.626412041E-2,1.280927834E-2,-4.774193108E-2,6.770331183E-2
3.534714917E0,-4.259385969E-2,-1.378757919E-2,-2.274157584E-2,5.021467410E-2
3.544713917E0,-6.695891496E-2,-3.097196356E-2,4.505864382E-3,7.391252690E-2
3.554711917E0,-6.587151557E-2,-1.919868849E-2,1.213297248E-3,6.862301577E-2
3.564709917E0,-6.175609902E-2,-2.088206990E-2,-1.554657698E-2,6.701919624E-2
3.574707917E0,-6.938278684E-2,-1.273851333E-2,-4.563342512E-2,8.401577423E-2
3.584706917E0,-5.987901488E-2,1.045740030E-2,-2.976466656E-2,6.768152643E-2
3.594704917E0,-5.790835703E-2,-1.194762488E-2,-7.913621664E-3,5.965525092E-2
3.604702917E0,-4.489753475E-2,-3.308313503E-3,-8.816431761E-3,4.587442680E-2
3.614701917E0,-3.580562605E-2,1.080450336E-2,-2.617798448E-2,4.565158289E-2
3.624699917E0,-3.745373687E-2,1.266606039E-2,-3.635681748E-2,5.371247219E-2
3.634697917E0,-3.977689046E-2,2.067345677E-2,-2.917000473E-2,5.348347414E-2
3.644695917E0,-5.157456167E-2,-8.048989275E-4,-5.519186854E-3,5.187528021E-2
3.654694917E0,-5.154373588E-2,7.763731945E-3,-7.161085010E-3,5.261476390E-2
3.664692917E0,-6.324337486E-2,3.785783657E-2,-1.119917214E-2,7.455442113E-2
3.674690917E0,-6.379568093E-2,1.974361473E-2,-1.089804053E-2,6.766436665E-2
3.684689917E0,-6.186187880E-2,2.762566142E-2,-2.751348853E-2,7.312360268E-2
3.694687917E0,-6.622470567E-2,1.160513793E-2,-4.338107765E-2,8.001442848E-2
3.704685917E0,-6.682166984E-2,9.254660017E-3,-2.676562965E-2,7.257536237E-2
3.714683917E0,-6.032108266E-2,1.762310141E-2,-4.762557149E-3,6.302292176E-2
3.724682917E0,-5.231516635E-2,1.435959677E-3,-3.350513041E-2,6.214122926E-2
3.734680917E0,-5.306074116E-2,-1.989953895E-2,-1.793691874E-2,5.944044883E-2
3.744678917E0,-4.166539494E-2,-1.568159969E-2,-2.967461944E-3,4.461752497E-2
3.754677917E0,-3.754376572E-2,-3.928735061E-4,-1.659147441E-2,4.104833391E-2
3.764675917E0,-4.216328535E-2,4.569082833E-3,-1.868302345E-2,4.634300934E-2
3.774673917E0,-3.765824324E-2,-2.548595965E-2,-2.781345069E-2,5.330352205E-2
3.784671917E0,-3.837717667E-2,-2.514812763E-2,-2.481558323E-2,5.216367686E-2
3.794670917E0,-4.991484778E-2,-1.981591692E-2,-2.421799779E-2,5.891242661E-2
3.804668917E0,-4.883077400E-2,-1.849532783E-2,-4.067907929E-2,6.619145816E-2
3.814666917E0,-6.205624390E-2,7.690002210E-5,-1.657744110E-2,6.423235068E-2
3.824665917E0,-7.770549433E-2,-1.671156389E-2,-5.653088093E-3,7.968298201E-2
3.834663917E0,-6.771152470E-2,-1.702255354E-2,-1.313869357E-2,7.104395242E-2
3.844661917E0,-5.789951311E-2,2.340855128E-3,-1.777787447E-2,6.061258980E-2
3.854659917E0,-5.911834694E-2,1.190423900E-2,-3.110134006E-2,6.785265805E-2
3.864658917E0,-5.025961423E-2,2.985265116E-2,-4.502531469E-2,7.378677773E-2
3.874656917E0,-4.573067162E-2,2.650437103E-2,-3.230060399E-2,6.194437043E-2
3.884654917E0,-4.320469273E-2,1.300463016E-2,-1.089570165E-2,4.641640006E-2
3.894652917E0,-4.781173222E-2,1.376650637E-2,-2.152243137E-2,5.420971765E-2
3.904651917E0,-5.355568970E-2,2.837844247E-2,-2.107102633E-2,6.416802979E-2
3.914649917E0,-3.959125964E-2,3.282954631E-2,-2.630896211E-2,5.777030758E-2
3.924647917E0,-4.237199441E-2,2.723517020E-2,-2.421156585E-2,5.588685290E-2
3.934646917E0,-4.639177244E-2,-8.204678243E-3,-8.041675687E-3,4.779311502E-2
3.944644917E0,-5.364727171E-2,8.498343229E-3,-9.686497450E-3,5.517318037E-2
3.954642917E0,-5.134525945E-2,9.399817146E-3,-2.689953089E-2,5.872203158E-2
3.964640917E0,-5.747909831E-2,1.117174504E-3,-3.438396692E-2,6.698770038E-2
3.974639917E0,-7.760236407E-2,-9.640066903E-3,-1.911337852E-2,8.050080147E-2
3.984637917E0,-6.954285437E-2,-3.953014253E-2,-3.246958852E-3,8.005862542E-2
3.994635917E0,-7.633598506E-2,-3.811697558E-2,-1.357723475E-2,8.639691977E-2
4.004634917E0,-5.673032580E-2,-1.585654108E-2,-3.513591886E-2,6.858784553E-2
4.014632917E0,-4.868634777E-2,-1.908860552E-2,-3.199362516E-2,6.130519856E-2
4.024630917E0,-3.924673073E-2,-8.277558305E-3,-1.867483735E-2,4.424447304E-2
4.034628917E0,-3.607377570E-2,-9.463538092E-3,-7.302002907E-3,3.800256693E-2
4.044627917E0,-3.735014979E-2,5.413544113E-3,-7.449937463E-3,3.846871089E-2
4.054625917E0,-3.050786594E-2,8.000724621E-3,-1.912331879E-2,3.688418089E-2
4.064623917E0,-4.091231011E-2,8.442317310E-3,-3.783265471E-2,5.635955645E-2
4.074621917E0,-5.579632446E-2,1.005086350E-2,-1.852047086E-2,5.964274911E-2
4.084620917E0,-5.069294773E-2,1.079303048E-2,3.790165186E-3,5.196758421E-2
4.094618917E0,-5.697899692E-2,9.529134259E-3,-1.177746177E-2,5.895862189E-2
4.104616917E0,-5.578333268E-2,3.694527350E-2,-4.336178184E-2,7.973065636E-2
4.114615917E0,-6.694643481E-2,1.525362690E-2,-4.171286702E-2,8.033966357E-2
4.124613917E0,-6.593784492E-2,-7.227007798E-3,-3.392671466E-2,7.450537566E-2
4.134611917E0,-6.702266788E-2,1.633939547E-2,-2.105465412E-2,7.212705674E-2
4.144609917E0,-5.758579172E-2,-1.181050767E-2,-1.462096274E-2,6.057544099E-2
4.154608917E0,-5.338169849E-2,9.222075494E-3,-2.569792807E-2,5.995861837E-2
4.164606917E0,-4.569231754E-2,1.022429511E-2,-1.072730184E-2,4.803539422E-2
4.174604917E0,-4.399516320E-2,-1.337557204E-2,-1.910870075E-2,4.979581063E-2
4.184603917E0,-4.082405370E-2,8.274906501E-4,-1.880815387E-2,4.495592011E-2
4.194601917E0,-4.724584965E-2,6.287739398E-3,-4.733321071E-3,4.789687155E-2
4.204599917E0,-4.474927129E-2,1.368287292E-2,-3.017747998E-2,5.568122296E-2
4.214597917E0,-3.574832333E-2,1.237661179E-2,-3.302098095E-2,5.021462261E-2
4.224596917E0,-3.972000802E-2,-8.167662628E-3,-1.685284495E-2,4.391364404E-2
4.234594917E0,-4.619907014E-2,-5.688244477E-5,-2.463782787E-2,5.235818828E-2
4.244592917E0,-5.203133885E-2,7.157053628E-3,-1.610206246E-2,5.493414289E-2
4.254591917E0,-6.235885559E-2,1.692223039E-3,-8.169144988E-3,6.291442934E-2
4.264589917E0,-6.347669704E-2,6.961909658E-4,-1.685226023E-2,6.567933026E-2
4.274587917E0,-6.386104183E-2,-1.294903137E-2,-1.655171335E-2,6.722997317E-2
4.284585917E0,-6.373910911E-2,-1.279406188E-2,-1.984603465E-2,6.797225273E-2
4.294584792E0,-6.410107004E-2,1.137872734E-3,-3.466346383E-2,7.288208051E-2
4.304582792E0,-5.524518784E-2,-4.361981764E-3,-2.163996041E-2,5.949239910E-2
4.314580792E0,-4.651589787E-2,-5.073613033E-3,-1.939346015E-2,5.065152120E-2
4.324578792E0,-4.709968753E-2,-1.696921368E-3,-1.984603465E-2,5.113829484E-2
4.334577792E0,-4.140493803E-2,-5.914675619E-3,-2.269421339E-2,4.758549781E-2
4.344575792E0,-3.875633206E-2,1.956444325E-2,-3.002720654E-2,5.278687192E-2
4.354573792E0,-3.310543668E-2,1.512084258E-2,-7.424794436E-3,3.714481646E-2
4.364572792E0,-3.754462453E-2,1.389394370E-2,-1.864618599E-2,4.416243601E-2
4.374570792E0,-4.431844113E-2,9.301414902E-3,-1.265980661E-2,4.702032802E-2
4.384568792E0,-4.986463482E-2,1.651345520E-2,-2.448229194E-2,5.795307262E-2
4.394566792E0,-5.785869224E-2,2.528117920E-2,-3.181470037E-2,7.070319263E-2
4.404565792E0,-6.148584802E-2,1.737265100E-2,-2.896827579E-2,7.015325731E-2
4.414563792E0,-6.031867068E-2,-1.573405790E-3,-3.390800357E-2,6.921394617E-2
4.424561792E0,-5.749769976E-2,-6.220763654E-3,-1.276447177E-3,5.784732229E-2
4.434560792E0,-6.057898141E-2,-4.019656980E-3,-3.973767757E-3,6.084210271E-2
4.444558792E0,-5.562366715E-2,3.065660906E-3,-3.376123846E-2,6.513994048E-2
4.454556792E0,-5.499448847E-2,-5.107314466E-3,-1.624707341E-2,5.757122387E-2
4.464554792E0,-5.317399442E-2,-2.418823181E-2,-1.878768861E-2,6.136384509E-2
4.474553792E0,-4.591151504E-2,-1.081408274E-2,-2.177970886E-2,5.195351111E-2
4.484551792E0,-5.242889469E-2,-1.762475965E-2,-2.013196349E-2,5.886184762E-2
4.494549792E0,-4.011908049E-2,-1.114263459E-2,-3.180651426E-2,5.239611889E-2
4.504547792E0,-4.098954817E-2,1.507115952E-2,-2.192296565E-2,4.886613686E-2
4.514546792E0,-4.833306631E-2,-2.223948731E-2,1.520334542E-2,5.533373118E-2
4.524544792E0,-3.357248303E-2,-1.511667872E-2,-8.594822288E-3,3.780868369E-2
4.534542792E0,-7.006228812E-2,-2.682327954E-3,-8.613299489E-2,1.110621984E-1
4.544541792E0,-3.710102186E-2,3.547277329E-3,1.311121166E-2,3.950914920E-2
4.554539792E0,-7.441659998E-2,-5.062181270E-5,8.170314431E-3,7.486378933E-2
4.564537792E0,-3.613628609E-2,5.646754371E-3,-7.759781420E-2,8.578541704E-2
4.574535792E0,-6.100398263E-2,-7.597965666E-3,-1.138242388E-1,1.293644940E-1
4.584534792E0,-9.044001739E-2,5.377270819E-3,6.026432812E-2,1.088122283E-1
4.594532792E0,-3.417401534E-2,9.723510782E-3,6.535725296E-2,7.439072859E-2
4.604530792E0,-5.097458253E-2,-1.422540774E-3,-9.630715013E-2,1.089747625E-1
4.614529792E0,-2.922867788E-2,4.921103488E-3,-7.490107834E-2,8.055249473E-2
4.624527792E0,-7.193105824E-2,-1.485983977E-2,-8.894199729E-3,7.398647692E-2
4.634525792E0,-5.859341316E-2,-7.608253111E-3,7.148922801E-2,9.274579938E-2
4.644523792E0,-3.671130493E-2,2.534848613E-2,-1.697154343E-2,4.773152989E-2
4.654522792E0,-7.246989744E-2,-1.003777578E-2,-1.043897563E-1,1.274749552E-1
4.664520792E0,-6.244987115E-2,9.182976808E-3,-3.463598192E-2,7.199975495E-2
4.674518792E0,-5.650575617E-2,-1.102616308E-2,-1.008761644E-2,5.844858218E-2
4.684516792E0,-3.158978356E-2,3.794020694E-3,-4.850265384E-3,3.218437653E-2
4.694515792E0,-4.681949627E-2,1.984454315E-2,-2.925361991E-2,5.866553845E-2
4.704513792E0,-5.928051582E-2,-2.253373473E-2,-3.254794121E-2,7.128335874E-2
4.714511792E0,-2.364595737E-2,1.922052418E-2,-2.326197803E-2,3.833639879E-2
4.724510792E0,-3.177117515E-2,-1.262036074E-2,-1.293053269E-2,3.654968880E-2
4.734508792E0,-5.298821742E-2,-2.566714339E-2,-3.179131150E-2,6.691218814E-2
4.744506792E0,-7.057412049E-2,3.484581930E-3,-3.987625659E-2,8.113547087E-2
4.754504792E0,-6.676657811E-2,5.362177694E-3,-2.751114964E-3,6.703803052E-2
4.764503792E0,-4.868258363E-2,5.016835656E-3,8.328189254E-3,4.964394550E-2
4.774501792E0,-7.112838171E-2,-1.927037855E-2,-2.924017131E-2,7.928166114E-2
4.784499792E0,-5.915253488E-2,-2.175953140E-2,-3.837118328E-2,7.378920853E-2
4.794498792E0,-4.039620196E-2,-2.062673843E-4,7.876784205E-3,4.115749517E-2
4.804496792E0,-5.155890210E-2,-1.939779532E-3,-1.098633349E-2,5.275208672E-2
4.814494792E0,-3.800852800E-2,3.764928512E-3,-4.391902149E-2,5.820398041E-2
4.824492792E0,-2.851100525E-2,-3.499037800E-3,-2.684924483E-2,3.931924000E-2
4.834491792E0,-2.821277898E-2,-2.166724361E-2,2.473372221E-4,3.557374761E-2
4.844489792E0,-4.706591986E-2,1.810102450E-2,-1.322113931E-2,5.213105049E-2
4.854487792E0,-5.397383871E-2,1.747339899E-2,-1.665696323E-2,5.912655377E-2
4.864486792E0,-6.269916354E-2,2.186801095E-2,3.558030725E-3,6.649853077E-2
4.874484792E0,-6.544028342E-2,-6.978462304E-3,-2.189022124E-2,6.935640861E-2
4.884482792E0,-6.701751502E-2,-1.185760060E-2,-5.078189850E-2,8.491614232E-2
4.894480792E0,-5.348406130E-2,1.214568560E-2,-2.248897612E-2,5.927745389E-2
4.904479792E0,-5.195262071E-2,2.378821145E-2,-6.344228983E-4,5.714329615E-2
4.914477792E0,-5.147219885E-2,-6.364088960E-3,-4.359800935E-2,6.775452237E-2
4.924475792E0,-3.888265019E-2,-8.027516745E-3,-3.611708164E-2,5.367257305E-2
4.934473792E0,-3.767266028E-2,-2.135630878E-2,1.417832851E-2,4.556694258E-2
4.944472792E0,-3.210967412E-2,-4.132288971E-3,1.754164696E-3,3.242196907E-2
4.954470792E0,-4.394164290E-2,9.446681666E-3,-5.332368314E-2,6.973896299E-2
4.964468792E0,-4.729752442E-2,-4.124470605E-3,-2.637386620E-2,5.431066094E-2
4.974467792E0,-5.326475417E-2,5.005244007E-3,1.553956032E-2,5.571054155E-2
4.984465792E0,-5.530451881E-2,-3.766755767E-3,-1.304981589E-2,5.694801089E-2
4.994463792E0,-4.964763002E-2,8.663408300E-3,-5.181627095E-2,7.228324664E-2
5.004461792E0,-4.586762438E-2,4.010781089E-3,-4.552817523E-2,6.475137119E-2
5.014460792E0,-4.874248104E-2,-2.108044582E-3,-2.272812724E-3,4.884095605E-2
5.024458792E0,-4.667746374E-2,7.591003824E-3,-2.023896754E-2,5.143952534E-2
5.034456792E0,-4.368420096E-2,1.165030310E-3,-1.559861720E-2,4.640025396E-2
5.044454792E0,-5.515148621E-2,-1.945369790E-2,-3.415884912E-2,6.772709773E-2
5.054453792E0,-5.958139161E-2,-1.043012167E-2,-2.892149806E-2,6.704612378E-2
5.064451792E0,-5.379122285E-2,1.351186470E-3,-7.811880112E-4,5.381386081E-2
5.074449792E0,-5.367636161E-2,-3.499656783E-3,-1.425375760E-2,5.564682380E-2
5.084448792E0,-5.291914718E-2,-8.297817993E-3,-4.419150174E-2,6.944190916E-2
5.094446792E0,-4.638163118E-2,-1.434474347E-2,-4.688355982E-2,6.749144803E-2
5.104444792E0,-4.631796962E-2,-1.455377229E-2,2.365198731E-3,4.860823760E-2
5.114442792E0,-5.937688524E-2,-3.975071961E-3,-7.814803720E-3,6.002072021E-2
5.124441792E0,-5.200632373E-2,1.186045797E-2,-3.400916040E-2,6.326097661E-2
5.134439792E0,-3.309845656E-2,1.225582339E-2,-6.764059067E-3,3.593696605E-2
5.144437792E0,-3.508051649E-2,-1.010432897E-2,-7.659852505E-3,3.730165467E-2
5.154435792E0,-3.433901645E-2,6.982121381E-3,-3.954355001E-2,5.283569265E-2
5.164434792E0,-4.595438244E-2,5.203560549E-3,-3.355424702E-2,5.713816414E-2
5.174432792E0,-4.691001847E-2,6.018344925E-3,5.213962197E-3,4.758104361E-2
5.184430792E0,-5.525015797E-2,1.827608008E-2,4.915169477E-3,5.840166051E-2
5.194429792E0,-5.444331530E-2,-6.491482886E-4,-1.753229141E-2,5.720032532E-2
5.204427792E0,-5.449171929E-2,3.067686874E-4,-3.489442885E-2,6.470751689E-2
5.214425792E0,-5.737490823E-2,2.999955104E-3,-1.184002697E-2,5.866060061E-2
5.224423792E0,-6.265984101E-2,-6.524880538E-3,-1.124185681E-2,6.399382069E-2
5.234422792E0,-4.945386792E-2,1.057879398E-2,-4.147780895E-2,6.540645663E-2
5.244420792E0,-4.411419058E-2,-1.491567611E-3,-4.372080088E-2,6.212724856E-2
5.254418792E0,-4.920315027E-2,-2.167479017E-2,-6.747102141E-3,5.418735935E-2
5.264417792E0,-4.312491478E-2,-5.317562982E-4,1.633712053E-3,4.315912482E-2
5.274415792E0,-3.789617009E-2,-6.447937118E-3,-2.558156848E-3,3.852583247E-2
5.284413792E0,-4.606392637E-2,1.694714958E-3,-2.531318128E-2,5.258815948E-2
5.294411917E0,-4.551777815E-2,4.596085092E-3,-2.471150279E-2,5.199663928E-2
5.304410917E0,-4.757460935E-2,-1.151038791E-2,-9.288886786E-3,4.982083803E-2
5.314408917E0,-5.228673426E-2,8.039750217E-3,-1.946888924E-2,5.637000809E-2
5.324406917E0,-5.285058858E-2,1.275430538E-2,-2.755149543E-2,6.095032337E-2
5.334404917E0,-4.941039752E-2,4.645617404E-3,-1.227973759E-2,5.112495574E-2
5.344403917E0,-5.429499703E-2,2.067748130E-2,-1.871518314E-2,6.103902862E-2
5.354401917E0,-5.092800580E-2,1.082465798E-4,-3.667549074E-2,6.275958184E-2
5.364399917E0,-5.104887871E-2,-5.145645705E-3,-2.963602781E-2,5.925166522E-2
5.374398917E0,-5.147451947E-2,6.205917208E-3,2.247669697E-3,5.189596884E-2
5.384396917E0,-5.165359044E-2,2.288755523E-3,9.281870127E-3,5.253079973E-2
5.394394917E0,-4.183057878E-2,2.484310626E-3,-3.218015134E-2,5.283494356E-2
5.404392917E0,-4.684122233E-2,1.438794206E-3,-4.609944820E-2,6.573681893E-2
5.414391917E0,-5.253991870E-2,-4.555606828E-3,-2.289769650E-2,5.749348759E-2
5.424389917E0,-4.894992929E-2,-1.085438970E-2,-1.466481686E-2,5.223954639E-2
5.434387917E0,-5.073599786E-2,-1.599685370E-2,-2.648905635E-2,5.942819964E-2
5.444385917E0,-5.146764899E-2,-4.096061359E-3,-2.154932857E-2,5.594703006E-2
5.454384917E0,-5.478133919E-2,-6.725951666E-3,-2.240068316E-3,5.523813407E-2
5.464382917E0,-5.148824215E-2,-4.641442127E-3,-1.331761837E-2,5.338483889E-2
5.474380917E0,-4.216215245E-2,3.661521873E-3,-3.517041743E-2,5.502737595E-2
5.484379917E0,-3.564057011E-2,-1.233765472E-2,-2.618734002E-2,4.591562631E-2
5.494377917E0,-4.617023606E-2,-1.540348465E-3,-2.618441641E-2,5.310072536E-2
5.504375917E0,-4.088031488E-2,3.385823371E-3,-2.532429099E-3,4.109838368E-2
5.514373917E0,-4.314030027E-2,-7.794144319E-3,-2.094121814E-2,4.858362698E-2
5.524372917E0,-5.168562222E-2,7.013652949E-3,-3.860858023E-2,6.489389293E-2
5.534370917E0,-5.499341039E-2,-6.678031906E-3,-1.406021476E-2,5.715383570E-2
5.544368917E0,-6.440039266E-2,-1.412015329E-2,-4.928618073E-3,6.611414810E-2
5.554366917E0,-5.286880631E-2,6.733797442E-3,-5.530881286E-3,5.358213654E-2
5.564365917E0,-6.360679759E-2,9.038105188E-4,-3.037862420E-2,7.049469754E-2
5.574363917E0,-4.586782537E-2,1.195941753E-2,-4.025223255E-2,6.218623077E-2
5.584361917E0,-3.466757515E-2,2.061619746E-2,-3.426526845E-2,5.292425707E-2
5.594360917E0,-3.934554867E-2,7.795848234E-3,-9.418110251E-3,4.120131370E-2
5.604358917E0,-4.017669383E-2,7.641212221E-3,9.080725908E-4,4.090696087E-2
5.614356917E0,-4.498670479E-2,-4.422827067E-3,-1.451103508E-2,4.747562687E-2
5.624354917E0,-4.630234659E-2,-3.286582874E-3,-1.196515739E-2,4.793614417E-2
5.634353917E0,-5.074902618E-2,-4.209538456E-4,-3.546862543E-2,6.191659107E-2
5.644351917E0,-5.628615668E-2,-1.007691787E-2,-1.990450680E-2,6.054638799E-2
5.654349917E0,-5.792668439E-2,-8.102664887E-3,-1.915606320E-2,6.154761328E-2
5.664347917E0,-5.256621290E-2,-5.922226750E-3,-1.301941037E-2,5.447737654E-2
5.674346917E0,-5.163778469E-2,-7.789809157E-3,-3.173342407E-2,6.110770931E-2
5.684344917E0,-4.254640589E-2,-5.702702631E-3,-3.173459351E-2,5.338353582E-2
5.694342917E0,-4.598453214E-2,-1.523771608E-2,-1.856198609E-2,5.187786152E-2
5.704341917E0,-4.710166097E-2,-1.810797263E-2,1.644237041E-3,5.048929247E-2
5.714339917E0,-5.346028872E-2,-1.684420432E-2,-4.341557622E-3,5.621902535E-2
5.724337917E0,-5.096360072E-2,-1.548466273E-2,-1.975715697E-2,5.681028631E-2
5.734335917E0,-4.367740357E-2,-6.049227817E-3,-3.023244381E-2,5.346315927E-2
5.744334917E0,-4.842848556E-2,5.185954948E-3,-3.636500359E-2,6.078343383E-2
5.754332917E0,-5.519731376E-2,-2.568286692E-3,-1.600850701E-2,5.752922596E-2
5.764330917E0,-6.479548171E-2,7.349664567E-3,-1.451278925E-2,6.680638496E-2
5.774329917E0,-5.466309752E-2,8.833178552E-4,-3.007749259E-2,6.239783684E-2
5.784327917E0,-4.809037032E-2,-4.187620534E-3,-3.456815422E-2,5.937320245E-2
5.794325917E0,-4.806237677E-2,6.456020437E-3,-7.174533606E-3,4.902189504E-2
5.804323917E0,-5.115520667E-2,-5.254849310E-3,-1.660375357E-2,5.403844228E-2
5.814322917E0,-5.001810595E-2,9.138496856E-3,-2.439282954E-2,5.639444282E-2
5.824320917E0,-4.122455142E-2,-1.856077553E-3,-5.233842731E-3,4.159689620E-2
5.834318917E0,-3.550255755E-2,-8.742382256E-3,-2.618909419E-2,4.497476508E-2
5.844316917E0,-4.135024829E-2,8.666752176E-3,-3.906232417E-2,5.753973233E-2
5.854315917E0,-5.153865611E-2,-7.507062019E-3,-2.274683833E-2,5.683315677E-2
5.864313917E0,-5.767596675E-2,-4.418427951E-3,-2.064710319E-2,6.141939853E-2
5.874311917E0,-5.391618881E-2,3.588500200E-4,7.494961023E-3,5.443582121E-2
5.884309917E0,-5.734236483E-2,-2.701957697E-2,1.806789637E-3,6.341505209E-2
5.894308917E0,-5.131987888E-2,-6.878495472E-4,-3.127324820E-2,6.010174006E-2
5.904306917E0,-5.250929391E-2,-8.233615109E-3,-1.780477166E-2,5.605379790E-2
5.914304917E0,-5.136270974E-2,-8.465132872E-3,-1.600967646E-2,5.446187810E-2
5.924303917E0,-4.389004122E-2,1.156600498E-2,-2.858002067E-2,5.363698138E-2
5.934301917E0,-3.856218623E-2,-4.743530857E-3,-2.588328481E-2,4.668498393E-2
5.944299917E0,-4.401798561E-2,6.014516826E-3,-1.690430045E-2,4.753433332E-2
5.954297917E0,-5.408641588E-2,6.259065201E-3,-2.873438716E-2,6.156444823E-2
5.964296917E0,-5.669403652E-2,-6.221848587E-4,-1.301473260E-2,5.817202210E-2
5.974294917E0,-5.370223554E-2,6.375292316E-5,-2.783450067E-2,6.048713577E-2
5.984292917E0,-5.783274522E-2,-5.376485100E-3,-2.708488762E-2,6.408684849E-2
5.994291917E0,-5.813820742E-2,-6.361366350E-3,-2.049507558E-2,6.197230242E-2
6.004289917E0,-4.458019540E-2,1.612111845E-2,-1.241305411E-2,4.900375694E-2
6.014287917E0,-5.528087413E-2,-9.923615749E-4,-2.229017079E-2,5.961385359E-2
6.024285917E0,-4.350364991E-2,-1.367921156E-2,-2.393440783E-2,5.150285683E-2
6.034284917E0,-3.344428282E-2,-1.417515823E-3,-1.630028307E-2,3.723209144E-2
6.044282917E0,-3.626702618E-2,-1.108953685E-2,-9.564290643E-3,3.911202719E-2
6.054280917E0,-4.406419689E-2,1.253789216E-2,5.249045491E-3,4.611295551E-2
6.064278917E0,-4.226765815E-2,1.639580511E-2,6.893282533E-3,4.585732978E-2
6.074277917E0,-5.271893486E-2,-1.307487669E-2,-2.079679191E-2,5.816137075E-2
6.084275917E0,-5.248661768E-2,-1.023264338E-2,-5.073336661E-2,7.371178002E-2
6.094273917E0,-5.039865006E-2,4.579288051E-3,-6.630099356E-2,8.340752696E-2
6.104271917E0,-6.254231198E-2,8.262832914E-3,-3.261693835E-2,7.101886977E-2
6.114270917E0,-6.537620159E-2,-5.660200682E-3,1.243878186E-2,6.678928731E-2
6.124268917E0,-7.152811199E-2,-5.147233133E-3,2.291582286E-2,7.528545512E-2
6.134266917E0,-5.705625325E-2,2.008790381E-3,3.458043337E-3,5.719623535E-2
6.144265917E0,-3.534296511E-2,-6.234639371E-3,-3.366592884E-2,4.920762822E-2
6.154263917E0,-3.073002359E-2,8.152252017E-3,-4.683970571E-2,5.661052546E-2
6.164261917E0,-3.022215636E-2,-4.624859788E-3,-1.779892445E-2,3.537753206E-2
6.174259917E0,-4.768016987E-2,-2.364260208E-2,-1.480515003E-2,5.524096034E-2
6.184258917E0,-4.107374808E-2,7.003468287E-3,-2.453900993E-2,4.835560317E-2
6.194256917E0,-3.696472691E-2,4.151032038E-3,-1.780594110E-2,4.123922455E-2
6.204254917E0,-5.397716431E-2,-1.282674005E-2,-8.525240421E-3,5.613144619E-2
6.214253917E0,-5.227120260E-2,-7.202586536E-3,-2.687380314E-3,5.283349209E-2
6.224251917E0,-6.064744866E-2,1.446470961E-3,-1.197334349E-2,6.183499221E-2
6.234249917E0,-5.935448309E-2,-9.863234111E-3,-1.691657960E-2,6.250126972E-2
6.244247917E0,-5.139969338E-2,3.474705617E-3,-8.984246850E-3,5.229453843E-2
6.254246917E0,-4.749810219E-2,9.748866227E-3,-3.488156497E-2,5.973134587E-2
6.264244917E0,-6.391046908E-2,-3.835293814E-4,-4.356468022E-2,7.734711704E-2
6.274242917E0,-5.726684438E-2,-2.026032358E-2,1.496127069E-2,6.256046513E-2
6.284240917E0,-5.985632038E-2,-3.186894699E-3,7.183479846E-2,9.355839704E-2
6.294239917E0,-8.098457633E-2,2.049467359E-3,1.653709531E-1,1.841473704E-1
6.304237542E0,-8.953388169E-2,-1.862711859E-2,3.049966156E-1,3.184120304E-1
6.314235542E0,-8.254797561E-2,-1.331518355E-2,3.402746218E-1,3.503973183E-1
6.324233542E0,-7.257218717E-2,-1.846350504E-2,3.262968528E-1,3.347794192E-1
6.334232542E0,-5.113496069E-2,4.152598910E-2,3.338578874E-1,3.402944033E-1
6.344230542E0,-3.017371584E-2,-1.827986136E-2,4.595168906E-1,4.608691563E-1
6.354228542E0,-8.913833583E-2,-9.303502541E-4,3.918020403E-1,4.018150660E-1
6.364227542E0,-2.586823919E-1,1.905755475E-2,-3.355664438E-1,4.241280567E-1
6.374225542E0,-1.581777449E-1,1.021848170E-1,3.664093369E-1,4.119681274E-1
6.384223542E0,-7.028610857E-2,3.877836876E-2,-5.287397379E-1,5.347986624E-1
6.394221542E0,2.832885535E-1,1.091126529E-1,-2.273319678E0,2.293499582E0
6.404220542E0,5.867744496E-1,1.000238688E-1,-2.005682677E-1,6.281215320E-1
6.414218542E0,3.144689588E-1,1.084765055E-2,-1.882452607E-1,3.666669821E-1
6.424216542E0,-2.701013097E-1,-9.348238765E-2,-8.186101913E-2,2.973127995E-1
6.434214542E0,-4.222334722E-1,-2.777693529E-2,5.736709124E-1,7.128470936E-1
6.444213542E0,-3.043186858E-1,9.966947957E-3,1.582320875E-1,3.431422389E-1
6.454211542E0,9.485406222E-2,-4.877618293E-1,-2.621809638E-1,5.618253759E-1
6.464209542E0,2.032306146E-1,-2.347554758E-2,-1.563785201E-1,2.575034478E-1
6.474208542E0,-6.002548764E-2,4.182889771E-2,-1.427872521E-1,1.604397557E-1
6.484206542E0,-4.278447527E-1,5.176643714E-2,2.645590264E-1,5.056899988E-1
6.494204542E0,-3.770270035E-2,5.984531573E-2,-1.584320623E-1,1.735041031E-1
6.504202542E0,4.945697425E-2,5.640195439E-2,-1.518650544E-1,1.693817213E-1
6.514201542E0,-3.266634732E-2,-9.965130980E-3,-7.376204073E-2,8.128488627E-2
6.524199542E0,-1.666990019E-1,-1.097465276E-3,5.136837423E-2,1.744375864E-1
6.534197542E0,-7.904392200E-2,2.839039501E-2,8.401864171E-3,8.440703439E-2
6.544195542E0,5.638855604E-2,-2.702201726E-1,-3.576917231E-2,2.783487824E-1
6.554194542E0,-1.097815470E-1,1.232803011E-1,-1.497471929E-2,1.657536211E-1
6.564192542E0,-3.072834251E-2,-2.565607480E-2,3.595452905E-3,4.019194558E-2
6.574190542E0,-4.389221566E-2,7.213453221E-2,-1.706860721E-2,8.614670443E-2
6.584189542E0,-2.084320419E-2,-1.276332174E-2,4.781852961E-3,2.490396877E-2
6.594187542E0,-2.811562384E-2,-2.473446910E-2,-6.439538598E-3,3.799670937E-2
6.604185542E0,-7.702813094E-2,6.467403778E-2,-2.948692381E-2,1.048119401E-1
6.614183542E0,-2.111349173E-2,-6.554388877E-2,9.733859897E-3,6.954515739E-2
6.624182542E0,-6.326462584E-2,6.619615139E-3,-4.938558340E-3,6.380142275E-2
6.634180542E0,-2.248716714E-2,-4.497568645E-2,-2.813446283E-2,5.761972801E-2
6.644178542E0,-4.478561539E-2,6.651443521E-2,-3.921142817E-2,8.926061581E-2
6.654176542E0,4.665840548E-3,-6.568455999E-2,4.652629495E-3,6.601422915E-2
6.664175542E0,-6.844224393E-2,-5.304614597E-3,7.944611907E-3,6.910569115E-2
6.674173542E0,-5.326164784E-2,-6.380949040E-2,-2.168849230E-2,8.590020311E-2
6.684171542E0,-6.009459442E-2,3.760104102E-2,-3.859747052E-2,8.071532255E-2
6.694170542E0,-4.267023895E-2,2.884071741E-2,-2.362742901E-2,5.666384803E-2
6.704168542E0,-7.687579270E-2,-4.147740239E-2,3.917049766E-3,8.743915423E-2
6.714166542E0,-7.071845535E-2,-5.007198256E-2,-1.464376688E-2,8.787914015E-2
6.724164542E0,-5.238525985E-2,1.246208393E-2,-3.590131938E-2,6.471803241E-2
6.734163542E0,-3.994872551E-2,-5.871560398E-3,-3.829984725E-2,5.565298007E-2
6.744161542E0,-3.417569641E-2,-2.173378995E-2,-2.183174908E-2,4.601044575E-2
6.754159542E0,-1.842598351E-2,-7.826558679E-3,-5.361312032E-3,2.072475707E-2
6.764157542E0,-2.798088206E-2,-1.252711935E-2,-4.458501935E-3,3.097961781E-2
6.774156542E0,-3.416687077E-2,-8.746589511E-4,-1.478000700E-2,3.723692648E-2
6.784154542E0,-4.893898403E-2,2.552044680E-2,-2.660015345E-2,6.126896055E-2
6.794152542E0,-3.984203210E-2,1.899025923E-2,-3.408575892E-2,5.576608673E-2
6.804150542E0,-5.547467278E-2,-1.562109129E-2,-4.276536584E-2,7.176582981E-2
6.814149542E0,-7.358717244E-2,-2.185812094E-2,1.412044108E-2,7.805277865E-2
6.824147542E0,-6.350127362E-2,8.407043297E-3,1.187277138E-2,6.514639536E-2
6.834145542E0,-4.742091894E-2,2.987752696E-2,-2.540205896E-2,6.153596322E-2
6.844144542E0,-4.202350035E-2,2.271621811E-2,-4.127315640E-2,6.313061529E-2
6.854142542E0,-4.454841943E-2,-6.463496194E-3,-3.094404995E-2,5.462483579E-2
6.864140542E0,-4.355797419E-2,-1.825430834E-2,-6.093383431E-3,4.761980901E-2
6.874138542E0,-3.671203583E-2,1.768307649E-3,-1.267676353E-2,3.887931096E-2
6.884137542E0,-3.945812585E-2,-8.636871420E-3,-2.674516439E-2,4.844422630E-2
6.894135542E0,-5.207000356E-2,-9.507558375E-3,-2.150722861E-2,5.713352623E-2
6.904133542E0,-4.701464709E-2,-1.742654589E-2,-1.955425858E-2,5.381849655E-2
6.914131542E0,-4.953081362E-2,-3.302520648E-2,-1.131670117E-2,6.059730593E-2
6.924130542E0,-5.355331426E-2,-3.228118712E-2,7.844039798E-3,6.302032586E-2
6.934128542E0,-4.941045234E-2,-1.455206838E-2,-2.313860178E-2,5.646725057E-2
6.944126542E0,-4.180567330E-2,6.879809954E-3,-4.274490058E-2,6.018448829E-2
6.954125542E0,-4.252645226E-2,-4.198331102E-3,-3.046574771E-2,5.248130057E-2
6.964123542E0,-4.435257426E-2,-3.646111491E-2,-5.311025977E-3,5.766082501E-2
6.974121542E0,-4.527385790E-2,-2.974294735E-2,-3.806537390E-3,5.430335950E-2
6.984119542E0,-4.424313996E-2,1.259654476E-2,-2.745384693E-2,5.357090707E-2
6.994118542E0,-4.023050649E-2,2.527080267E-2,-4.256539106E-2,6.378808381E-2
7.004116542E0,-4.049098168E-2,9.809284410E-3,-3.088440835E-2,5.186124118E-2
7.014114542E0,-4.923507242E-2,9.902493824E-4,7.441751361E-3,4.980414253E-2
7.024112542E0,-5.400683893E-2,-1.263805771E-2,-1.261185944E-2,5.688161524E-2
7.034111542E0,-7.058290958E-2,6.122021655E-3,-7.218387723E-3,7.121468525E-2
7.044109542E0,-5.348132042E-2,1.017393825E-2,-2.517986476E-2,5.998154919E-2
7.054107542E0,-5.457710691E-2,-3.408798247E-3,-1.469580710E-2,5.662373398E-2
7.064106542E0,-6.368536955E-2,-4.917624394E-2,6.974500358E-2,1.064823684E-1
7.074104542E0,-6.336759165E-2,-4.305597246E-2,6.303240001E-2,9.920862809E-2
7.084102542E0,-5.785529355E-2,-3.524694515E-2,7.893507242E-2,1.040208046E-1
7.094100542E0,1.574039390E-2,-5.969712993E-2,-2.262860763E-1,2.345568069E-1
7.104099542E0,-1.152047847E-1,1.846033224E-1,-7.749022543E-2,2.309875843E-1
7.114097542E0,6.839232333E-3,1.321870358E-1,-1.909694785E-1,2.323564702E-1
7.124095542E0,-9.938072076E-2,-2.541280505E-1,1.235241848E-1,2.995259887E-1
7.134093542E0,-5.891568610E-2,5.325211414E-2,6.764059067E-3,7.970318829E-2
7.144092542E0,2.296565210E-2,3.923409069E-2,-1.107579589E-1,1.197249369E-1
7.154090542E0,-6.915194973E-2,-1.503086169E-1,9.057220101E-2,1.886213033E-1
7.164088542E0,-5.709570369E-2,1.031771808E-1,-2.618324697E-2,1.207932633E-1
7.174086542E0,2.764685987E-2,-6.198322680E-2,-6.735933959E-2,9.562191117E-2
7.184085542E0,-5.913345834E-2,1.553081119E-2,1.616813600E-2,6.324065633E-2
7.194083542E0,-5.379962822E-2,-4.183109955E-2,-2.240653038E-3,6.818549268E-2
7.204081542E0,1.785666570E-3,-6.175162224E-2,-4.370735228E-2,7.567551848E-2
7.214080542E0,-6.910701754E-2,3.782706560E-2,-1.766385376E-2,8.073833349E-2
7.224078542E0,-4.176351853E-2,-2.294640197E-2,-2.499567747E-2,5.380996874E-2
7.234076542E0,-2.741748456E-2,2.629025558E-2,-4.161171019E-2,5.634208394E-2
7.244074542E0,-6.648218416E-2,-5.013256520E-3,1.931159914E-2,6.941146456E-2
7.254073542E0,-6.434831589E-2,-2.327160310E-2,8.086114526E-3,6.890325477E-2
7.264071542E0,-4.507603928E-2,6.024321762E-3,-5.238520503E-2,6.937111414E-2
7.274069542E0,-4.678817712E-2,-1.367547254E-2,-4.130999386E-2,6.389575620E-2
7.284067542E0,-5.083196528E-2,2.034094663E-2,-2.993365109E-2,6.239924897E-2
7.294066542E0,-3.537055666E-2,4.929582521E-4,-2.364497066E-2,4.254884162E-2
7.304064458E0,-1.874728801E-2,-3.327666188E-2,-8.676098585E-3,3.916722763E-2
7.314062458E0,-4.144813433E-2,9.257389479E-3,-1.930282831E-2,4.665025488E-2
7.324061458E0,-4.047875734E-2,-9.434472177E-3,-4.130882442E-2,5.859998324E-2
7.334059458E0,-2.734355383E-2,-9.428180710E-3,-2.589205563E-2,3.881957074E-2
7.344057458E0,-4.517869446E-2,3.950036856E-3,5.243198276E-3,4.565313081E-2
7.354055458E0,-3.965287467E-2,-6.978340106E-3,-7.327145934E-3,4.092352341E-2
7.364054458E0,-4.427064015E-2,2.655136117E-3,-3.755958974E-2,5.811765746E-2
7.374052458E0,-5.676023796E-2,3.442662419E-6,-3.246374130E-2,6.538821855E-2
7.384050458E0,-5.069017030E-2,-6.007331717E-3,-2.871918440E-2,5.856938579E-2
7.394048458E0,-4.841489078E-2,6.022962741E-3,-3.155859232E-2,5.810527067E-2
7.404047458E0,-3.788562683E-2,-9.310003571E-3,-1.479170144E-2,4.172279136E-2
7.414045458E0,-4.338078529E-2,-1.217387101E-2,-6.707341075E-3,4.555309091E-2
7.424043458E0,-4.744489253E-2,3.588357446E-3,-2.122363865E-2,5.209929917E-2
7.434042458E0,-3.991883162E-2,-1.659196320E-2,-2.241997898E-2,4.869765722E-2
7.444040458E0,-4.522269476E-2,-2.788531434E-2,-2.705799043E-2,5.962229217E-2
7.454038458E0,-4.811876586E-2,3.189263279E-3,-1.448530734E-2,5.035286642E-2
7.464036458E0,-4.863573281E-2,-5.024211484E-3,-1.553078949E-2,5.130187745E-2
7.474035458E0,-5.800030449E-2,-6.375760550E-4,-2.511320651E-2,6.320692182E-2
7.484033458E0,-4.984400511E-2,-7.123043847E-3,-3.783440888E-2,6.298098994E-2
7.494031458E0,-4.227770805E-2,-3.249076183E-2,-2.510852873E-2,5.893634208E-2
7.504029458E0,-4.393574087E-2,-8.113179026E-3,-5.346109271E-3,4.499726529E-2
7.514028458E0,-4.182411030E-2,-7.936946002E-3,-3.994233012E-3,4.275751643E-2
7.524026458E0,-4.292815598E-2,-3.947246866E-3,-1.327610314E-2,4.510723055E-2
7.534024458E0,-4.394416451E-2,-2.094827819E-4,-2.854376793E-2,5.240114660E-2
7.544022458E0,-3.930505671E-2,-2.643369281E-2,-3.019034386E-2,5.617013851E-2
7.554021458E0,-3.798641821E-2,-4.998757252E-2,-3.243567467E-2,7.066681234E-2
7.564019458E0,-2.868819416E-2,-2.921741514E-2,-2.060558796E-2,4.583950356E-2
7.574017458E0,-3.309986355E-2,1.456573168E-2,-2.449106276E-2,4.367577889E-2
7.584016458E0,-5.897861676E-2,5.775211760E-2,-4.454467356E-2,9.379771994E-2
7.594014458E0,-1.978164218E-2,5.278779496E-3,1.866431236E-3,2.055875595E-2
7.604012458E0,-8.714421602E-2,-4.587288573E-3,-3.001317322E-2,9.228189513E-2
7.614010458E0,-6.517805407E-2,-2.602563710E-2,-1.788546324E-2,7.242514973E-2
7.624009458E0,-5.396049974E-2,3.565209552E-3,-2.940740168E-2,6.155681543E-2
7.634007458E0,-3.831910651E-2,1.783085344E-2,-4.392136037E-2,6.095391009E-2
7.644005458E0,-4.572438587E-2,2.590181317E-2,-3.403956592E-2,6.261242238E-2
7.654003458E0,-4.242487516E-2,3.354935340E-3,-1.548225760E-2,4.528604558E-2
7.664002458E0,-4.543794539E-2,-1.860601151E-3,-1.248906791E-2,4.715978727E-2
7.674000458E0,-3.831857661E-2,-1.745399582E-2,-1.533081472E-2,4.481059209E-2
7.683998458E0,-4.267805960E-2,-2.620200603E-2,-2.370987475E-2,5.540866405E-2
7.693996458E0,-4.676614042E-2,-1.958705553E-2,-1.981913745E-2,5.443824799E-2
7.703995458E0,-4.605623363E-2,-2.039397814E-2,-1.667684376E-2,5.305853483E-2
7.713993458E0,-3.790346084E-2,5.684395821E-4,-1.457886279E-2,4.061451351E-2
7.723991458E0,-4.153777946E-2,-8.874701777E-3,-2.116224289E-2,4.745511540E-2
7.733990458E0,-5.506724976E-2,-1.021512001E-2,-4.061534464E-2,6.918350160E-2
7.743988458E0,-6.805906858E-2,-3.299983962E-2,-2.369934976E-2,7.926339262E-2
7.753986458E0,-5.569595335E-2,-3.543600436E-2,-1.097756267E-2,6.691977665E-2
7.763984458E0,-4.342522413E-2,-1.026544489E-2,-9.480675459E-3,4.561811763E-2
7.773983458E0,-3.632242855E-2,1.581336076E-3,-6.489239931E-3,3.693141852E-2
7.783981458E0,-3.155106403E-2,1.048148352E-2,-2.385780931E-2,4.092097510E-2
7.793979458E0,-4.514165601E-2,-3.380863516E-3,-2.206446826E-2,5.035911144E-2
7.803977458E0,-4.010793423E-2,-1.677959487E-2,-2.041964650E-2,4.803293824E-2
7.813976458E0,-3.460786046E-2,-6.264878726E-3,-2.116867483E-2,4.104954939E-2
7.823974458E0,-3.469860194E-2,9.719624439E-3,-1.682594776E-2,3.976904065E-2
7.833972458E0,-4.847603073E-2,-6.586111849E-5,-1.707386971E-3,4.850613429E-2
7.843971458E0,-6.370875841E-2,-9.409509591E-3,2.036000490E-3,6.443205776E-2
7.853969458E0,-5.348417094E-2,-1.841283983E-2,-1.637395799E-2,5.888714386E-2
7.863967458E0,-5.894110322E-2,-8.458361750E-3,-3.373551071E-2,6.843743285E-2
7.873965458E0,-5.196442477E-2,5.067366106E-4,-2.684749067E-2,5.849227282E-2
7.883964458E0,-5.444446648E-2,-1.545701408E-2,-2.161423266E-2,6.058295360E-2
7.893962458E0,-4.506975353E-2,-1.723438491E-2,-2.455245852E-3,4.831495564E-2
7.903960458E0,-2.324661082E-2,-2.001917162E-2,-9.671294689E-4,3.069376950E-2
7.913958458E0,-2.589737294E-2,-4.714172810E-2,5.035680592E-2,7.368055616E-2
7.923957458E0,-5.801232783E-2,-6.278424053E-2,1.147054142E-1,1.430546157E-1
7.933955458E0,-4.623588933E-2,-1.863336666E-2,1.866887319E-1,1.932295072E-1
7.943953458E0,4.841330107E-3,5.668509210E-2,2.652636158E-1,2.712958238E-1
7.953951458E0,5.570366437E-2,6.895630555E-2,3.116700429E-1,3.240309953E-1
7.963950458E0,7.351307726E-2,3.253762635E-2,3.567415506E-1,3.656875764E-1
7.973948458E0,-3.435878735E-3,9.836622884E-2,3.343110466E-1,3.484990619E-1
7.983946458E0,-5.756486965E-2,7.757210473E-2,3.216114789E-1,3.358051355E-1
7.993945458E0,-1.221622769E-1,3.775025009E-2,2.746302706E-1,3.029364435E-1
8.003943458E0,-1.851444092E-1,-1.978824314E-2,2.981436789E-1,3.515105689E-1
8.013941458E0,-1.392990590E-1,-1.335758683E-1,3.881118625E-1,4.334484494E-1
8.023939458E0,-1.099197605E-1,-1.896108779E-1,4.662382650E-1,5.151822576E-1
8.033938458E0,-3.010713981E-1,-4.900612651E-2,3.711543524E-1,4.804176730E-1
8.043936458E0,-1.292385225E-1,-4.003655709E-2,5.350325114E-1,5.518743605E-1
8.053934458E0,-1.482208868E-2,1.826455467E-1,5.511649793E-1,5.808286533E-1
8.063932458E0,-8.542842368E-2,1.459548441E-1,6.140085143E-1,6.368730546E-1
8.073931458E0,9.332214653E-2,-2.848916955E-1,9.090531689E-1,9.572094677E-1
8.083929458E0,2.210841374E-2,-1.271150536E-2,8.429153126E-1,8.433010071E-1
8.093927458E0,-6.681375783E-3,1.171495229E-1,9.224421233E-1,9.298753262E-1
8.103925458E0,5.894095704E-2,2.338886992E-1,1.066204106E0,1.093146448E0
8.113924458E0,-6.622114252E-2,-3.188825879E-2,1.102055724E0,1.104503925E0
8.123922458E0,-1.530398879E-1,-2.108370747E-1,1.139255710E0,1.168664645E0
8.133920458E0,-1.381890382E-1,-1.282079005E-2,1.100119711E0,1.108839015E0
8.143919458E0,-4.375047550E-2,2.106119021E-1,1.046620027E0,1.068496588E0
8.153917458E0,-1.911888770E-1,-7.755761459E-2,9.510502106E-1,9.731725815E-1
8.163915458E0,-3.810078610E-2,1.232357983E-1,9.544269776E-1,9.631041416E-1
8.173913458E0,-1.279626783E-1,-1.344921544E-1,1.012296871E0,1.029178090E0
8.183912458E0,-1.709733897E-1,-1.812050669E-1,9.285618192E-1,9.614022198E-1
8.193910458E0,-4.742709506E-2,7.172805022E-2,9.094917101E-1,9.135477071E-1
8.203908458E0,-6.528144015E-2,1.402343486E-1,9.012050360E-1,9.143838668E-1
8.213906458E0,-4.218735030E-2,-4.280897328E-2,9.789887917E-1,9.808320116E-1
8.223905458E0,-1.486484645E-1,-3.223320797E-2,9.394171751E-1,9.516511832E-1
8.233903458E0,-3.867904283E-1,-4.609680599E-1,8.837475890E-1,1.069162377E0
8.243901458E0,1.145149959E-1,2.799863750E-1,1.088549241E0,1.129798878E0
8.253899458E0,-2.062611717E-1,-1.704368345E-1,9.099758595E-1,9.484979971E-1
8.263898458E0,2.257574149E-1,2.637286304E-1,1.098034009E0,1.151606654E0
8.273896458E0,1.791799203E-1,2.249477583E-1,9.867205650E-1,1.027776440E0
8.283894458E0,-2.083021606E-1,-1.398498393E-1,1.027791408E0,1.057971146E0
8.293893458E0,1.319282417E-1,5.794918521E-1,9.001876205E-1,1.078681426E0
8.303891542E0,-3.839681235E-1,-2.602636983E-1,7.810371530E-1,9.083984516E-1
8.313889542E0,-8.945194758E-2,1.118615478E-1,8.485292244E-1,8.605326847E-1
8.323887542E0,-1.836453293E-2,2.222894176E-2,8.022368181E-1,8.027548157E-1
8.333886542E0,5.360080462E-2,-5.643115849E-2,8.631396621E-1,8.666415627E-1
8.343884542E0,2.235848089E-1,-1.527795954E-1,9.067306548E-1,9.463045239E-1
8.353882542E0,-1.261200928E-1,-3.202147984E-1,6.865525800E-1,7.679832290E-1
8.363880542E0,-2.651393991E-1,3.663406321E-1,5.016858405E-1,6.754206410E-1
8.373879542E0,-1.788083297E-1,1.165979569E-1,3.307015604E-1,3.936127848E-1
8.383877542E0,-2.152695566E-1,-1.400976699E-1,3.936749035E-1,4.700513469E-1
8.393875542E0,-1.513131868E-1,-9.986305210E-2,3.576952314E-1,4.010164439E-1
8.403873542E0,-6.897119768E-2,-1.112305692E-1,2.748583120E-1,3.044279181E-1
8.413872542E0,7.442043722E-4,3.021442479E-2,1.484695762E-1,1.515146210E-1
8.423870542E0,-2.562432624E-2,1.401100336E-2,3.390215635E-2,4.474673749E-2
8.433868542E0,6.923311640E-2,-1.101134678E-1,-1.342111409E-2,1.307605694E-1
8.443867542E0,-6.786453903E-2,-4.389249340E-1,-2.977115697E-1,5.346895100E-1
8.453865542E0,2.065841390E-2,2.077795520E-2,-6.682203895E-1,6.688624540E-1
8.463863542E0,2.070433281E-2,2.352698846E-1,-9.474261063E-1,9.764204089E-1
8.473861542E0,-1.617749337E-1,-9.059767295E-2,-1.189364009E0,1.203729959E0
8.483860542E0,6.635802219E-2,6.270505643E-2,-1.485943558E0,1.488745636E0
8.493858542E0,6.690767873E-2,1.143887144E-1,-1.637477660E0,1.642831246E0
8.503856542E0,1.168527493E-1,2.081283521E-1,-1.811293162E0,1.826952352E0
8.513854542E0,5.799802043E-2,8.636310110E-2,-2.040496999E0,2.043147170E0
8.523853542E0,3.242990054E-2,-2.094473789E-2,-2.212975827E0,2.213312539E0
8.533851542E0,4.013971020E-2,3.628868258E-3,-2.261363876E0,2.261723003E0
8.543849542E0,-9.036623284E-2,-6.438631823E-2,-2.293441701E0,2.296124232E0
8.553847542E0,3.420836773E-2,-8.803442834E-3,-2.444094043E0,2.444349280E0
8.563846542E0,1.150619299E-1,7.107191954E-2,-2.331289558E0,2.335209085E0
8.573844542E0,6.594235824E-2,6.901859667E-2,-2.246905466E0,2.248932221E0
8.583842542E0,3.337950664E-2,-2.266463699E-2,-2.329425466E0,2.329774856E0
8.593841542E0,-3.600172704E-2,-1.172849499E-1,-2.350435681E0,2.353635438E0
8.603839542E0,-6.362916319E-2,-1.093123810E-1,-2.241969831E0,2.245534812E0
8.613837542E0,-7.529315243E-2,-1.490542613E-1,-2.130202643E0,2.136738058E0
8.623835542E0,2.642035156E-2,-3.054547815E-1,-2.036545451E0,2.059494606E0
8.633834542E0,5.295635009E-2,-2.720188310E-1,-1.881224107E0,1.901526429E0
8.643832542E0,-4.880747650E-2,-1.546499735E-1,-1.627106454E0,1.635167941E0
8.653830542E0,-1.803954651E-1,-7.840115768E-2,-1.522372881E0,1.535027184E0
8.663828542E0,6.595445467E-2,-8.874670029E-2,-1.321990555E0,1.326606571E0
8.673827542E0,4.129787916E-2,1.564041382E-1,-1.080295896E0,1.092340145E0
8.683825542E0,2.070659861E-2,2.541102347E-1,-8.903859329E-1,9.261683887E-1
8.693823542E0,3.793397600E-2,-1.616780938E-2,-8.339912921E-1,8.350100957E-1
8.703821542E0,5.516336337E-2,-2.411825708E-1,-7.207108444E-1,7.619948493E-1
8.713820542E0,1.631989317E-1,8.238820958E-2,-4.970846665E-1,5.296365490E-1
8.723818542E0,-7.951005472E-2,1.764789817E-1,-4.584661460E-1,4.976523755E-1
8.733816542E0,-9.751222473E-2,9.779386866E-2,-4.248101574E-1,4.466944644E-1
8.743815542E0,-3.692005053E-2,1.824258924E-1,-2.646800637E-1,3.235704444E-1
8.753813542E0,-9.109832251E-2,1.346845643E-1,-7.087117732E-2,1.773740680E-1
8.763811542E0,-1.600939871E-1,4.847968068E-2,-3.887287438E-2,1.717307908E-1
8.773809542E0,-8.700291440E-4,-4.883401281E-2,4.401491582E-2,6.574823627E-2
8.783808542E0,1.443220731E-3,-4.227296633E-2,2.399252915E-1,2.436251877E-1
8.793806542E0,-2.095711526E-2,6.559925003E-2,3.898981869E-1,3.959331490E-1
8.803804542E0,3.406808937E-2,1.079679873E-1,4.124959213E-1,4.277506354E-1
8.813802542E0,-2.235679067E-1,2.307201890E-2,3.734131318E-1,4.358351684E-1
8.823801542E0,1.205386513E-1,-5.501839627E-1,8.539209419E-1,1.022943270E0
8.833799542E0,-2.550629654E-1,-9.358158018E-2,5.916505158E-1,6.510491236E-1
8.843797542E0,-3.625432310E-1,-2.822975418E-1,4.520768934E-1,6.445952327E-1
8.853795542E0,-3.143101338E-1,-1.899297339E-1,4.160691547E-1,5.549573908E-1
8.863794542E0,-8.899370860E-2,1.712451207E-1,3.872447205E-1,4.326699031E-1
8.873792542E0,3.020952638E-1,1.188972739E-1,5.294069052E-1,6.210231730E-1
8.883790542E0,2.745576189E-1,2.046535894E-1,4.936254537E-1,6.007753876E-1
8.893789542E0,7.593276473E-2,2.263976668E-1,3.366166037E-1,4.127134916E-1
8.903787542E0,-5.004668422E-3,1.454318746E-1,3.258600658E-1,3.568756917E-1
8.913785542E0,-1.023595482E-1,-1.371208045E-2,2.947575563E-1,3.123259760E-1
8.923783542E0,-2.925488802E-1,9.183534577E-2,1.387883413E-1,3.365721048E-1
8.933782542E0,-2.283602664E-1,-9.463821317E-4,2.050981057E-1,3.069438709E-1
8.943780542E0,-3.050614832E-2,-2.457537413E-1,2.810037357E-1,3.745512327E-1
8.953778542E0,-8.279602546E-2,1.643853866E-1,1.712953520E-1,2.514355480E-1
8.963776542E0,-2.490391273E-2,3.236559944E-1,1.326820940E-1,3.506821148E-1
8.973775542E0,-2.682072138E-2,-1.287013004E-1,1.267138410E-1,1.825918216E-1
8.983773542E0,-4.778649783E-2,-2.140372193E-1,1.180658090E-1,2.490682956E-1
8.993771542E0,-7.067907801E-2,-1.660912021E-1,1.602078617E-2,1.812139208E-1
9.003769542E0,-7.123534922E-3,-1.496454239E-1,-2.255037189E-2,1.515025311E-1
9.013768542E0,1.646133732E-2,8.423527191E-2,-1.105141300E-1,1.399283016E-1
9.023766542E0,-2.365516674E-2,2.494774309E-1,-1.634571594E-1,2.991935802E-1
9.033764542E0,-9.390876845E-2,1.275201903E-2,-7.704525232E-2,1.221369792E-1
9.043763542E0,-2.033539178E-1,-2.824403783E-1,3.672636151E-3,3.480500990E-1
9.053761542E0,-1.070022740E-1,-2.498864619E-1,1.031016147E-1,2.907278340E-1
9.063759542E0,-6.418369850E-2,1.690553271E-2,7.484436035E-2,1.000351062E-1
9.073757542E0,-2.778971465E-2,1.582791210E-1,7.801296651E-2,1.786353026E-1
9.083756542E0,-2.635020325E-2,1.181095261E-1,1.367137492E-1,1.825783190E-1
9.093754542E0,-7.528427197E-2,-3.822919187E-2,1.512622064E-1,1.732323521E-1
9.103752542E0,-6.823669603E-2,-1.650889528E-1,1.689593893E-1,2.458818502E-1
9.113750542E0,-4.295549171E-2,-1.082612892E-1,1.481935877E-1,1.884861279E-1
9.123749542E0,-6.255278215E-3,-4.776147357E-2,8.642243207E-2,9.894000014E-2
9.133747542E0,-1.204648850E-2,6.318671169E-2,-4.688297510E-3,6.449541497E-2
9.143745542E0,-2.853181768E-2,1.600071377E-1,-6.436614990E-2,1.748123279E-1
9.153743542E0,-4.773898920E-2,7.440371783E-2,-7.015723228E-2,1.128581480E-1
9.163742542E0,-1.026450751E-1,-8.914225529E-2,-6.607061327E-2,1.511544874E-1
9.173740542E0,-9.892229905E-2,-5.462353745E-2,-1.048008156E-1,1.541186655E-1
9.183738542E0,-8.789161809E-2,1.380741953E-1,-1.758690441E-1,2.402484976E-1
9.193736542E0,-5.039532445E-2,1.285263865E-1,-2.056325412E-1,2.476761247E-1
9.203735542E0,-2.271734644E-3,1.003725182E-1,-1.648873883E-1,1.930483204E-1
9.213733542E0,5.409935284E-2,9.696938384E-2,-8.462324381E-2,1.396097947E-1
9.223731542E0,-1.555250094E-1,-2.415149119E-1,1.583718359E-2,2.876947994E-1
9.233730542E0,3.259546811E-2,-2.828694908E-1,1.216881591E-1,3.096540351E-1
9.243728542E0,1.636748220E-1,-2.721324314E-1,1.860934854E-1,3.680710433E-1
9.253726542E0,-1.625259172E-2,4.129601993E-2,6.057656944E-2,7.509346686E-2
9.263724542E0,1.576763462E-1,1.172428591E-1,1.334334612E-2,1.969410141E-1
9.273723542E0,-7.940447593E-2,1.253127293E-1,4.723380804E-2,1.556900239E-1
9.283721542E0,-3.061311765E-1,-6.242569657E-2,4.922829330E-2,3.162857722E-1
9.293719542E0,-1.560051571E-1,2.136775790E-1,-5.103566766E-2,2.694445327E-1
9.303717333E0,4.064710233E-3,2.944168464E-1,-7.453445792E-3,2.945392251E-1
9.313716333E0,-1.279473842E-1,-1.808701311E-1,1.019900590E-1,2.438985641E-1
9.323714333E0,5.767607639E-2,-6.111842360E-2,1.123583418E-1,1.403081910E-1
9.333712333E0,7.558706637E-2,9.728005372E-2,2.649782717E-2,1.260116991E-1
9.343710333E0,-1.534484073E-1,-7.313544762E-2,-8.512201130E-2,1.901077700E-1
9.353709333E0,-9.885439826E-2,4.213108912E-2,-1.173980570E-1,1.591525196E-1
9.363707333E0,-2.374783232E-1,-9.359499224E-2,-1.616655725E-1,3.021452198E-1
9.373705333E0,-1.610942630E-1,-5.061602944E-2,-1.266313952E-1,2.110659950E-1
9.383704333E0,-1.622337574E-1,-1.494730498E-1,-7.410000980E-2,2.327075334E-1
9.393702333E0,-2.735113693E-2,-1.441112992E-1,-5.359323978E-2,1.561678155E-1
9.403700333E0,1.505167778E-1,1.223327415E-1,-5.583038449E-2,2.018356556E-1
9.413698333E0,2.571514081E-3,1.832892201E-2,-6.344989121E-2,6.609425664E-2
9.423697333E0,1.915324923E-2,5.662364152E-2,-3.872435510E-2,7.122260465E-2
9.433695333E0,-3.748467229E-3,8.902036825E-2,-3.450558901E-2,9.554743661E-2
9.443693333E0,-6.982284464E-2,6.373601648E-2,-3.029033124E-2,9.927242113E-2
9.453691333E0,-1.307036520E-1,1.810562918E-2,-8.585466743E-3,1.322307404E-1
9.463690333E0,-1.095473843E-1,1.574569865E-2,1.997759700E-2,1.124618193E-1
9.473688333E0,-7.190123744E-2,1.479261278E-2,1.215285301E-2,7.440632483E-2
9.483686333E0,4.197929906E-2,3.849373726E-2,2.588094592E-2,6.256079219E-2
9.493684333E0,5.507877974E-2,-1.067136134E-1,7.315685391E-2,1.406178955E-1
9.503683333E0,5.439125681E-2,-1.272149291E-1,8.796843588E-2,1.639527149E-1
9.513681333E0,-1.398361623E-3,-4.162559733E-3,1.296620071E-2,1.368958289E-2
9.523679333E0,-1.038093288E-1,5.100810809E-2,-3.943537652E-2,1.222020980E-1
9.533677333E0,-1.087571696E-1,5.364217367E-2,-5.098655105E-2,1.315493562E-1
9.543676333E0,-1.216974416E-1,-7.895594881E-2,-4.503350079E-2,1.518957713E-1
9.553674333E0,-7.944204429E-2,-6.113460395E-3,-7.516244888E-2,1.095344992E-1
9.563672333E0,-8.393383881E-2,1.857982695E-2,-1.006604022E-1,1.323730178E-1
9.573671333E0,-5.170272533E-2,-8.786492189E-3,-7.392400861E-2,9.063737253E-2
9.583669333E0,1.633880161E-2,-6.932551611E-2,-5.713314414E-3,7.145366039E-2
9.593667333E0,4.045818245E-2,-1.125275730E-1,6.116655350E-2,1.343155482E-1
9.603665333E0,1.437488632E-2,-4.764405874E-2,7.896957099E-2,9.334230998E-2
9.613664333E0,-8.183817845E-2,-3.993245838E-2,5.635020196E-2,1.070861053E-1
9.623662333E0,-8.869069492E-2,7.447469755E-2,3.013771892E-2,1.196695535E-1
9.633660333E0,-1.323899890E-1,1.018438329E-1,1.363687634E-2,1.675865147E-1
9.643658333E0,-1.464708335E-1,7.996468487E-2,2.301873386E-2,1.684574664E-1
9.653657333E0,-1.050854471E-1,1.865611712E-2,4.377517998E-2,1.153571336E-1
9.663655333E0,-5.343076028E-4,4.700195224E-2,8.774214864E-2,9.953970889E-2
9.673653333E0,-2.788535317E-2,1.025425467E-3,1.192925549E-1,1.225126853E-1
9.683651333E0,-2.552422922E-2,4.549688349E-2,1.114818442E-1,1.230839318E-1
9.693650333E0,-8.157596737E-2,1.108604907E-2,8.959980905E-2,1.216785302E-1
9.703648333E0,-4.074899007E-2,3.410149616E-2,7.520688772E-2,9.208402789E-2
9.713646333E0,-7.103433290E-2,4.281243364E-3,3.282276034E-2,7.836797236E-2
9.723645333E0,-7.122869801E-2,-1.678774100E-2,7.053496242E-3,7.351943605E-2
9.733643333E0,-6.183814276E-2,-4.916632195E-2,-2.500210941E-2,8.286367473E-2
9.743641333E0,-3.319150038E-2,-4.471555844E-2,-4.134566188E-2,6.935863768E-2
9.753639333E0,-1.221894482E-2,1.653811001E-3,-6.591507733E-2,6.705844557E-2
9.763638333E0,-1.977007566E-2,-9.784292132E-3,-7.910639584E-2,8.212435770E-2
9.773636333E0,-2.547010593E-2,-4.404381386E-2,-8.345964789E-2,9.774505953E-2
9.783634333E0,-2.404640028E-2,-5.451341337E-2,-1.120560408E-1,1.269113780E-1
9.793632333E0,-3.529607775E-2,-2.571399878E-2,-1.376615828E-1,1.444220697E-1
9.803631333E0,-1.681480151E-2,2.415526584E-2,-1.593722945E-1,1.620670932E-1
9.813629333E0,-3.962877318E-3,1.778584815E-2,-1.661129647E-1,1.671094188E-1
9.823627333E0,-3.596505404E-2,-4.203494810E-2,-1.533964401E-1,1.630671329E-1
9.833625333E0,-4.770375973E-2,-4.308080485E-2,-1.499629551E-1,1.631578755E-1
9.843624333E0,2.478488535E-4,2.504282065E-2,-1.384433556E-1,1.406903230E-1
9.853622333E0,-1.043032723E-1,-8.836603741E-2,-1.448899108E-1,1.992004404E-1
9.863620333E0,-6.013459302E-2,2.249842074E-2,-1.895088440E-1,2.000898553E-1
9.873618333E0,-7.006669180E-2,7.519526638E-2,-1.955145192E-1,2.208836721E-1
9.883617333E0,-9.961884862E-2,3.539434066E-2,-1.780272514E-1,2.070516278E-1
9.893615333E0,-7.901972914E-2,3.208051799E-2,-1.687775409E-1,1.891008608E-1
9.903613333E0,-5.428646374E-2,2.679492055E-2,-1.508470541E-1,1.625417536E-1
9.913611333E0,-5.775241910E-2,1.317176574E-2,-1.356092101E-1,1.479820773E-1
9.923610333E0,-2.938437827E-2,1.446305937E-2,-1.107877797E-1,1.155272864E-1
9.933608333E0,2.127675695E-2,2.607219555E-2,-1.108070755E-1,1.158044375E-1
9.943606333E0,4.441075405E-2,2.444903590E-2,-9.210183263E-2,1.051323832E-1
9.953605333E0,9.481289417E-2,-5.516450083E-2,-8.565001488E-3,1.100271162E-1
9.963603333E0,2.707131112E-2,-7.515933798E-2,-1.353630424E-3,7.989752366E-2
9.973601333E0,-1.105022346E-1,-6.810322877E-2,-8.575818837E-2,1.555739711E-1
9.983599333E0,-1.473635389E-1,-8.727279081E-2,-1.426287925E-1,2.228800688E-1
9.993598333E0,-1.767294070E-1,-1.406543043E-2,-2.096981102E-1,2.745986473E-1
1.000359633E1,-1.618705174E-1,5.802531048E-2,-2.636047608E-1,3.147323799E-1
1.001359433E1,-7.933599042E-2,1.092044542E-1,-2.841349196E-1,3.145671069E-1
1.002359233E1,-6.171681304E-2,9.542354448E-2,-2.880607402E-1,3.096669306E-1
1.003359133E1,-3.364493368E-2,-6.773607387E-2,-2.114499360E-1,2.245689932E-1
1.004358933E1,9.634128325E-3,-8.275724198E-2,-1.484467721E-1,1.702293208E-1
1.005358733E1,4.379575487E-2,4.315571773E-2,-1.339298898E-1,1.473692624E-1
1.006358633E1,1.098780991E-1,1.357975065E-2,-5.547896683E-2,1.238366749E-1
1.007358433E1,-1.001284517E-2,3.876247621E-2,-8.704282165E-2,9.580834739E-2
1.008358233E1,-5.117651246E-2,9.898433893E-4,-9.705208540E-2,1.097229352E-1
1.009358033E1,-9.546628397E-2,-9.117850246E-2,-4.330506384E-2,1.389340104E-1
1.010357933E1,-1.348748729E-1,-9.040671567E-2,1.088517666E-2,1.627362672E-1
1.011357733E1,-1.024898863E-1,1.791475642E-2,5.793421268E-3,1.042049856E-1
1.012357533E1,-6.982686460E-2,6.534639906E-2,2.075118363E-2,9.785987182E-2
1.013357333E1,-6.275856759E-2,3.186940152E-2,7.970924377E-2,1.063384225E-1
1.014357233E1,-5.217282319E-2,-3.214176985E-2,1.406155962E-1,1.533878833E-1
1.015357033E1,-2.514138278E-2,-8.907777146E-2,1.515376103E-1,1.775685384E-1
1.016356833E1,-3.891026001E-2,-4.272677878E-2,1.446519291E-1,1.557683105E-1
1.017356633E1,-1.027417917E-2,4.303419158E-2,1.240001482E-1,1.316568918E-1
1.018356533E1,-2.049767029E-2,1.103900411E-1,1.319441754E-1,1.732494764E-1
1.019356333E1,-3.378322033E-2,7.303772603E-2,1.300069928E-1,1.528974610E-1
1.020356133E1,-4.400777126E-2,-2.146754064E-2,1.491735810E-1,1.570041289E-1
1.021355933E1,-5.762695977E-2,-7.159483877E-2,1.672976106E-1,1.908800093E-1
1.022355833E1,-8.877273867E-2,-3.790543885E-2,1.592302072E-1,1.862033306E-1
1.023355633E1,-7.362300491E-2,1.620475876E-2,1.590892893E-1,1.760464229E-1
1.024355433E1,-3.003093414E-2,5.039392660E-2,2.159838670E-1,2.238089267E-1
1.025355333E1,-4.331167851E-2,-4.809286909E-2,2.553695422E-1,2.634434069E-1
1.026355133E1,-9.738948802E-2,-1.064287444E-1,1.928107667E-1,2.408065235E-1
1.027354933E1,-1.095964095E-1,-3.478777883E-2,1.441677797E-1,1.844069175E-1
1.028354733E1,-8.469134560E-2,3.892018658E-2,1.435707790E-1,1.711723503E-1
1.029354633E1,-7.267648688E-2,6.953845982E-2,9.851155043E-2,1.407906059E-1
1.030354458E1,-7.292563308E-2,4.618859997E-2,7.365679085E-2,1.134762423E-1
1.031354258E1,-6.849799348E-2,-1.144039034E-2,1.050855750E-1,1.259596591E-1
1.032354058E1,-1.588524040E-2,-2.031348984E-3,1.372709888E-1,1.382019957E-1
1.033353958E1,-9.651743062E-4,1.837481923E-2,1.188662928E-1,1.202820066E-1
1.034353758E1,-3.138750644E-2,-1.135826437E-2,8.998747945E-2,9.597881114E-2
1.035353558E1,2.392973006E-3,5.953997687E-2,5.887093663E-2,8.376468436E-2
1.036353358E1,-4.063197266E-2,-1.515291204E-2,4.152575612E-2,6.004128885E-2
1.037353258E1,-3.175454713E-2,6.899933740E-3,-2.465186119E-3,3.258891670E-2
1.038353058E1,-5.467365906E-2,3.402188152E-3,-2.609612346E-2,6.067776807E-2
1.039352858E1,-8.397248525E-2,-1.167183958E-2,-3.401617706E-2,9.134938653E-2
1.040352658E1,-7.065643832E-2,6.574548752E-3,-4.164270043E-2,8.227801327E-2
1.041352558E1,-6.235666288E-2,2.598893897E-2,-3.100895405E-2,7.433258764E-2
1.042352358E1,-6.527963117E-2,6.874560022E-3,-2.187560320E-2,6.918982466E-2
1.043352158E1,-5.604475804E-2,-1.581090995E-2,-2.427237689E-2,6.308841460E-2
1.044352058E1,-2.964149131E-2,-1.318122064E-2,-2.965532362E-2,4.395225596E-2
1.045351858E1,-1.692315772E-2,-1.947125096E-2,-4.072410285E-2,4.820762839E-2
1.046351658E1,-3.279272027E-2,-4.064162514E-2,-4.849563718E-2,7.126661927E-2
1.047351458E1,-4.474059183E-2,-5.638987624E-2,-5.147654772E-2,8.849504881E-2
1.048351358E1,-4.860501666E-2,-6.441713488E-2,-2.900569797E-2,8.575164969E-2
1.049351158E1,-2.771613110E-2,1.197879556E-2,-2.823795855E-2,4.134075192E-2
1.050350958E1,-5.234639414E-2,-1.824454052E-2,-6.817853451E-3,5.585240696E-2
1.051350758E1,-8.150276754E-2,-3.637313715E-2,1.026010931E-2,8.983861122E-2
1.052350658E1,5.607479811E-4,7.720314542E-2,9.982366562E-3,7.784784996E-2
1.053350458E1,-2.973042380E-2,3.393249335E-2,3.415943384E-3,4.524357273E-2
1.054350258E1,-6.175399767E-2,1.120048319E-2,-7.344687581E-3,6.318980525E-2
1.055350058E1,-3.536131075E-2,1.963984949E-2,-3.202520013E-2,5.159224194E-2
1.056349958E1,-3.126899069E-2,-5.833373055E-3,-5.116723001E-2,6.024834809E-2
1.057349758E1,6.048761867E-4,5.389274057E-2,-5.817745686E-2,7.930579958E-2
1.058349558E1,-4.440145332E-2,2.500694021E-2,-6.383873105E-2,8.168365625E-2
1.059349358E1,-5.047197780E-2,2.099202039E-2,-6.066778600E-2,8.166189883E-2
1.060349258E1,-7.077387599E-2,1.440220036E-2,-5.929310560E-2,9.344537051E-2
1.061349058E1,-7.413207812E-2,4.849668100E-3,-4.774777830E-2,8.831157693E-2
1.062348858E1,-7.831190541E-2,-3.815556491E-2,-5.760969222E-2,1.044388735E-1
1.063348758E1,-5.303110309E-2,-6.008829039E-2,-5.399552822E-2,9.663548833E-2
1.064348558E1,-3.934308188E-2,-2.926430021E-2,-5.157711983E-2,7.116513647E-2
1.065348358E1,-3.744650094E-2,9.741657707E-3,-4.855878711E-2,6.208942046E-2
1.066348158E1,-7.898197806E-2,-3.200051163E-2,-4.868450224E-2,9.814461962E-2
1.067348058E1,-6.332397508E-2,-1.406754890E-2,-1.063900888E-2,6.573439177E-2
1.068347858E1,-4.404314691E-2,1.670679590E-2,1.932446301E-2,5.091513223E-2
1.069347658E1,-6.199307570E-2,-2.373202793E-2,3.401617706E-2,7.458854394E-2
1.070347458E1,-4.271869775E-2,-1.455154304E-2,3.927223921E-2,5.982427028E-2
1.071347358E1,-1.767657146E-2,-1.480563654E-2,2.372390807E-2,3.308310544E-2
1.072347158E1,-1.365883995E-2,-2.144847780E-2,2.239834428E-2,3.388638274E-2
1.073346958E1,-1.200753143E-2,8.367442115E-3,2.585931122E-2,2.971361431E-2
1.074346758E1,-4.710149651E-2,3.070889139E-2,3.770050764E-2,6.769723229E-2
1.075346658E1,-6.445115380E-2,2.497387832E-2,4.998901606E-2,8.530268197E-2
1.076346458E1,-7.966217369E-2,1.951071282E-2,5.074330688E-2,9.644487039E-2
1.077346258E1,-7.010897448E-2,2.135877786E-2,3.591886103E-2,8.161881078E-2
1.078346058E1,-4.938426778E-2,1.735921840E-2,4.070188344E-2,6.630830779E-2
1.079345958E1,-2.639307065E-2,-1.308070792E-2,2.049215198E-2,3.588352534E-2
1.080345758E1,-1.993927946E-2,-1.654768425E-2,5.977023840E-3,2.659183208E-2
1.081345558E1,-2.084179720E-2,-9.359121895E-3,3.436993361E-3,2.310382212E-2
1.082345458E1,-4.887018789E-2,-2.134734838E-2,-1.168273687E-2,5.459387225E-2
1.083345258E1,-5.965002330E-2,-9.780050616E-3,-1.691774905E-2,6.276929904E-2
1.084345058E1,-5.988372920E-2,4.673592105E-3,-2.171012700E-2,6.386887427E-2
1.085344858E1,-6.126575517E-2,3.433869897E-3,-1.767847180E-2,6.385775273E-2
1.086344758E1,-4.629416049E-2,5.581999883E-3,-4.070246816E-3,4.680678292E-2
1.087344558E1,-4.538402310E-2,1.746947039E-3,4.453239441E-3,4.563543270E-2
1.088344358E1,-6.058621734E-2,-1.783016822E-2,2.645865083E-3,6.321079997E-2
1.089344158E1,-5.356829775E-2,2.926240215E-4,-2.003840804E-3,5.360656239E-2
1.090344058E1,-5.971061507E-2,1.765743782E-3,-2.056991994E-2,6.317908681E-2
1.091343858E1,-5.239940280E-2,6.088255126E-3,-1.608861387E-2,5.515077298E-2
1.092343658E1,-6.836542614E-2,7.630274958E-3,-2.148500919E-2,7.206703967E-2
1.093343458E1,-6.059873404E-2,1.266929235E-2,-2.119498730E-2,6.543657251E-2
1.094343358E1,-5.422225401E-2,4.175086707E-3,-2.704337239E-2,6.073572399E-2
1.095343158E1,-3.796534996E-2,-2.650676016E-2,-1.987351656E-2,5.038782385E-2
1.096342958E1,-4.207148407E-2,-1.599890936E-2,-4.548549056E-2,6.399144258E-2
1.097342858E1,-3.231593465E-2,-7.126358030E-3,-5.417562246E-2,6.348308972E-2
1.098342658E1,-3.685050521E-2,-8.942657958E-3,-6.675941527E-2,7.677727784E-2
1.099342458E1,-4.080221800E-2,1.573668458E-3,-8.143943489E-2,9.110257395E-2
1.100342258E1,-4.730437662E-2,-5.707938859E-4,-8.039804578E-2,9.328384436E-2
1.101342158E1,-5.265889127E-2,5.933492918E-3,-7.786503196E-2,9.418666768E-2
1.102341958E1,-4.279122150E-2,1.246750059E-2,-7.982034087E-2,9.142108086E-2
1.103341758E1,-2.942620413E-2,-4.118593696E-3,-1.031881535E-1,1.073809076E-1
1.104341558E1,-3.614957023E-2,-3.805111845E-3,-1.311922234E-1,1.361347487E-1
1.105341458E1,-3.053408705E-2,3.705271209E-3,-1.541098005E-1,1.571492606E-1
1.106341258E1,-2.976283930E-2,-4.350726730E-3,-1.646049678E-1,1.673306632E-1
1.107341058E1,-4.151837401E-2,-3.353532922E-3,-1.709070969E-1,1.759097988E-1
1.108340858E1,-4.602719855E-2,1.854725156E-2,-1.611954564E-1,1.686608393E-1
1.109340758E1,-5.473960469E-2,1.501004812E-2,-1.460950220E-1,1.567337912E-1
1.110340558E1,-4.974502271E-2,-7.360572422E-4,-1.274038124E-1,1.367729523E-1
1.111340358E1,-6.024240106E-2,-2.108359555E-2,-1.398496109E-1,1.537256601E-1
1.112340158E1,-5.229038877E-2,-2.494688063E-2,-1.296918279E-1,1.420443657E-1
1.113340058E1,-4.223502338E-2,-1.048934871E-2,-1.264191413E-1,1.336997491E-1
1.114339858E1,-3.392137907E-2,-1.198948957E-2,-1.222465682E-1,1.274308882E-1
1.115339658E1,-4.420502342E-2,-1.963362997E-2,-1.200170249E-1,1.293972557E-1
1.116339558E1,-4.992071327E-2,-5.315179556E-3,-1.017731273E-1,1.134817086E-1
1.117339358E1,-5.356250536E-2,-4.835166548E-3,-8.158327639E-2,9.771464477E-2
1.118339158E1,-5.120498110E-2,1.932861231E-3,-6.708101213E-2,8.441296245E-2
1.119338958E1,-5.670344688E-2,-1.171572910E-2,-5.856454253E-2,8.235499280E-2
1.120338858E1,-5.253312131E-2,-1.546071199E-2,-5.603737593E-2,7.835145149E-2
1.121338658E1,-3.055418685E-2,-4.479607586E-3,-5.171394467E-2,6.023252686E-2
1.122338458E1,-3.281583505E-2,-2.404261101E-2,-5.352716625E-2,6.723156774E-2
1.123338258E1,-3.336680721E-2,2.276421981E-3,-3.363376915E-2,4.743159652E-2
1.124338158E1,-4.101160314E-2,1.117240742E-2,-8.644523621E-3,4.337628463E-2
1.125337958E1,-3.941045277E-2,1.104416953E-2,9.154400826E-3,4.193996331E-2
1.126337758E1,-2.804666324E-2,2.313005936E-2,3.204391122E-2,4.846057378E-2
1.127337558E1,-6.329870414E-2,1.403361678E-2,3.008333981E-2,7.147500038E-2
1.128337458E1,-7.194092542E-2,1.727922004E-2,1.689552963E-2,7.589154839E-2
1.129337258E1,-7.603253284E-2,6.596680235E-3,1.388421357E-2,7.757082974E-2
1.130337029E1,-6.816265566E-2,-5.975503221E-4,9.071370363E-3,6.876623047E-2
1.131336929E1,-4.690875767E-2,-3.857844709E-3,1.264343441E-2,4.873572555E-2
1.132336729E1,-3.634269280E-2,-1.285052291E-2,4.538608789E-3,3.881399527E-2
1.133336529E1,-2.260860650E-2,-1.854749367E-2,9.161417484E-3,3.064457831E-2
1.134336329E1,-1.441287495E-2,1.056704816E-2,3.938918352E-2,4.325391600E-2
1.135336229E1,-2.770169578E-2,2.004888735E-2,3.938216686E-2,5.215646556E-2
1.136336029E1,-5.298662771E-2,9.385832936E-3,4.551180303E-2,7.047695219E-2
1.137335829E1,-6.621631857E-2,-1.631182105E-2,5.598416626E-2,8.823209860E-2
1.138335629E1,-6.347795784E-2,-2.130853292E-2,6.271314204E-2,9.174117337E-2
1.139335529E1,-6.230522566E-2,-8.602555002E-3,7.467946887E-2,9.763692010E-2
1.140335329E1,-6.242436267E-2,4.258358710E-3,6.494268537E-2,9.018030304E-2
1.141335129E1,-3.807542380E-2,2.470185945E-3,8.978165746E-2,9.755298935E-2
1.142334929E1,-3.710314147E-2,9.391549389E-3,1.019000119E-1,1.088506166E-1
1.143334829E1,-4.557650613E-2,9.680303056E-3,9.725732267E-2,1.078420743E-1
1.144334629E1,-4.128435748E-2,3.066999941E-3,9.366362393E-2,1.024044877E-1
1.145334429E1,-2.739634322E-2,-1.328498017E-2,8.663117766E-2,9.182598360E-2
1.146334229E1,-4.678479670E-2,-8.794199208E-3,5.504919648E-2,7.277753207E-2
1.147334129E1,-5.512689136E-2,-5.277332539E-3,4.756534517E-2,7.300196196E-2
1.148333929E1,-6.221183466E-2,-1.268127800E-2,3.170126438E-2,7.096546587E-2
1.149333729E1,-6.492940122E-2,-1.235039012E-3,3.095632911E-2,7.194196812E-2
1.150333629E1,-6.226387488E-2,-5.513832998E-3,3.215676248E-2,7.029402423E-2
1.151333429E1,-7.023940394E-2,5.938139856E-3,2.107862771E-2,7.357407095E-2
1.152333229E1,-5.422464771E-2,1.563151464E-2,2.047987282E-2,6.003400586E-2
1.153333029E1,-4.203895893E-2,6.739231812E-3,2.602010965E-2,4.989726866E-2
1.154332929E1,-4.496775616E-2,1.897407775E-3,3.261226058E-2,5.558110102E-2
1.155332729E1,-5.078721581E-2,-1.272762403E-3,4.384359241E-2,6.710604897E-2
1.156332529E1,-5.069247264E-2,1.016508063E-2,4.684379876E-2,6.976673368E-2
1.157332329E1,-4.469321111E-2,2.031812793E-3,5.568011105E-2,7.142748875E-2
1.158332229E1,-2.432072606E-2,-5.773105620E-3,5.134732425E-2,5.710844222E-2
1.159332029E1,-1.432399727E-2,2.405523392E-3,2.740005255E-2,3.101171263E-2
1.160331829E1,-2.411422798E-2,1.627303100E-3,1.318254769E-2,2.753041355E-2
1.161331629E1,-3.029727481E-2,2.461351453E-3,-1.177044511E-3,3.041987090E-2
1.162331529E1,-5.334542748E-2,3.645529396E-3,7.770949602E-4,5.347549339E-2
1.163331329E1,-7.752138013E-2,2.197463156E-3,-1.088810027E-2,7.831311480E-2
1.164331129E1,-8.784188021E-2,-5.177582694E-3,-2.255563438E-2,9.083919817E-2
1.165330929E1,-8.146085031E-2,-6.148977662E-3,-2.703986406E-2,8.605134693E-2
1.166330829E1,-4.733273562E-2,-7.635656795E-3,-1.940164626E-2,5.172151384E-2
1.167330629E1,-4.266614590E-2,-1.948222820E-2,-1.131319284E-2,4.824878811E-2
1.168330429E1,-4.991554214E-2,-1.129284636E-2,-4.566675425E-3,5.138038780E-2
1.169330229E1,-3.699222710E-2,1.577349948E-3,6.224361062E-3,3.754538013E-2
1.170330129E1,-4.393139200E-2,9.095887556E-3,-7.536476254E-3,4.549176682E-2
1.171329929E1,-4.160865868E-2,4.686453125E-3,-1.171314240E-2,4.347920221E-2
1.172329729E1,-4.787842702E-2,-1.224276195E-2,-1.739254296E-2,5.239016649E-2
1.173329629E1,-5.763315417E-2,-1.618226297E-2,-2.830812514E-2,6.621779250E-2
1.174329429E1,-5.000834841E-2,-3.605809728E-3,-3.218365967E-2,5.957872712E-2
1.175329229E1,-2.323224859E-2,3.741149302E-2,-1.315331161E-2,4.596049163E-2
1.176329029E1,-3.701044483E-2,1.448859068E-2,3.029442430E-3,3.986062980E-2
1.177328929E1,-3.482163101E-2,-2.143913368E-2,1.711596966E-2,4.432988672E-2
1.178328729E1,-3.581743011E-2,1.344975288E-2,6.202726364E-3,3.875897273E-2
1.179328529E1,-5.106494028E-2,-9.200286622E-3,-2.166978121E-3,5.193235209E-2
1.180328329E1,-3.393601539E-2,5.477872050E-3,-2.100904584E-2,4.028697345E-2
1.181328229E1,-5.255344039E-2,-1.610407587E-2,-3.671115875E-2,6.609776496E-2
1.182328029E1,-5.149849305E-2,-2.294807591E-3,-2.486879289E-2,5.723476031E-2
1.183327829E1,-6.183584042E-2,1.274591828E-2,-2.649899662E-2,6.847135470E-2
1.184327629E1,-5.640750468E-2,3.561949615E-3,-4.025632560E-2,6.939067531E-2
1.185327529E1,-4.388876215E-2,3.588416831E-3,-3.545108378E-2,5.653211051E-2
1.186327329E1,-3.332806941E-2,-8.158708508E-3,-4.501186609E-2,5.659852316E-2
1.187327129E1,-2.988086170E-2,-4.982196613E-3,-5.412592113E-2,6.202663554E-2
1.188326929E1,-3.359899649E-2,-2.561247421E-2,-6.413752377E-2,7.680177964E-2
1.189326829E1,-4.208178978E-2,-9.871085597E-3,-5.139117837E-2,6.715183226E-2
1.190326629E1,-4.928365912E-2,-6.104120267E-3,-4.298756003E-2,6.568157777E-2
1.191326429E1,-6.067155015E-2,-5.520395698E-3,-4.072117925E-2,7.327841568E-2
1.192326329E1,-4.539604643E-2,-1.067739379E-2,-4.593864977E-2,6.546118936E-2
1.193326129E1,-4.861992706E-2,8.961254844E-3,-5.594849825E-2,7.466214470E-2
1.194325929E1,-5.254781244E-2,-2.061117536E-3,-7.703414261E-2,9.327261080E-2
1.195325729E1,-3.860318983E-2,-1.052646425E-3,-8.510330021E-2,9.345526222E-2
1.196325629E1,-3.852392351E-2,1.278095561E-3,-9.601537406E-2,1.034634151E-1
1.197325429E1,-3.410372084E-2,1.341279551E-2,-1.040833622E-1,1.103463327E-1
1.198325229E1,-3.559388375E-2,7.002713402E-3,-9.732982814E-2,1.038703904E-1
1.199325029E1,-3.747564565E-2,-7.319968820E-3,-8.010042250E-2,8.873603352E-2
1.200324929E1,-5.060977109E-2,-6.367971876E-3,-7.439821780E-2,9.020529257E-2
1.201324729E1,-4.374811834E-2,5.079238123E-3,-8.082196891E-2,9.204285511E-2
1.202324529E1,-4.031306187E-2,-5.372661854E-4,-9.263451397E-2,1.010276437E-1
1.203324329E1,-5.118913880E-2,5.918697293E-3,-9.936056614E-2,1.119280171E-1
1.204324229E1,-5.977961222E-2,-8.146670324E-3,-1.207631296E-1,1.349951990E-1
1.205324029E1,-5.087817656E-2,3.190397319E-3,-1.294427365E-1,1.391193355E-1
1.206323829E1,-4.750864545E-2,-1.744338062E-3,-1.152246469E-1,1.246468346E-1
1.207323629E1,-4.243969420E-2,-6.679366945E-3,-9.606507540E-2,1.052342164E-1
1.208323529E1,-2.665217539E-2,-5.505232337E-3,-6.058709443E-2,6.641868749E-2
1.209323329E1,-4.430672843E-2,-1.669987631E-2,-3.244503021E-2,5.739905956E-2
1.210323129E1,-4.423009336E-2,3.782433899E-3,-3.319113493E-2,5.542796589E-2
1.211323029E1,-5.625522126E-2,-2.279049373E-3,-3.798292816E-2,6.791573320E-2
1.212322829E1,-5.268202431E-2,1.021169847E-2,-4.532235324E-2,7.024094372E-2
1.213322629E1,-5.513792798E-2,-6.474254728E-3,-6.733302712E-2,8.726880094E-2
1.214322429E1,-3.561617626E-2,-2.600360726E-2,-6.704066634E-2,8.024431784E-2
1.215322329E1,-3.498940956E-2,-2.585935234E-2,-8.006709337E-2,9.112466365E-2
1.216322129E1,-3.303527009E-2,-1.199397320E-2,-9.384254873E-2,1.002078261E-1
1.217321929E1,-4.573297396E-2,-1.195658756E-2,-7.498527825E-2,8.864116903E-2
1.218321729E1,-5.972519657E-2,7.720430287E-4,-6.272600591E-2,8.661551231E-2
1.219321629E1,-5.599054338E-2,3.410445631E-3,-6.454039693E-2,8.551043751E-2
1.220321429E1,-5.280278759E-2,-2.528499930E-3,-8.206976473E-2,9.762158559E-2
1.221321229E1,-4.145348819E-2,8.285481168E-3,-9.032077074E-2,9.972403175E-2
1.222321029E1,-3.425467037E-2,6.469926418E-3,-1.047166157E-1,1.103667159E-1
1.223320929E1,-3.324513031E-2,1.669207764E-3,-1.019000119E-1,1.071990549E-1
1.224320729E1,-3.307154110E-2,-1.109667570E-2,-9.159663320E-2,9.801431658E-2
1.225320529E1,-3.046424937E-2,2.119593547E-3,-6.527948499E-2,7.206923287E-2
1.226320329E1,-4.672515510E-2,-7.224418806E-3,-5.512462556E-2,7.262338941E-2
1.227320229E1,-6.051860891E-2,-1.256823601E-2,-2.595754445E-2,6.703921759E-2
1.228320029E1,-4.880338345E-2,2.253346178E-3,-1.685109079E-2,5.167985164E-2
1.229319829E1,-5.207681922E-2,3.553946239E-3,-2.720417082E-2,5.886163899E-2
1.230319754E1,-5.114237934E-2,-5.123585028E-3,-2.753219962E-2,5.830794204E-2
1.231319554E1,-5.099053446E-2,5.036201131E-3,-3.609837055E-2,6.267766973E-2
1.232319354E1,-5.116856391E-2,1.235073558E-2,-1.756678998E-2,5.549193376E-2
1.233319154E1,-5.326292692E-2,5.469169749E-3,3.314845026E-2,6.297357347E-2
1.234319054E1,-5.087240243E-2,7.764089402E-3,3.940146267E-2,6.481325231E-2
1.235318854E1,-5.102832209E-2,-9.489288111E-3,4.101880252E-2,6.615495752E-2
1.236318654E1,-5.459062859E-2,-9.638834648E-3,3.694914043E-2,6.662043862E-2
1.237318454E1,-5.418887006E-2,7.723114924E-3,2.045356035E-2,5.843310940E-2
1.238318354E1,-5.967039719E-2,-3.777146280E-3,-9.960731864E-3,6.061385415E-2
1.239318154E1,-5.281552356E-2,-8.409643138E-3,-2.944950163E-2,6.105304884E-2
1.240317954E1,-4.836833233E-2,-1.473889834E-2,-4.444410145E-2,6.732019645E-2
1.241317754E1,-3.163723737E-2,-5.266336804E-2,-3.753912449E-3,6.155028010E-2
1.242317654E1,-3.649682175E-2,8.742885893E-3,1.598277926E-2,4.079099514E-2
1.243317454E1,-3.736666817E-2,2.287499971E-2,4.200932086E-2,6.069857116E-2
1.244317254E1,-2.889672048E-2,1.997979741E-3,7.447832465E-2,7.991265995E-2
1.245317054E1,-6.516628655E-2,2.334325890E-2,7.251482964E-2,1.002494546E-1
1.246316954E1,-5.675365984E-2,1.096446368E-3,6.127297282E-2,8.352578823E-2
1.247316754E1,-4.693351697E-2,-2.436932419E-2,6.635303378E-2,8.484894854E-2
1.248316554E1,-7.423524493E-2,-2.336038598E-3,4.403596580E-2,8.634520804E-2
1.249316454E1,-5.312683297E-2,-2.100765684E-3,5.360434949E-2,7.550033035E-2
1.250316254E1,-5.317576686E-2,5.265203564E-3,5.060121953E-2,7.359258093E-2
1.251316054E1,-7.737227613E-2,1.272279323E-2,6.002517700E-2,9.874897698E-2
1.252315854E1,-7.280631334E-2,8.087652846E-3,6.885037959E-2,1.005313093E-1
1.253315754E1,-6.164914979E-2,8.588573361E-4,7.976830065E-2,1.008183371E-1
1.254315554E1,-7.286465758E-2,2.155522831E-2,6.568586648E-2,1.004416211E-1
1.255315354E1,-2.965556117E-2,-7.675056550E-4,8.887416959E-2,9.369450034E-2
1.256315154E1,-1.771163648E-2,-1.400899680E-2,9.919450521E-2,1.017325116E-1
1.257315054E1,-4.865687415E-3,2.134885386E-3,9.529382765E-2,9.544184742E-2
1.258314854E1,-5.371891838E-3,-7.093434894E-4,8.586577713E-2,8.603657404E-2
1.259314654E1,-2.199662229E-2,3.922325050E-2,5.234310508E-2,6.900808229E-2
1.260314454E1,-4.446440225E-2,3.733683367E-2,3.303676844E-2,6.680232245E-2
1.261314354E1,-9.836325042E-2,1.056389157E-2,3.723156095E-2,1.057029516E-1
1.262314154E1,-9.401809311E-2,-3.191439539E-2,6.328149140E-2,1.177390233E-1
1.263313954E1,-8.526411692E-2,-3.387007433E-2,6.088471770E-2,1.101094929E-1
1.264313854E1,-7.745632986E-2,-2.634921196E-2,5.699339569E-2,9.970963423E-2
1.265313654E1,-5.996955536E-2,3.026340093E-3,2.930449069E-2,6.681511415E-2
1.266313454E1,-3.851131545E-2,8.873850962E-3,1.628683448E-2,4.274491345E-2
1.267313254E1,-3.030940779E-2,-1.113994867E-4,4.771912694E-3,3.068295554E-2
1.268313154E1,-3.617131457E-2,-9.652523928E-5,1.122723877E-2,3.787379312E-2
1.269312954E1,-2.925743887E-2,-5.418056290E-3,3.617672324E-3,2.997399901E-2
1.270312754E1,-6.258252986E-2,-4.479747199E-3,-9.229829907E-3,6.341790708E-2
1.271312554E1,-4.625863865E-2,-1.783219990E-2,8.461505771E-3,5.029359883E-2
1.272312454E1,-5.052789180E-2,-2.133553518E-2,-7.075715661E-3,5.530224826E-2
1.273312254E1,-6.992537191E-2,-4.398250489E-3,-2.021850228E-2,7.292249364E-2
1.274312054E1,-4.998114059E-2,2.549038846E-2,-1.569451153E-2,5.825969456E-2
1.275311854E1,-4.577363038E-2,4.197047342E-2,-2.194869339E-2,6.586722265E-2
1.276311754E1,-2.669624878E-2,4.179791660E-2,1.506301224E-2,5.183290334E-2
1.277311554E1,-1.670377750E-2,1.940441455E-2,2.841746807E-4,2.560523856E-2
1.278311354E1,-4.525991594E-2,-2.178469042E-2,-6.858199239E-3,5.069583439E-2
1.279311154E1,-7.202631304E-2,-3.382531115E-2,-1.415026188E-2,8.082184949E-2
1.280311054E1,-8.835345676E-2,-4.494966234E-3,-4.060832798E-2,9.734256184E-2
1.281310854E1,-6.751752505E-2,2.725205175E-2,-4.326413333E-2,8.469401246E-2
1.282310654E1,-3.969523044E-2,3.056901731E-2,-5.759682834E-2,7.633852746E-2
1.283310454E1,-4.236086642E-2,2.145463565E-2,-4.109598577E-2,6.279828375E-2
1.284310354E1,-5.949002886E-2,-3.324339442E-2,-2.654402018E-2,7.313529800E-2
1.285310154E1,-2.438848067E-2,-1.544568281E-2,-1.124361098E-2,3.098041147E-2
1.286309954E1,-2.775830414E-2,-1.850935658E-2,-4.022299647E-3,3.360503867E-2
1.287309854E1,-3.763180286E-2,-5.486539291E-2,-1.851170003E-2,6.905828671E-2
1.288309654E1,-3.284176379E-2,1.222415478E-2,-4.093050957E-2,5.388244633E-2
1.289309454E1,-6.233120922E-2,2.163019373E-2,-5.541932523E-2,8.616464781E-2
1.290309254E1,-5.279984571E-2,3.139934477E-2,-6.048418343E-2,8.620950646E-2
1.291309154E1,-4.932208629E-2,3.567088655E-2,-5.881480336E-2,8.464196027E-2
1.292308954E1,-5.118177496E-2,-1.192529925E-2,-2.391745090E-2,5.773933934E-2
1.293308754E1,-2.931430304E-2,-2.583002033E-2,6.043097377E-3,3.953526703E-2
1.294308554E1,-8.561785519E-3,-2.540278072E-2,3.285784364E-2,4.240569924E-2
1.295308454E1,4.117846806E-3,-2.684876746E-2,2.091256678E-2,3.428043795E-2
1.296308254E1,-2.085975911E-2,-1.212047063E-2,1.285627306E-2,2.733713803E-2
1.297308054E1,-5.039302211E-2,-2.949560841E-3,-2.364204705E-2,5.574139373E-2
1.298307854E1,-9.296698300E-2,-6.313155371E-3,-2.002905250E-2,9.530938465E-2
1.299307754E1,-1.034843515E-1,1.015529168E-3,-3.453190148E-2,1.090985542E-1
1.300307554E1,-8.522623792E-2,1.561512644E-3,-3.197374463E-2,9.103993793E-2
1.301307354E1,-4.902086332E-2,3.719763625E-3,-1.774513006E-2,5.226634982E-2
1.302307154E1,-2.681840077E-2,1.133804694E-2,-1.568223238E-3,2.915882803E-2
1.303307054E1,-1.048301613E-2,-7.554104696E-3,-1.128395677E-2,1.715476042E-2
1.304306854E1,-1.875755718E-2,-9.830804905E-3,-2.024832308E-2,2.929991918E-2
1.305306654E1,-4.217843330E-2,-1.226177682E-3,-4.448152363E-2,6.131174187E-2
1.306306554E1,-4.836592035E-2,1.331634386E-2,-7.335448980E-2,8.886770189E-2
1.307306354E1,-5.904273514E-2,3.656745658E-2,-6.914624870E-2,9.800217937E-2
1.308306154E1,-6.688454568E-2,1.760390039E-2,-6.449420393E-2,9.456713013E-2
1.309305954E1,-6.625405138E-2,1.467541037E-2,-4.023936868E-2,7.889343310E-2
1.310305854E1,-6.118124463E-2,-3.786158930E-3,2.575698495E-3,6.135237498E-2
1.311305654E1,-4.959959149E-2,-3.670313254E-3,2.323449612E-2,5.489474005E-2
1.312305454E1,-3.277852250E-2,-1.135016506E-2,5.392243803E-2,6.411620004E-2
1.313305254E1,-3.875192838E-2,-1.846897539E-2,7.832228422E-2,8.931514547E-2
1.314305154E1,-3.667865189E-2,-1.547125867E-2,8.251766145E-2,9.161794475E-2
1.315304954E1,-3.928983567E-2,-2.000581667E-2,5.348506629E-2,6.931505034E-2
1.316304754E1,-5.184201697E-2,-1.240455623E-2,2.325320721E-2,5.815650767E-2
1.317304554E1,-5.879640291E-2,-7.396510243E-3,-1.312349081E-2,6.069556301E-2
1.318304454E1,-5.736463906E-2,-2.642742190E-3,-1.866372764E-2,6.038228739E-2
1.319304254E1,-5.260632114E-2,1.388105927E-2,-1.193299770E-2,5.570013703E-2
1.320304054E1,-4.683310932E-2,8.184555599E-3,-2.958691120E-3,4.763487096E-2
1.321303954E1,-4.158190766E-2,-7.476555998E-5,-1.134535253E-2,4.310194495E-2
1.322303754E1,-2.298511237E-2,-1.092310819E-2,-2.931618512E-2,3.882097877E-2
1.323303554E1,-1.887912445E-2,-8.428153801E-3,-5.416685164E-2,5.797846956E-2
1.324303354E1,-2.503728407E-2,5.444363051E-4,-9.833028674E-2,1.014692431E-1
1.325303254E1,-3.467110176E-2,6.102467172E-3,-1.037255126E-1,1.095367855E-1
1.326303054E1,-5.364290457E-2,1.199387270E-2,-9.280642211E-2,1.078630900E-1
1.327302854E1,-6.586844578E-2,7.272861046E-3,-6.632379770E-2,9.375709466E-2
1.328302654E1,-5.628295898E-2,-1.003410300E-2,-4.508144796E-2,7.280653573E-2
1.329302554E1,-4.160368854E-2,-1.396025478E-2,-3.208074868E-2,5.435926829E-2
1.330302383E1,-3.666246241E-2,-1.740182199E-2,-3.270230770E-2,5.211909907E-2
1.331302183E1,-3.970283182E-2,-1.361303295E-2,-4.200230420E-2,5.937864160E-2
1.332301983E1,-3.607872756E-2,-9.616626649E-3,-4.935400844E-2,6.188676950E-2
1.333301883E1,-3.740776313E-2,-1.317180686E-2,-5.146719217E-2,6.497468052E-2
1.334301683E1,-5.044537297E-2,-1.051872983E-3,-5.567250967E-2,7.513501463E-2
1.335301483E1,-3.862339927E-2,-1.139798432E-2,-2.634229124E-2,4.812065383E-2
1.336301283E1,-4.206037436E-2,-1.800958866E-2,-1.138218999E-2,4.714843183E-2
1.337301183E1,-4.395551177E-2,7.739283275E-3,-7.352873683E-3,4.523326510E-2
1.338300983E1,-5.279445531E-2,1.496038790E-2,4.467857480E-3,5.505478606E-2
1.339300783E1,-6.223756241E-2,2.244867145E-2,1.918471456E-3,6.619016208E-2
1.340300583E1,-5.714237178E-2,9.693986911E-3,-4.676603079E-3,5.814718094E-2
1.341300483E1,-5.531727305E-2,-1.897659593E-3,-3.028156042E-2,6.309179591E-2
1.342300283E1,-4.271213790E-2,-4.745309576E-3,-5.947846234E-2,7.337937155E-2
1.343300083E1,-3.403731840E-2,-1.806471580E-3,-4.421489060E-2,5.582794044E-2
1.344299983E1,-5.890313286E-2,-1.638777404E-3,-3.434069753E-2,6.820225919E-2
1.345299783E1,-4.699752571E-2,3.234944651E-3,-3.149836600E-2,5.666903343E-2
1.346299583E1,-5.316663058E-2,-1.133512105E-2,-4.287587821E-2,6.923522593E-2
1.347299383E1,-5.296232522E-2,-2.154727091E-3,-4.422600031E-2,6.903325173E-2
1.348299283E1,-4.677306572E-2,-4.216180528E-3,-4.946802914E-2,6.820983626E-2
1.349299083E1,-3.233974379E-2,2.981109825E-3,-5.815231383E-2,6.660658862E-2
1.350298883E1,-3.560102832E-2,1.018432077E-3,-3.779815614E-2,5.193429530E-2
1.351298683E1,-3.732334396E-2,1.119182914E-3,-2.373384833E-2,4.424454917E-2
1.352298583E1,-5.453195544E-2,4.768299868E-3,-3.231171370E-3,5.483531085E-2
1.353298383E1,-5.919094378E-2,9.446597726E-3,2.939161420E-2,6.675831798E-2
1.354298183E1,-5.697307661E-2,7.109699604E-4,5.139059365E-2,7.672959046E-2
1.355297983E1,-3.616943249E-2,-5.506480010E-3,4.764837563E-2,6.007426129E-2
1.356297883E1,-3.310033863E-2,9.242459094E-3,2.534241736E-2,4.270004198E-2
1.357297683E1,-4.292081041E-2,-9.042303306E-3,1.950631142E-2,4.800474352E-2
1.358297483E1,-5.060355842E-2,-1.821801449E-2,1.427012980E-2,5.564398244E-2
1.359297283E1,-6.228903618E-2,-1.462596028E-2,1.472387373E-2,6.565542780E-2
1.360297183E1,-6.866845809E-2,-1.577661923E-2,3.044235885E-2,7.675282446E-2
1.361296983E1,-5.182546204E-2,-1.018198388E-2,3.508504808E-2,6.340750673E-2
1.362296783E1,-4.046898153E-2,-7.109788255E-3,2.640719533E-2,4.884288607E-2
1.363296683E1,-4.420202672E-2,-3.836005301E-3,2.466355562E-3,4.443666294E-2
1.364296483E1,-4.587959290E-2,-1.131415244E-3,-1.818717957E-2,4.936588544E-2
1.365296283E1,-4.693715321E-2,-4.008907582E-3,-2.297312558E-2,5.241118383E-2
1.366296083E1,-4.325521633E-2,9.891242502E-3,3.541249216E-2,5.677054711E-2
1.367295983E1,-4.671665836E-2,1.268929051E-2,1.170057088E-1,1.266246428E-1
1.368295783E1,-6.691756418E-2,2.603532155E-2,2.095221090E-1,2.214843393E-1
1.369295583E1,-7.176782956E-2,2.809797712E-2,2.595251584E-1,2.707275855E-1
1.370295383E1,-8.341968583E-2,3.192583629E-2,3.298841196E-1,3.417625424E-1
1.371295283E1,-6.009163426E-2,9.802758826E-3,3.902121824E-1,3.949337234E-1
1.372295083E1,-2.810166361E-2,6.308606078E-3,4.586275291E-1,4.595309701E-1
1.373294883E1,-2.877694393E-2,-2.510353348E-2,4.864807409E-1,4.879772650E-1
1.374294683E1,-3.905603841E-2,-2.570789803E-2,5.322960144E-1,5.343456907E-1
1.375294583E1,-7.300939444E-2,-4.489001674E-3,5.802110231E-1,5.848036885E-1
1.376294383E1,-1.049623632E-1,2.021812712E-3,6.167549515E-1,6.256259710E-1
1.377294183E1,-9.906981334E-2,-4.784599553E-3,6.601798832E-1,6.675890941E-1
1.378293983E1,-9.310424639E-2,-3.934074299E-2,7.080978155E-1,7.152751995E-1
1.379293883E1,-8.510258758E-2,-6.634623182E-3,7.501808113E-1,7.550216674E-1
1.380293683E1,-7.559563620E-2,1.507980129E-2,7.795402658E-1,7.833422794E-1
1.381293483E1,-8.482078834E-2,1.154349091E-2,8.292568016E-1,8.336633981E-1
1.382293383E1,-5.632834800E-2,1.881887643E-2,8.825658667E-1,8.845617796E-1
1.383293183E1,-6.382469773E-2,7.627226869E-3,9.538358241E-1,9.559992396E-1
1.384292983E1,-7.429696960E-2,4.366391158E-3,1.058337262E0,1.060950925E0
1.385292783E1,-8.039415373E-2,2.226284419E-2,1.181850337E0,1.184790730E0
1.386292683E1,-9.832559070E-2,1.928398703E-2,1.313595707E0,1.317411658E0
1.387292483E1,-1.271821481E-1,2.278495487E-2,1.430218424E0,1.436042894E0
1.388292283E1,-9.836895145E-2,1.274365020E-2,1.526334955E0,1.529554590E0
1.389292083E1,-6.849084891E-2,-3.002543410E-2,1.598352186E0,1.600100695E0
1.390291983E1,-9.275684869E-2,-1.996115399E-2,1.631750897E0,1.634507042E0
1.391291783E1,-1.165283567E-1,-3.616594244E-2,1.654373775E0,1.658866908E0
1.392291583E1,-1.154751453E-1,5.133501312E-4,1.765462101E0,1.769234638E0
1.393291383E1,-1.519958675E-1,2.684143332E-2,1.951689488E0,1.957783201E0
1.394291283E1,-1.982676807E-1,4.686402190E-2,2.118152701E0,2.127927906E0
1.395291083E1,-1.703077938E-1,2.835556753E-2,2.276372509E0,2.282910551E0
1.396290883E1,-1.443427393E-1,3.094882594E-2,2.397318656E0,2.401859571E0
1.397290683E1,-1.071042896E-1,-2.257364883E-2,2.481139078E0,2.483552299E0
1.398290583E1,-1.139600769E-1,4.968640666E-3,2.566607829E0,2.569141361E0
1.399290383E1,-9.706917023E-2,4.279183134E-3,2.643397558E0,2.645182675E0
1.400290183E1,-1.112202726E-1,-3.460763663E-3,2.658219665E0,2.660547634E0
1.401290083E1,-1.451438810E-1,1.746940415E-2,2.645199085E0,2.649235762E0
1.402289883E1,-1.311760522E-1,3.626764059E-2,2.606281772E0,2.609832786E0
1.403289683E1,-1.521280512E-1,5.859857972E-2,2.526647372E0,2.531901199E0
1.404289483E1,-1.534240682E-1,5.522574128E-2,2.441616578E0,2.447055443E0
1.405289383E1,-1.273095809E-1,3.238468740E-2,2.374698703E0,2.378329335E0
1.406289183E1,-1.229050195E-1,3.983882070E-2,2.297592055E0,2.301221855E0
1.407288983E1,-1.413532590E-1,9.100647555E-2,2.250719604E0,2.256989513E0
1.408288783E1,-1.061223229E-1,6.738073675E-2,2.258331510E0,2.261827429E0
1.409288683E1,-1.002163792E-1,7.853067351E-2,2.256055189E0,2.259644973E0
1.410288483E1,-1.480320583E-1,1.375851853E-1,2.193740242E0,2.203029601E0
1.411288283E1,-1.022388763E-1,1.163269293E-1,2.092054823E0,2.097779332E0
1.412288083E1,-6.712665696E-2,4.585403417E-2,1.959237074E0,1.960922867E0
1.413287983E1,-1.010262369E-1,-2.207350404E-2,1.818042018E0,1.820980593E0
1.414287783E1,-8.275178762E-2,-1.330143529E-1,1.702745451E0,1.709936474E0
1.415287583E1,-6.285236059E-2,-8.442697836E-2,1.653920031E0,1.657265761E0
1.416287383E1,-1.051488163E-1,5.686706157E-3,1.588335906E0,1.591822717E0
1.417287283E1,-1.440504516E-1,5.428698908E-2,1.582022667E0,1.589494677E0
1.418287083E1,-1.745700851E-1,-1.757543975E-3,1.595618028E0,1.605140086E0
1.419286883E1,-1.344568884E-1,-1.038924324E-1,1.495599065E0,1.505220534E0
1.420286683E1,-1.580180611E-1,-7.900157536E-2,1.425217300E0,1.436125102E0
1.421286583E1,-8.016812230E-2,-8.523047715E-2,1.424455993E0,1.429253664E0
1.422286383E1,-2.738751758E-2,-1.275280475E-1,1.431643975E0,1.437573633E0
1.423286183E1,-9.162605200E-2,7.900890266E-4,1.422671422E0,1.425619140E0
1.424286083E1,-1.341586621E-1,-2.548278251E-5,1.416093889E0,1.422434691E0
1.425285883E1,-9.876307206E-2,-2.458408716E-3,1.371942149E0,1.375494619E0
1.426285683E1,-1.128775380E-1,5.893014426E-2,1.327341927E0,1.333435672E0
1.427285483E1,-9.045618860E-2,3.413878358E-2,1.254014919E0,1.257736536E0
1.428285383E1,-6.995855486E-2,-8.392441018E-2,1.108381242E0,1.113753332E0
1.429285183E1,-1.724773849E-1,-5.268843798E-4,1.037134674E0,1.051378646E0
1.430284967E1,-1.509391478E-1,7.839416843E-2,9.325116134E-1,9.478956594E-1
1.431284767E1,-2.560046230E-2,5.748215896E-2,8.162046468E-1,8.186266596E-1
1.432284667E1,-7.550266547E-2,1.793143880E-1,8.046856320E-1,8.278727369E-1
1.433284467E1,-1.976528825E-2,-1.513155029E-2,7.732656187E-1,7.736661731E-1
1.434284267E1,2.040406002E-2,-5.580798235E-2,6.954292381E-1,6.979632381E-1
1.435284067E1,-9.753877474E-2,1.676660949E-1,6.283780468E-1,6.576356906E-1
1.436283967E1,-5.410763031E-2,5.804472049E-2,4.783993042E-1,4.849357890E-1
1.437283767E1,-6.889171209E-2,8.397268625E-2,3.471187878E-1,3.637154559E-1
1.438283567E1,-1.316265071E-1,4.449690455E-2,3.307886839E-1,3.587849847E-1
1.439283367E1,-5.957834009E-2,5.217137053E-3,3.113127780E-1,3.170054303E-1
1.440283267E1,-4.933657642E-2,1.206417999E-1,2.572593623E-1,2.883936913E-1
1.441283067E1,-1.027617088E-1,4.425160015E-2,2.382266754E-1,2.631921765E-1
1.442282867E1,-7.976587040E-2,-1.035929361E-1,2.112546390E-1,2.484403611E-1
1.443282767E1,-8.055021957E-2,-6.294348350E-3,7.651607931E-2,1.112774330E-1
1.444282567E1,-2.214174287E-2,-2.964119438E-2,-1.266319799E-1,1.319261745E-1
1.445282367E1,3.486033227E-2,-8.431870437E-2,-1.679513294E-1,1.911348626E-1
1.446282167E1,-2.331056474E-2,4.040577221E-2,-1.766268432E-1,1.826829237E-1
1.447282067E1,-4.380331971E-3,-1.045416743E-1,-2.523576415E-1,2.731895462E-1
1.448281867E1,-1.388213050E-2,-3.945818523E-2,-3.845129013E-1,3.867813765E-1
1.449281667E1,-7.227187783E-2,-5.317421369E-2,-5.081423360E-1,5.160032509E-1
1.450281467E1,-1.431840587E-2,-1.685754100E-1,-5.546762323E-1,5.799037923E-1
1.451281367E1,-6.290514998E-2,-2.207505264E-2,-5.979158074E-1,6.016208761E-1
1.452281167E1,-6.746146487E-2,2.268784541E-2,-6.766263467E-1,6.803594643E-1
1.453280967E1,1.344506940E-2,-6.674787159E-2,-7.930502576E-1,7.959678130E-1
1.454280767E1,-7.342874944E-2,-6.816207094E-2,-9.250488120E-1,9.304585718E-1
1.455280667E1,-5.711262407E-2,-7.819769285E-2,-1.057495848E0,1.061920053E0
1.456280467E1,-4.139501603E-2,-7.829829236E-2,-1.154466657E0,1.157858986E0
1.457280267E1,-1.232216645E-2,7.278475173E-2,-1.243348428E0,1.245537944E0
1.458280067E1,7.100317821E-2,4.250075192E-2,-1.299293418E0,1.301925939E0
1.459279967E1,1.928157734E-2,9.288037112E-2,-1.317813304E0,1.321223087E0
1.460279767E1,-1.730699088E-2,-8.804998627E-2,-1.314482145E0,1.317541514E0
1.461279567E1,-4.309628170E-2,-9.488149845E-2,-1.277930616E0,1.282172549E0
1.462279367E1,-5.888732711E-2,-8.460095130E-2,-1.349912179E0,1.353841915E0
1.463279267E1,6.325020880E-2,8.557045620E-2,-1.451376573E0,1.455272088E0
1.464279067E1,7.167209968E-2,1.651838422E-1,-1.566458548E0,1.576773597E0
1.465278867E1,5.526278431E-2,9.651749457E-2,-1.690984946E0,1.694638513E0
1.466278767E1,-8.307270840E-2,2.261732707E-2,-1.738441533E0,1.740572199E0
1.467278567E1,-7.561728917E-2,-2.780421392E-2,-1.840852007E0,1.842614219E0
1.468278367E1,-4.445416963E-2,4.200218086E-2,-1.911395155E0,1.912373341E0
1.469278167E1,3.317352019E-2,1.415488392E-1,-2.045406321E0,2.050566647E0
1.470278067E1,6.893830709E-2,7.655910659E-2,-2.189740162E0,2.192162349E0
1.471277867E1,5.744386883E-2,-9.759958807E-3,-2.388119817E0,2.388830533E0
1.472277667E1,4.681249788E-2,-6.942601513E-2,-2.569878761E0,2.571242546E0
1.473277467E1,4.044540994E-2,-7.853082882E-2,-2.819751921E0,2.821135200E0
1.474277367E1,1.119180830E-1,-1.291055966E-2,-3.043271679E0,3.045356277E0
1.475277167E1,9.309839917E-2,-5.330531923E-3,-3.308995471E0,3.310309163E0
1.476276967E1,1.252685189E-1,1.714908637E-2,-3.589685211E0,3.591911219E0
1.477276767E1,9.146105088E-2,-1.906325692E-2,-3.823372108E0,3.824513408E0
1.478276667E1,7.686784415E-2,-7.699182339E-2,-4.079963719E0,4.081414014E0
1.479276467E1,7.959785432E-2,-4.326338416E-2,-4.348381323E0,4.349324967E0
1.480276267E1,9.505071139E-2,-6.245109541E-2,-4.662608353E0,4.663995222E0
1.481276067E1,1.007338030E-1,-6.869841593E-2,-4.926694924E0,4.928203491E0
1.482275967E1,7.888624817E-2,-4.505673434E-2,-5.147965259E0,5.148766790E0
1.483275767E1,1.234924271E-1,-7.568794455E-2,-5.351577002E0,5.353536724E0
1.484275567E1,1.279440586E-1,-6.541041237E-2,-5.437983647E0,5.439881832E0
1.485275367E1,8.121755132E-2,-1.060579030E-1,-5.436367477E0,5.438008451E0
1.486275267E1,1.379594802E-1,-1.129131878E-1,-5.557944539E0,5.560802973E0
1.487275067E1,1.952840476E-1,-9.242649928E-2,-5.695089228E0,5.699185892E0
1.488274867E1,8.274860820E-2,-1.403476567E-1,-5.759782822E0,5.762086683E0
1.489274767E1,5.863279050E-2,-1.397564209E-1,-5.837658378E0,5.839625417E0
1.490274567E1,8.295764616E-2,-1.255355905E-1,-5.869888231E0,5.871816499E0
1.491274367E1,1.384047639E-1,-1.118935613E-1,-5.748546227E0,5.751300703E0
1.492274167E1,2.540418406E-1,5.418267567E-2,-5.535136304E0,5.541227926E0
1.493274067E1,1.586837666E-1,-4.222626169E-2,-5.388486382E0,5.390987765E0
1.494273867E1,1.415996095E-1,-9.201575065E-2,-5.208759345E0,5.211496067E0
1.495273667E1,1.785612666E-1,-4.568604092E-2,-5.077826153E0,5.081170119E0
1.496273467E1,1.488338030E-1,-1.543569230E-2,-4.984164283E0,4.986409867E0
1.497273367E1,1.546983593E-1,1.199781729E-2,-4.860865216E0,4.863341051E0
1.498273167E1,1.401854969E-1,7.289843668E-3,-4.683380002E0,4.685483258E0
1.499272967E1,7.718381306E-2,1.865690855E-2,-4.446613961E0,4.447322918E0
1.500272767E1,2.862345451E-2,-2.125686272E-2,-4.182610420E0,4.182762375E0
1.501272667E1,4.305679472E-2,-9.054850152E-2,-3.893620557E0,3.894911291E0
1.502272467E1,3.569801901E-2,-5.275233252E-2,-3.565260222E0,3.565829161E0
1.503272267E1,5.622085059E-2,-6.851660864E-2,-3.299322422E0,3.300512650E0
1.504272067E1,3.990357405E-2,-1.023212216E-1,-3.057038364E0,3.059010540E0
1.505271967E1,3.146479933E-2,-1.347805226E-1,-2.697548622E0,2.701096887E0
1.506271767E1,-5.810314240E-2,-1.402955159E-1,-2.328327359E0,2.333273901E0
1.507271567E1,-2.202216549E-1,-8.767561829E-2,-2.110608623E0,2.123876962E0
1.508271467E1,-7.567323972E-2,-8.290175043E-2,-1.812965466E0,1.816436875E0
1.509271267E1,1.285474364E-1,-5.334618122E-2,-1.465308149E0,1.471902929E0
1.510271067E1,1.705112404E-1,-4.740356916E-2,-1.048156675E0,1.062992755E0
1.511270867E1,-5.173104778E-2,1.384905261E-1,-8.788862139E-1,8.912332490E-1
1.512270767E1,-5.651516654E-4,2.214228374E-1,-4.711569428E-1,5.205931781E-1
1.513270567E1,1.165404897E-3,-4.473702412E-3,-6.820133865E-2,6.835784355E-2
1.514270367E1,-1.459469778E-1,7.288415439E-2,-1.401934272E-1,2.150972276E-1
1.515270167E1,-1.938866361E-1,1.915981821E-1,-3.659164166E-1,4.562857822E-1
1.516270067E1,-4.502628313E-2,2.316404448E-1,-3.466124189E-1,4.193147156E-1
1.517269867E1,3.012375869E-3,2.072414208E-1,-1.367418158E-1,2.483070783E-1
1.518269667E1,-7.229603413E-2,6.512935773E-2,7.405206263E-2,1.222794250E-1
1.519269467E1,-5.780413041E-2,-7.972312178E-2,2.119674146E-1,2.337247922E-1
1.520269367E1,-4.175308490E-2,-1.317390934E-1,2.229379606E-1,2.622972419E-1
1.521269167E1,-2.830555602E-1,-1.417141121E-2,1.069479132E-1,3.029177036E-1
1.522268967E1,-4.207335518E-1,8.410979889E-4,1.336041999E-1,4.414380039E-1
1.523268767E1,4.316000904E-1,4.629188555E-2,2.858890843E-1,5.197635475E-1
1.524268667E1,2.241236846E-1,2.979491219E-2,2.554186589E-1,3.411126707E-1
1.525268467E1,-6.976784427E-2,-1.194577113E-1,6.366226208E-1,6.514798986E-1
1.526268267E1,-9.626886914E-2,1.759056371E-2,7.366029918E-1,7.430754273E-1
1.527268167E1,4.771388272E-2,-1.084153907E-1,6.045564902E-1,6.160511840E-1
1.528267967E1,7.961992756E-2,-4.685435115E-2,7.964194232E-1,8.017596652E-1
1.529267767E1,-4.592564703E-1,-2.069101213E-1,9.510332537E-1,1.076193548E0
1.530267567E1,-3.473646997E-1,-7.946347799E-2,4.214035696E-1,5.518674183E-1
1.531267496E1,1.582119511E-2,-7.839010279E-2,1.867448652E-1,2.031476387E-1
1.532267296E1,-1.885860255E-1,1.371249912E-1,4.707458836E-1,5.253281252E-1
1.533267096E1,-5.393362448E-1,4.612881676E-2,6.502852249E-1,8.460982960E-1
1.534266896E1,1.245963266E-1,1.356574679E-1,4.689022565E-1,5.037822142E-1
1.535266796E1,2.387156853E-1,1.978769588E-1,7.587159920E-1,8.196282241E-1
1.536266596E1,-1.408317056E-1,-3.621417740E-2,1.345255457E0,1.353091748E0
1.537266396E1,1.172502503E-1,-7.763218030E-4,1.303741395E0,1.309003380E0
1.538266196E1,5.253485721E-3,-1.026195757E-1,7.818791521E-1,7.886021715E-1
1.539266096E1,8.422749694E-2,-3.438916729E-1,5.771897668E-1,6.771290725E-1
1.540265896E1,-1.502648724E-1,3.814266906E-2,6.173677397E-1,6.365354044E-1
1.541265696E1,-2.085399778E-1,3.219804748E-1,6.442415428E-1,7.498049840E-1
1.542265496E1,-1.010532803E-1,-1.102909354E-2,6.941311562E-1,7.015350799E-1
1.543265396E1,-7.631058622E-2,4.248530705E-2,8.098744512E-1,8.145703981E-1
1.544265196E1,9.513257241E-2,3.485282226E-1,8.712807405E-1,9.432137918E-1
1.545264996E1,-1.828324384E-1,-8.883249904E-3,9.611091757E-1,9.783851288E-1
1.546264796E1,-2.485242251E-1,-1.196688049E-1,1.039715635E0,1.075682813E0
1.547264696E1,-1.243379345E-1,-3.036323186E-2,9.579867625E-1,9.664990869E-1
1.548264496E1,-6.805418981E-2,-6.956056961E-2,9.940617442E-1,9.988136948E-1
1.549264296E1,1.041435520E-1,2.659633448E-1,1.216345986E0,1.249431846E0
1.550264196E1,-1.338064405E-1,-3.552919207E-2,1.387285243E0,1.394176040E0
1.551263996E1,-7.224768497E-2,-1.652839940E-1,1.250458642E0,1.263402289E0
1.552263796E1,-6.948323105E-2,2.054435208E-3,1.037887210E0,1.040212479E0
1.553263596E1,-7.903173421E-2,-2.897358396E-2,9.082444990E-1,9.121368063E-1
1.554263496E1,-1.292963003E-1,-6.249705087E-2,9.823228741E-1,9.927646466E-1
1.555263296E1,-2.337909045E-1,8.162068943E-2,1.029146208E0,1.058518796E0
1.556263096E1,-2.311255609E-1,1.900710881E-2,1.125634037E0,1.149274675E0
1.557262896E1,-1.691025547E-1,7.751828293E-2,1.297095450E0,1.310366881E0
1.558262796E1,-2.605162980E-1,2.293681117E-2,1.413178468E0,1.437173692E0
1.559262596E1,3.468215665E-2,-5.766575240E-2,1.428498173E0,1.430082243E0
1.560262396E1,-7.492516156E-2,-1.818829967E-1,1.464510589E0,1.477662502E0
1.561262196E1,-2.797823254E-2,-1.724640642E-1,1.229287044E0,1.241641362E0
1.562262096E1,1.746886740E-2,-5.579658028E-2,1.050185074E0,1.051811347E0
1.563261896E1,-2.071512824E-1,3.155490126E-2,1.012247170E0,1.033707743E0
1.564261696E1,6.865086162E-2,1.206166386E-1,8.957068992E-1,9.063951476E-1
1.565261496E1,-1.048303623E-1,3.080897470E-2,9.298979080E-1,9.362952083E-1
1.566261396E1,-2.663781134E-1,-1.765996902E-1,9.833987617E-1,1.034029920E0
1.567261196E1,-2.824338550E-2,-6.390886566E-2,9.853879845E-1,9.878620916E-1
1.568260996E1,-4.136256399E-2,1.580359682E-1,1.180782636E0,1.192029304E0
1.569260896E1,-1.529680037E-1,6.124835056E-2,1.298947263E0,1.309356545E0
1.570260696E1,-6.567137634E-2,3.599212482E-2,1.179556475E0,1.181931318E0
1.571260496E1,-1.017201735E-2,1.599282917E-1,1.181105987E0,1.191927800E0
1.572260296E1,-1.856842351E-1,4.938990486E-2,1.333407243E0,1.347179600E0
1.573260196E1,-1.527015899E-1,6.275284829E-2,1.208642864E0,1.219866086E0
1.574259996E1,3.272946071E-2,1.788224910E-1,1.049586904E0,1.065214237E0
1.575259796E1,-3.013943654E-2,5.102991637E-2,1.133638875E0,1.135187005E0
1.576259596E1,5.324538527E-2,-2.730742352E-1,1.166994317E0,1.199700106E0
1.577259496E1,-2.445760755E-1,8.988603939E-2,6.982780015E-1,7.453114277E-1
