"Time (s)","Linear Acceleration x (m/s^2)","Linear Acceleration y (m/s^2)","Linear Acceleration z (m/s^2)","Absolute acceleration (m/s^2)"
2.878416667E-2,2.703482084E-2,2.257246111E-2,-1.076296985E-2,3.682715111E-2
3.878216667E-2,3.429757431E-3,1.827007755E-2,-2.048162699E-2,2.765964595E-2
4.878016666E-2,1.600309834E-3,4.649609956E-4,-2.496878028E-2,2.502433154E-2
5.877716668E-2,8.295006305E-4,3.761813042E-3,-1.254052341E-2,1.311884279E-2
6.877516667E-2,-1.332394067E-2,9.739771066E-4,-2.316140592E-2,2.673811419E-2
7.877316666E-2,-4.382451586E-3,6.771473153E-3,-2.584761679E-2,2.707689097E-2
8.877116669E-2,8.098686039E-3,1.390342487E-2,-1.192013383E-2,2.002457313E-2
9.876979169E-2,1.197191823E-2,1.699086208E-2,-1.895141065E-2,2.812778317E-2
1.087677917E-1,2.569975533E-2,1.127843846E-2,-4.214497626E-2,5.063476693E-2
1.187657917E-1,3.233963415E-2,3.337951120E-2,-1.204584897E-2,4.801193792E-2
1.287637917E-1,2.772603482E-2,2.168721779E-2,-3.503066897E-3,3.537428303E-2
1.387617917E-1,2.455841538E-2,4.213193423E-2,3.541073799E-3,4.889534590E-2
1.487597917E-1,9.506805204E-3,4.272081736E-2,-1.126641512E-2,4.519269511E-2
1.587567917E-1,3.400740623E-3,4.272201878E-2,-4.598367333E-2,6.285884297E-2
1.687547917E-1,1.292055588E-2,6.967615262E-2,-3.654568255E-2,7.973264025E-2
1.787527917E-1,1.137023974E-2,5.596513084E-2,-1.977703750E-2,6.043599452E-2
1.887507917E-1,1.344293151E-2,5.558292850E-2,-1.782231331E-2,5.989832385E-2
1.987487917E-1,1.482382458E-2,5.688839705E-2,-1.122957766E-2,5.985097250E-2
2.087467917E-1,8.760188855E-3,4.213206670E-2,-3.262804806E-2,5.400408757E-2
2.187447917E-1,1.160138749E-2,4.944904396E-2,-4.175379753E-2,6.575089162E-2
2.287427917E-1,1.267921206E-2,3.521136393E-2,-1.165993273E-2,3.919893620E-2
2.387407917E-1,1.782158241E-3,3.368254772E-2,-2.093010843E-2,3.969583792E-2
2.487387917E-1,1.161962349E-2,3.224600789E-2,-3.394425631E-2,4.823933262E-2
2.587357917E-1,1.067314200E-2,2.602614188E-2,-1.821875453E-2,3.351416175E-2
2.687337917E-1,1.269814242E-2,2.676773328E-2,-3.691931963E-3,2.985606684E-2
2.787317917E-1,1.769901015E-2,1.501376772E-2,-2.478693187E-2,3.395673973E-2
2.887297917E-1,1.146646298E-2,5.663753551E-3,-2.312924623E-2,2.642952722E-2
2.987277917E-1,7.713208348E-3,6.697183822E-3,-2.476646662E-2,2.679036623E-2
3.087257917E-1,1.514860086E-2,4.993032234E-3,-3.555107117E-4,1.595421157E-2
3.187237917E-1,1.629312024E-2,3.646971214E-3,-1.241363883E-3,1.674237589E-2
3.287217917E-1,1.667658795E-2,1.009157359E-2,-3.236433864E-2,3.778093247E-2
3.387197917E-1,5.932219550E-3,1.764568742E-2,-3.025875628E-2,3.552680460E-2
3.487177917E-1,3.686048202E-3,6.383344800E-3,-2.950095713E-2,3.040790216E-2
3.587157917E-1,7.658756152E-4,1.605929328E-2,-2.933957398E-2,3.345591229E-2
3.687127917E-1,6.337797046E-3,2.962725699E-2,-1.705925167E-2,3.477010347E-2
3.787107917E-1,2.420465883E-2,5.527307175E-2,-1.959811270E-2,6.344339202E-2
3.887087917E-1,1.507185616E-2,5.547007267E-2,-1.330650866E-2,5.900129645E-2
3.987067917E-1,1.478267480E-2,3.923242332E-2,-2.572014749E-2,4.918573473E-2
4.087047917E-1,1.789576896E-2,4.306579395E-2,-2.690888643E-2,5.384244909E-2
4.187027917E-1,1.975419682E-2,4.299332959E-2,-1.043611050E-2,4.845169846E-2
4.287007917E-1,1.258094229E-2,4.717062157E-2,-2.629726768E-2,5.545172617E-2
4.386987917E-1,1.717455145E-2,3.839143840E-2,-2.988161087E-2,5.159242607E-2
4.486967917E-1,1.150658950E-2,3.923067373E-2,-2.403790355E-2,4.742645011E-2
4.586947917E-1,1.411006227E-3,3.019014743E-2,-2.793214917E-2,4.115386856E-2
4.686917917E-1,8.170935698E-3,2.853790016E-2,-4.579539299E-3,3.003578059E-2
4.786897917E-1,7.516376451E-3,2.174444284E-2,-1.699610174E-2,2.860391903E-2
4.886877917E-1,1.363398928E-2,3.863763358E-2,-2.911621034E-2,5.026436210E-2
4.986857917E-1,1.276107308E-2,1.155330784E-2,-2.581721127E-2,3.102986152E-2
5.086837917E-1,9.060260653E-3,2.297602634E-2,-2.760704398E-2,3.704234046E-2
5.186817917E-1,2.152787659E-2,1.709783415E-2,-3.254560232E-2,4.260283598E-2
5.286797917E-1,2.002170693E-2,6.654669311E-3,-2.295558393E-2,3.117871398E-2
5.386777917E-1,1.273512606E-2,9.256118395E-3,-3.073238075E-2,3.453025325E-2
5.486757917E-1,8.432233147E-3,8.188724024E-3,-5.129762292E-3,1.282467224E-2
5.586737917E-1,1.069393616E-2,1.105729265E-2,-2.069154203E-2,2.578301578E-2
5.686707917E-1,9.196537323E-3,1.360293052E-2,-2.278250635E-2,2.808306630E-2
5.786687917E-1,1.164038111E-2,1.883985902E-2,-9.004712105E-3,2.390655978E-2
5.886667917E-1,1.254425101E-2,2.465428687E-2,-3.220120132E-2,4.245125983E-2
5.986647917E-1,1.424239207E-2,3.399688581E-2,-4.072702646E-2,5.493017988E-2
6.086627917E-1,1.232413989E-2,2.692361411E-2,-1.796849370E-2,3.463570681E-2
6.186607917E-1,3.786474131E-3,3.532980659E-2,-1.212595582E-2,3.754425954E-2
6.286587917E-1,3.002947234E-3,4.292118957E-2,-8.075004816E-3,4.377729901E-2
6.386567917E-1,6.372222528E-3,4.361053518E-2,-2.198845446E-2,4.925419909E-2
6.486547917E-1,9.071224183E-3,4.166834596E-2,-4.129303694E-2,5.936036609E-2
6.586527917E-1,1.140576158E-2,4.175392087E-2,-2.527342021E-2,5.012212161E-2
6.686497917E-1,7.189261280E-3,5.030697668E-2,-7.306680679E-3,5.134067552E-2
6.786477917E-1,8.964183591E-3,5.718826328E-2,-1.867834568E-2,6.082544404E-2
6.886457917E-1,8.502217010E-3,4.055754857E-2,-2.451211274E-2,4.814609134E-2
6.986437917E-1,8.354172818E-3,3.146482902E-2,-2.330934048E-2,4.003939338E-2
7.086417917E-1,1.065819506E-2,2.732830995E-2,-2.045823812E-2,3.576273415E-2
7.186397917E-1,7.560851835E-3,1.424693508E-2,-2.389406204E-2,2.882824727E-2
7.286377917E-1,8.358887136E-3,1.611132779E-2,-1.655288279E-2,2.456509324E-2
7.386357917E-1,1.961781051E-2,7.837450260E-4,-2.687497258E-2,3.328268163E-2
7.486337917E-1,1.534689456E-2,3.535510950E-3,-1.728787780E-2,2.338584463E-2
7.586317917E-1,-2.200818881E-3,4.879093756E-3,-1.893094540E-2,1.967307432E-2
7.686287917E-1,3.832265139E-3,1.475603228E-2,-2.925245047E-2,3.298685500E-2
7.786267917E-1,1.062844735E-2,1.430558540E-2,-1.771940231E-2,2.513147200E-2
7.886247917E-1,9.656347744E-3,5.882362900E-3,-2.684281290E-2,2.912702953E-2
7.986227917E-1,1.034767136E-2,7.526027783E-3,-2.953428626E-2,3.218679017E-2
8.086207917E-1,1.233360507E-3,3.411436003E-2,-2.593649447E-2,4.287204782E-2
8.186187917E-1,8.275271952E-4,3.015487912E-2,8.947409391E-3,3.146518188E-2
8.286167917E-1,8.300597705E-3,3.831126530E-2,-2.278192163E-2,4.533948527E-2
8.386147917E-1,1.534082808E-2,4.575450359E-2,-4.178712666E-2,6.383556657E-2
8.486127917E-1,1.169684328E-2,2.968283295E-2,-3.385011613E-2,4.651577234E-2
8.586107917E-1,1.018058717E-2,5.537148313E-2,-3.339637220E-2,6.545963012E-2
8.686077917E-1,8.566061296E-3,4.975098413E-2,-1.423504651E-2,5.245163846E-2
8.786057917E-1,1.420171738E-2,3.466309838E-2,-1.887247324E-2,4.194507613E-2
8.886037917E-1,1.334480792E-2,4.434928520E-2,-2.845079720E-2,5.435430854E-2
8.986017917E-1,1.272986356E-2,3.400941622E-2,-2.201008916E-2,4.246332350E-2
9.085997917E-1,1.228982404E-2,2.457935115E-2,-3.143463135E-2,4.175308762E-2
9.185977917E-1,1.169242132E-2,2.909554180E-2,-9.270175695E-3,3.269861506E-2
9.285957917E-1,1.549804509E-3,1.126479457E-2,2.710769176E-3,1.168955775E-2
9.385937917E-1,3.186732531E-4,1.646902550E-2,-2.946295023E-2,3.375493726E-2
9.485917917E-1,2.120518338E-2,1.791320211E-2,-4.980775237E-2,5.702065247E-2
9.585897917E-1,7.473180145E-3,1.102759747E-4,-3.588026941E-2,3.665043404E-2
9.685867917E-1,3.307075538E-3,1.181644739E-2,-2.524652302E-2,2.807048454E-2
9.785847917E-1,1.015661359E-3,1.100891037E-2,7.693181634E-3,1.346895390E-2
9.885827917E-1,-9.557091258E-3,2.361439154E-2,-2.418349922E-2,3.512576143E-2
9.985807917E-1,-2.049851082E-3,2.193456871E-2,-4.708002627E-2,5.197938118E-2
1.008578792E0,-1.327939220E-3,1.044905660E-2,-2.117452204E-2,2.364966364E-2
1.018576792E0,-5.242175013E-3,1.586873115E-2,-9.339757562E-3,1.914492357E-2
1.028574792E0,3.098037578E-3,3.518301178E-2,-1.636635661E-2,3.892685170E-2
1.038572792E0,1.423296344E-2,3.058180581E-2,-2.369408727E-2,4.122176447E-2
1.048570792E0,1.495820090E-2,3.037750501E-2,-4.509021878E-2,5.638854861E-2
1.058568792E0,1.299788531E-2,1.961303224E-2,-3.475175679E-2,4.196785265E-2
1.068565792E0,1.478431933E-3,2.901539384E-2,-7.198507190E-3,2.993154433E-2
1.078563792E0,4.791975953E-3,4.776812021E-2,-2.620312750E-2,5.469332896E-2
1.088561792E0,1.264825836E-3,3.835403449E-2,-2.006355107E-2,4.330332352E-2
1.098559792E0,-2.811779827E-3,2.917547279E-2,-1.497004151E-2,3.291225396E-2
1.108557792E0,3.131330162E-3,3.459243387E-2,-2.529505491E-2,4.296837805E-2
1.118555792E0,3.078668676E-3,3.836061717E-2,-2.724334717E-2,4.715098213E-2
1.128553792E0,7.650350779E-3,4.234414704E-2,-1.511563718E-2,4.560742421E-2
1.138551792E0,1.569202647E-2,4.053964147E-2,-3.008041620E-2,5.286334897E-2
1.148549792E0,6.416332461E-3,2.318016041E-2,-2.692701280E-2,3.610475283E-2
1.158547792E0,3.283101954E-3,3.255492817E-2,-9.397644997E-3,3.404288234E-2
1.168544792E0,3.130891621E-3,2.761958809E-2,-1.837370574E-2,3.332022196E-2
1.178542792E0,3.514542058E-4,3.000571345E-2,-3.049615324E-2,4.278412933E-2
1.188540792E0,5.277441032E-3,1.124028081E-2,-5.194081664E-3,1.346008101E-2
1.198538792E0,-4.123493023E-3,1.567324114E-2,-1.880932331E-2,2.482829688E-2
1.208536792E0,1.147296801E-3,2.067288119E-2,-1.521094680E-2,2.569157856E-2
1.218534792E0,4.702257738E-3,1.269284909E-2,-3.406763256E-2,3.665819463E-2
1.228532792E0,2.066661827E-3,2.039795242E-2,-4.453882635E-2,4.903115954E-2
1.238530792E0,1.162492253E-2,1.029736132E-2,-1.953613222E-2,2.495666115E-2
1.248528792E0,8.063748926E-3,1.052203487E-2,-1.608744442E-2,2.084569818E-2
1.258526792E0,7.458598651E-3,2.870722045E-2,-2.012377739E-2,3.584273449E-2
1.268523792E0,6.219610199E-3,1.480616644E-2,9.355545044E-5,1.605972815E-2
1.278521792E0,3.346653879E-3,2.474946401E-2,-2.250067055E-2,3.361571413E-2
1.288519792E0,8.893505372E-3,2.403032501E-2,-6.170859039E-2,6.681692215E-2
1.298517792E0,9.332704358E-3,2.967195164E-2,-3.640593410E-2,4.788440375E-2
1.308515792E0,1.245785840E-3,3.865523462E-2,-6.013861299E-3,3.914007759E-2
1.318513792E0,-5.584529489E-3,4.246033761E-2,-2.868643999E-3,4.292197990E-2
1.328511792E0,-1.945039742E-3,3.852529395E-2,-1.453734756E-2,4.122275983E-2
1.338509792E0,7.954954170E-3,4.152938322E-2,-4.387575209E-2,6.093482246E-2
1.348507792E0,9.637892470E-3,3.858740692E-2,-2.680480599E-2,4.796222022E-2
1.358505792E0,3.464877270E-3,3.949745294E-2,-1.617281377E-2,4.282072009E-2
1.368502792E0,1.398909800E-3,3.766337325E-2,-1.437011719E-2,4.033592569E-2
1.378500792E0,-1.262888946E-3,2.918676065E-2,-2.005185664E-2,3.543358351E-2
1.388498792E0,5.783956088E-3,2.014737182E-2,-2.558507681E-2,3.307517036E-2
1.398496792E0,9.459588937E-3,1.446250091E-2,-3.905413806E-2,4.270683148E-2
1.408494792E0,-3.914674334E-3,2.142649136E-2,-2.677615464E-2,3.451639703E-2
1.418492792E0,-6.344557889E-3,1.273310351E-2,-1.389883161E-2,1.988876215E-2
1.428490792E0,-8.011123985E-3,1.567957829E-2,-4.613453150E-3,1.820195684E-2
1.438488792E0,2.375431359E-5,-6.507231540E-4,-9.849050045E-3,9.870551741E-3
1.448486792E0,1.972156204E-3,1.647183033E-2,-3.229709566E-2,3.630858001E-2
1.458484792E0,1.503571305E-2,1.748195168E-2,-3.588319302E-2,4.265319264E-2
1.468481792E0,1.877263203E-2,2.597748436E-2,-2.644286335E-2,4.155076930E-2
1.478479792E0,1.788242999E-2,2.880618914E-2,-2.718019724E-2,4.345504525E-2
1.488477792E0,1.413579002E-2,1.764472241E-2,-2.268485785E-2,3.202748138E-2
1.498475792E0,1.300464615E-2,3.118204534E-2,-2.118036926E-2,3.987541617E-2
1.508473792E0,4.085376486E-4,3.004486467E-2,-4.411139488E-3,3.036970444E-2
1.518471792E0,-7.736487575E-3,2.865982146E-2,-2.401159108E-2,3.818108317E-2
1.528469792E0,-4.316743501E-3,3.047598491E-2,-2.580902517E-2,4.016871557E-2
1.538467792E0,-5.631489940E-3,2.545689031E-2,-2.955533624E-2,3.941173484E-2
1.548465792E0,-7.633649670E-3,3.993233961E-2,-3.928217947E-2,5.653276906E-2
1.558463792E0,-6.336006336E-3,2.783224401E-2,-2.191477954E-2,3.598661342E-2
1.568460792E0,-3.535628580E-3,3.726337802E-2,-2.670131028E-2,4.597847302E-2
1.578458792E0,1.180384733E-2,3.578499177E-2,-3.178312540E-2,4.929567433E-2
1.588456792E0,9.024336822E-3,2.378143690E-2,-5.729686618E-3,2.607344828E-2
1.598454792E0,4.044628702E-3,2.935635732E-2,-2.428173244E-2,3.831132034E-2
1.608452792E0,1.134853195E-2,3.793547435E-2,-1.873915672E-2,4.380691026E-2
1.618450792E0,5.587416552E-3,1.953942128E-2,7.180380821E-4,2.033528427E-2
1.628448792E0,7.365993373E-3,3.775221895E-2,-3.430444479E-2,5.153913878E-2
1.638446792E0,1.391418055E-3,3.132647613E-2,-4.717709005E-2,5.664770054E-2
1.648444792E0,-4.125685729E-3,2.227149624E-2,-2.636977315E-2,3.476213117E-2
1.658441792E0,-5.173543319E-3,2.330267785E-2,-5.108712316E-3,2.441063881E-2
1.668439792E0,-3.540123627E-3,1.262793129E-2,5.673553348E-3,1.428937828E-2
1.678437792E0,-8.970944434E-3,1.445010527E-2,-2.335670292E-2,2.889323377E-2
1.688435792E0,5.313620679E-3,2.787082193E-3,-3.951606810E-2,3.996901337E-2
1.698433792E0,4.288384505E-3,9.967377362E-3,-2.049916863E-2,2.319385194E-2
1.708431792E0,1.571936220E-2,8.627387396E-3,-2.064242542E-2,2.734300438E-2
1.718429792E0,5.965950675E-3,1.443826352E-2,-1.389649272E-2,2.090857553E-2
1.728427792E0,-3.841693774E-3,1.049427773E-2,-9.253803492E-3,1.450935406E-2
1.738425792E0,6.353365257E-4,2.197978414E-2,-3.559434056E-2,4.183863816E-2
1.748423792E0,-5.072788484E-3,2.148126332E-2,-5.025915742E-2,5.489226504E-2
1.758420792E0,-4.101602510E-3,2.001280592E-2,-2.555817962E-2,3.271935343E-2
1.768418792E0,-1.234654203E-2,2.764666344E-2,-1.902683973E-3,3.033801750E-2
1.778416792E0,-1.001942329E-2,3.695686972E-2,-5.336753726E-3,3.866109159E-2
1.788414792E0,-1.830836311E-3,3.026107689E-2,-1.386550248E-2,3.333671992E-2
1.798412792E0,6.259407811E-3,4.326458101E-2,-3.556510448E-2,5.635495376E-2
1.808410792E0,1.126488023E-2,4.076946446E-2,-2.867649972E-2,5.110174552E-2
1.818408792E0,3.800032362E-3,4.560330739E-2,-2.252815247E-2,5.100607360E-2
1.828406792E0,6.054609083E-3,4.497698836E-2,-1.234347224E-2,4.703136273E-2
1.838404792E0,-2.147024497E-4,3.245491566E-2,-2.312047541E-2,3.984876448E-2
1.848401792E0,-6.072406545E-3,3.014627732E-2,-2.221766531E-2,3.793806544E-2
1.858399792E0,-1.849547401E-3,1.367125386E-2,-1.532555223E-2,2.062029483E-2
1.868397792E0,-6.331803650E-3,2.051460209E-2,-3.238421917E-2,3.885457872E-2
1.878395792E0,1.014930457E-3,1.646393659E-2,-2.070265174E-2,2.647057009E-2
1.888393792E0,1.058503177E-2,2.224663187E-2,-1.006949008E-2,2.661484844E-2
1.898391792E0,2.231151313E-3,7.382396412E-3,-1.021274686E-2,1.279757834E-2
1.908389792E0,1.000268564E-2,5.667066593E-3,-1.724343896E-2,2.072451570E-2
1.918387792E0,6.261125430E-3,2.028379238E-2,-4.267999649E-2,4.766776716E-2
1.928385792E0,2.879570983E-3,1.929176885E-2,-2.291348398E-2,3.009139449E-2
1.938383792E0,3.359444663E-3,1.033353526E-2,5.533804893E-3,1.219388437E-2
1.948380792E0,-5.256464146E-3,1.711992795E-2,-9.427465796E-3,2.023856368E-2
1.958378792E0,-7.477492467E-4,1.302047246E-2,-2.185104489E-2,2.544720014E-2
1.968376792E0,-1.024651453E-3,1.602775372E-2,-3.532186031E-2,3.880170893E-2
1.978374792E0,-9.543021396E-3,3.768594442E-2,-5.447616935E-2,6.692497808E-2
1.988372792E0,-7.474459223E-3,3.125099223E-2,-1.944491565E-2,3.755791263E-2
1.998370792E0,-5.025937669E-3,2.219005093E-2,2.566342950E-3,2.289638674E-2
2.008368792E0,3.943654597E-3,3.931907632E-2,-1.569041848E-2,4.251742474E-2
2.018366792E0,1.076655127E-3,3.658704475E-2,-3.904244363E-2,5.351713216E-2
2.028364792E0,5.357401706E-3,5.012711084E-2,-4.846406221E-2,6.992992436E-2
2.038362792E0,4.144506454E-3,4.380263906E-2,-2.420981169E-2,5.021915077E-2
2.048359792E0,4.630994797E-3,1.754698483E-2,8.579034805E-3,2.007343088E-2
2.058357792E0,-3.823932856E-3,3.255788147E-2,-3.687254190E-3,3.298839117E-2
2.068355792E0,5.379365310E-3,3.194421619E-2,-2.882677317E-2,4.336304153E-2
2.078353792E0,4.565469436E-3,2.312526739E-2,-4.094863594E-2,4.724841043E-2
2.088351792E0,3.452232666E-3,2.726516002E-2,-3.675384343E-2,4.589283025E-2
2.098349833E0,-5.933754444E-3,1.545554200E-2,-1.130559146E-2,2.004743421E-2
2.108347833E0,-1.165061373E-2,9.151525183E-3,-1.174997985E-2,1.890897248E-2
2.118345833E0,-1.110353362E-2,1.438727968E-2,-2.267374814E-2,2.905823687E-2
2.128343833E0,-5.911206119E-3,-4.868706954E-3,-3.748942316E-2,3.826360560E-2
2.138340833E0,-2.064396031E-3,5.186686992E-3,-2.955767512E-2,3.008021961E-2
2.148338833E0,4.413588010E-3,6.423239484E-3,-2.221649587E-2,2.354379862E-2
2.158336833E0,-6.798155643E-3,1.113315570E-2,-3.948624730E-3,1.362914940E-2
2.168334833E0,-5.710171536E-4,1.211351450E-2,-6.340135932E-3,1.368432014E-2
2.178332833E0,7.589978278E-3,9.926299530E-4,-3.447927654E-2,3.531874283E-2
2.188330833E0,1.514480017E-2,8.447326273E-3,-4.570300698E-2,4.888238068E-2
2.198328833E0,1.019487631E-2,1.494228094E-2,-2.114937901E-2,2.782990290E-2
2.208326833E0,-6.094845235E-3,2.444962976E-2,2.625399828E-4,2.519921548E-2
2.218324833E0,-1.772546880E-2,3.889998171E-2,1.198679209E-4,4.274827703E-2
2.228322833E0,-1.906404264E-2,2.058084921E-2,-1.334626973E-2,3.106657354E-2
2.238319833E0,-1.093904413E-2,3.740661653E-2,-5.735358417E-2,6.934227617E-2
2.248317833E0,-9.964605644E-3,4.726123514E-2,-4.462770402E-2,6.576130837E-2
2.258315833E0,-1.125347815E-2,3.881070203E-2,-2.546520889E-2,4.776387994E-2
2.268313833E0,2.181523070E-3,5.574747280E-2,-3.474123180E-2,6.572284956E-2
2.278311833E0,1.159320138E-2,3.444105037E-2,-2.110260129E-3,3.640111903E-2
2.288309833E0,1.080605652E-2,3.658687116E-2,-2.606162488E-2,4.620149662E-2
2.298307833E0,1.208137080E-2,3.046078215E-2,-2.845372081E-2,4.339853681E-2
2.308305833E0,9.261953048E-3,2.739053027E-2,4.484229684E-3,2.925975458E-2
2.318303833E0,-8.772796914E-3,1.665011559E-2,-1.137458861E-2,2.199021557E-2
2.328300833E0,-6.964326203E-3,1.908546949E-2,-3.067858636E-2,3.679582376E-2
2.338298833E0,-1.401234068E-2,1.146963099E-2,-2.782397568E-2,3.319746600E-2
2.348296833E0,-2.205767088E-2,1.468250354E-2,-1.703995585E-2,3.150360059E-2
2.358294833E0,-1.627159517E-2,1.896782054E-2,-8.498343229E-3,2.639630397E-2
2.368292833E0,-4.208825827E-3,-9.800424508E-4,-1.402805507E-2,1.467859078E-2
2.378290833E0,-1.480186097E-3,1.089632063E-2,-2.629609823E-2,2.850272858E-2
2.388288833E0,7.288481221E-3,1.734625174E-2,-2.584352374E-2,3.196720393E-2
2.398286833E0,3.819693625E-3,1.513757795E-2,-3.685500026E-3,1.604117315E-2
2.408284833E0,-5.002768077E-3,1.977332589E-2,-2.134818435E-2,2.952553268E-2
2.418281833E0,-2.669327036E-3,1.557765858E-2,-1.445957959E-2,2.142120901E-2
2.428279833E0,-1.149058275E-2,2.632475416E-2,-2.957229316E-2,4.122555877E-2
2.438277833E0,-1.192609068E-2,1.575706304E-2,-4.858217597E-2,5.244754042E-2
2.448275833E0,-8.804225698E-3,2.146199035E-2,-3.675793648E-2,4.346581777E-2
2.458273833E0,-9.320790656E-3,1.659342387E-2,-1.549921453E-2,2.454474496E-2
2.468271833E0,-1.244689487E-3,2.000920394E-2,-6.812006235E-3,2.117359023E-2
2.478269833E0,2.288929112E-3,2.731285138E-2,-2.117861509E-2,3.463762093E-2
2.488267833E0,1.262779310E-3,2.785873464E-2,-1.997525811E-2,3.430327454E-2
2.498265833E0,6.307830065E-3,1.779576101E-2,-3.389280081E-2,3.879690422E-2
2.508263833E0,1.068505570E-3,2.881040782E-2,-2.490563035E-2,3.809818533E-2
2.518260833E0,-7.727424391E-3,3.318147332E-2,-1.906133831E-2,3.903918387E-2
2.528258833E0,-9.460173659E-3,3.840068431E-2,-2.938752115E-2,4.927203913E-2
2.538256833E0,-1.067771014E-2,3.800455829E-2,-2.549619913E-2,4.699378804E-2
2.548254833E0,-1.932946969E-2,1.697854410E-2,-1.501155674E-2,2.978667813E-2
2.558252833E0,-2.261114638E-2,3.046272818E-2,-2.893202305E-2,4.771062467E-2
2.568250833E0,-7.800258771E-3,3.623176473E-2,-2.563360870E-2,4.506291942E-2
2.578248833E0,-5.045379661E-3,2.917647778E-2,-2.143998563E-2,3.655674623E-2
2.588246833E0,1.374241859E-3,2.436513521E-2,-1.799772978E-2,3.032270818E-2
2.598244833E0,6.403541677E-3,7.658234242E-3,-2.278426051E-2,2.487521708E-2
2.608241833E0,-1.601735093E-3,2.085065939E-2,-3.774494648E-2,4.315085789E-2
2.618239833E0,-8.480509222E-3,1.333483225E-2,-1.259665668E-2,2.020921937E-2
2.628237833E0,-1.367349453E-2,1.033579535E-2,-4.960777760E-3,1.784383463E-2
2.638235833E0,-2.155097309E-2,5.102203862E-3,-1.992789567E-2,2.979258215E-2
2.648233833E0,-2.108531546E-2,1.598351816E-2,-2.636392593E-2,3.735130482E-2
2.658231833E0,-2.217081450E-2,1.540949974E-2,-2.815609753E-2,3.900978757E-2
2.668229833E0,-5.927249417E-3,2.495677065E-2,-5.150461435E-2,5.753866514E-2
2.678227833E0,-1.580794752E-3,1.614729844E-2,-2.381220102E-2,2.881414716E-2
2.688225833E0,-6.513798237E-3,1.521412394E-2,-1.957063079E-3,1.666521019E-2
2.698222833E0,3.203031644E-3,2.099568404E-2,-6.143669486E-3,2.210933818E-2
2.708220833E0,8.867667988E-3,3.413623684E-2,-3.757362306E-2,5.153343916E-2
2.718218833E0,2.804799713E-3,2.452211011E-2,-4.176198363E-2,4.851045313E-2
2.728216833E0,-1.360997915E-2,2.696747736E-2,-1.660726190E-2,3.447140141E-2
2.738214833E0,-1.967244543E-2,3.132867112E-2,1.108807504E-2,3.861911640E-2
2.748212833E0,-1.684933662E-2,4.635988684E-2,-1.930165887E-3,4.936461074E-2
2.758210833E0,-1.812965758E-2,3.432491690E-2,-4.175028920E-2,5.700851737E-2
2.768208833E0,-2.324929688E-2,3.131192205E-2,-3.651235342E-2,5.342394800E-2
2.778206833E0,-1.071315888E-2,2.133283084E-2,-3.276604235E-2,4.053979497E-2
2.788204833E0,-1.913866773E-3,2.209610261E-2,-1.614650130E-2,2.743374092E-2
2.798201833E0,-7.338292189E-3,2.862131663E-2,-1.479462504E-2,3.304408007E-2
2.808199833E0,-2.302889340E-3,1.488851283E-2,-2.541375339E-2,2.954369603E-2
2.818197833E0,1.707935147E-3,6.741651212E-3,-3.079845428E-2,3.157390837E-2
2.828195833E0,-3.078997582E-3,1.485677341E-2,-2.929571986E-2,3.299156172E-2
2.838193833E0,-2.055632517E-2,3.288118682E-2,-1.672011316E-2,4.222910294E-2
2.848191833E0,-2.262368135E-2,2.765954787E-2,-5.936093330E-3,3.622317974E-2
2.858189833E0,-2.548987683E-2,1.219361907E-2,-1.865495682E-2,3.385890696E-2
2.868187833E0,-1.537090469E-2,1.442921289E-2,-4.739753008E-2,5.187477955E-2
2.878185833E0,-8.702191785E-3,1.985349898E-2,-1.850468338E-2,2.850110297E-2
2.888182833E0,-1.505424142E-2,2.267222009E-2,-1.286972165E-3,2.724547753E-2
2.898180833E0,-4.453275986E-3,3.984605206E-2,-1.610147774E-2,4.320644764E-2
2.908178833E0,6.236420944E-3,1.242066577E-2,-1.125004292E-3,1.394387030E-2
2.918176833E0,5.205483735E-3,1.253272560E-2,-3.090136528E-2,3.374997256E-2
2.928174833E0,5.347826891E-3,2.893255524E-2,-4.137431324E-2,5.076933918E-2
2.938172833E0,-9.251610786E-3,2.129058470E-2,-3.239065111E-2,3.985016409E-2
2.948170833E0,-1.908607934E-2,2.905866095E-2,-2.250359416E-2,4.141371694E-2
2.958168833E0,-2.142163999E-2,2.259960727E-2,-3.197257519E-3,3.130257760E-2
2.968165833E0,-2.699056473E-2,2.797684839E-3,-1.038348556E-2,2.905399107E-2
2.978163833E0,-2.245129813E-2,2.264802039E-2,-3.508621752E-2,4.741346090E-2
2.988161833E0,-1.084665813E-2,3.156360585E-2,-2.895131886E-2,4.418246338E-2
2.998159833E0,-1.336761206E-2,2.070667170E-2,-1.637688160E-2,2.959157914E-2
3.008157833E0,-2.283812799E-3,2.476061027E-2,-2.999855518E-2,3.896430334E-2
3.018155833E0,4.645795561E-3,2.741571669E-2,-2.999680102E-2,4.090248170E-2
3.028153833E0,5.931013562E-3,3.292926646E-2,-2.355141521E-2,4.091677736E-2
3.038151833E0,1.272865757E-3,3.559775068E-2,-2.698957801E-2,4.469068540E-2
3.048149833E0,-1.448538043E-2,1.724716770E-2,-1.455547392E-2,2.681702558E-2
3.058147833E0,-1.565438502E-2,3.363827791E-2,-1.425551176E-2,3.974686310E-2
3.068144833E0,-1.770036232E-2,3.606997044E-2,-2.652823269E-2,4.814657541E-2
3.078142833E0,-2.634609193E-2,3.083957894E-2,-1.859297633E-2,4.461944596E-2
3.088140833E0,-1.916991379E-2,1.735653576E-2,-3.206554592E-2,4.119386075E-2
3.098137917E0,-2.263581432E-2,1.471797170E-2,-1.649908841E-2,3.164204006E-2
3.108135917E0,-9.098815732E-3,1.317122784E-2,-1.634706080E-2,2.288003688E-2
3.118133917E0,-2.036987208E-3,2.292288749E-2,-3.475760400E-2,4.168571846E-2
3.128131917E0,-2.237583250E-3,8.507580003E-3,-1.753989279E-2,1.962227141E-2
3.138129917E0,-1.062669318E-2,3.839455387E-3,-9.601128101E-3,1.482732904E-2
3.148127917E0,-9.817877077E-3,2.966172587E-3,-1.858011246E-2,2.122285252E-2
3.158124917E0,-1.845066972E-2,-1.155353853E-3,-1.004610121E-2,2.104010944E-2
3.168122917E0,-2.036267269E-2,1.530339333E-2,-1.542846322E-2,2.978035870E-2
3.178120917E0,-1.501462653E-2,2.588725909E-2,-2.066347539E-2,3.636713363E-2
3.188118917E0,-1.783141304E-2,1.651311259E-2,-1.332755864E-2,2.771761168E-2
3.198116917E0,-9.168982320E-3,3.422849037E-2,-2.380693853E-2,4.268992987E-2
3.208114917E0,-6.047190428E-3,2.826586073E-2,-2.111312628E-2,3.579513230E-2
3.218112917E0,-8.217749968E-3,3.945750915E-2,-4.057032108E-2,5.718721357E-2
3.228110917E0,-2.154406607E-3,3.273379130E-2,-1.616813600E-2,3.657254684E-2
3.238108917E0,-1.405169975E-2,2.796459437E-2,-1.191077828E-3,3.131912308E-2
3.248105917E0,-1.813725896E-2,3.586862523E-2,-8.066818714E-3,4.099502412E-2
3.258103917E0,-1.941900518E-2,2.610047232E-2,-1.704054058E-2,3.672482050E-2
3.268101917E0,-1.689779542E-2,3.292166965E-2,-3.754321754E-2,5.271494101E-2
3.278099917E0,-1.314114209E-2,1.884255651E-2,-3.978796363E-2,4.594359151E-2
3.288097917E0,-2.200822536E-2,2.774104572E-2,-2.047928810E-2,4.090634232E-2
3.298095917E0,-1.614525877E-2,2.045060248E-2,-2.032316744E-2,3.304432868E-2
3.308093917E0,-1.314293280E-2,1.062812986E-2,6.920764446E-3,1.826446844E-2
3.318091917E0,-1.712565411E-2,1.371888583E-2,-2.166744232E-2,3.083786494E-2
3.328089917E0,-1.004244670E-2,2.025641554E-2,-3.752743006E-2,4.381188324E-2
3.338086917E0,-1.344333351E-2,1.155275053E-2,-2.689777672E-2,3.221303545E-2
3.348084917E0,-1.147508763E-2,1.774970048E-2,-1.985597491E-2,2.899981453E-2
3.358082917E0,-9.656274654E-3,2.617421119E-2,-3.392028272E-2,4.391945528E-2
3.368080917E0,-5.588001274E-3,1.147777027E-2,-9.370747805E-3,1.583590487E-2
3.378078917E0,-1.389638308E-2,1.457405482E-2,-1.745686233E-2,2.665060185E-2
3.388076917E0,-2.411300372E-2,9.169170755E-3,-1.790125072E-2,3.140008628E-2
3.398074917E0,-2.351329867E-2,3.455328721E-3,-2.388879955E-2,3.369702145E-2
3.408072917E0,-2.184786547E-2,1.933236589E-2,-2.299592972E-2,3.714676810E-2
3.418070917E0,-2.225804765E-2,2.750128018E-2,-1.940223098E-2,4.035080747E-2
3.428067917E0,-2.533598542E-2,2.569350155E-2,-8.322926760E-3,3.703159852E-2
3.438065917E0,-1.374852162E-2,2.253597540E-2,-1.041681468E-2,2.837960645E-2
3.448063917E0,-7.636134736E-3,2.522493401E-2,-9.968917966E-3,2.817777803E-2
3.458061917E0,-5.436083302E-3,2.601115382E-2,-2.044362009E-2,3.352719384E-2
3.468059917E0,-3.331926204E-3,4.055960423E-2,-3.286778390E-2,5.231132236E-2
3.478057917E0,-1.025005940E-2,3.232569220E-2,-5.576548040E-2,6.526716554E-2
3.488055917E0,-1.418231193E-2,2.883101925E-2,-4.572581112E-2,5.588573562E-2
3.498053917E0,-1.377150849E-2,2.347995355E-2,-2.626218438E-2,3.782413242E-2
3.508051917E0,-3.206814062E-2,2.408046031E-2,-2.656214654E-2,4.810178625E-2
3.518048917E0,-2.664773516E-2,2.932339364E-2,-1.757965386E-2,4.334751935E-2
3.528046917E0,-1.805813882E-2,1.976091198E-2,-1.398420095E-2,3.020178631E-2
3.538044917E0,-2.347679012E-2,2.219985415E-2,-9.345020056E-3,3.363513934E-2
3.548042917E0,-2.128550950E-2,1.718154184E-2,-1.038991749E-2,2.926138548E-2
3.558040917E0,-1.893540390E-2,9.790478532E-3,-1.637337327E-2,2.687918047E-2
3.568038917E0,-1.679711368E-2,1.265163650E-2,-3.074290574E-2,3.724692185E-2
3.578036917E0,-1.525893051E-2,2.300456350E-2,-1.307846725E-2,3.054654166E-2
3.588034917E0,-1.613948464E-2,1.883103338E-2,-5.438495278E-3,2.539031338E-2
3.598032917E0,-8.554841951E-3,1.164287759E-2,-5.693375409E-2,5.873835437E-2
3.608029917E0,-1.229256492E-2,-2.441490049E-3,-4.870087445E-2,5.028760481E-2
3.618027917E0,-8.382239453E-3,4.369706484E-3,-3.343204021E-2,3.474273429E-2
3.628025917E0,-1.394283190E-2,1.933823138E-2,1.899175644E-3,2.391603275E-2
3.638023917E0,-1.916015625E-2,8.483774298E-3,-8.129383922E-3,2.247605163E-2
3.648021917E0,-2.971734066E-2,2.079406245E-2,-3.043066442E-2,4.734489102E-2
3.658019917E0,-2.242980961E-2,2.552345492E-2,-2.578680575E-2,4.265562637E-2
3.668017917E0,-2.963317730E-2,2.168063510E-2,-3.581127226E-2,5.128959306E-2
3.678015917E0,-1.793754000E-2,2.650273792E-2,-2.533247709E-2,4.081525272E-2
3.688013917E0,-2.272341292E-2,4.204574261E-2,-2.430102825E-3,4.785502446E-2
3.698010917E0,-2.460873798E-2,3.378591553E-2,-7.667453885E-3,4.249550473E-2
3.708008917E0,-8.618064970E-3,4.489764439E-2,-2.338593900E-2,5.135145235E-2
3.718006917E0,-9.809910245E-3,4.526645752E-2,-3.460733056E-2,5.781828295E-2
3.728004917E0,-1.752713855E-2,4.269914612E-2,-9.158493876E-3,4.705630325E-2
3.738002917E0,-1.728692763E-2,1.789572099E-2,1.718964458E-2,3.024200022E-2
3.748000917E0,-3.387017939E-2,-7.541175726E-3,1.718438208E-2,3.872158792E-2
3.757998917E0,2.758533619E-3,-3.042609857E-2,2.271526337E-2,3.807020057E-2
3.767996917E0,9.362598248E-3,-3.377542937E-2,3.946519732E-2,5.278200143E-2
3.777994917E0,-4.711390357E-2,3.355263104E-3,6.696348310E-2,8.194562690E-2
3.787991917E0,-7.003553711E-2,-4.377942835E-4,7.303874016E-2,1.011920238E-1
3.797989917E0,-5.344819229E-2,3.495285076E-2,4.555916548E-2,7.844774435E-2
3.807987917E0,-4.042103436E-2,1.588870122E-1,6.087536216E-2,1.748849690E-1
3.817985917E0,-6.065927099E-2,-1.345329661E-2,1.725741380E-1,1.834185690E-1
3.827983917E0,-6.555642374E-3,5.964424461E-2,2.193278897E-1,2.273876328E-1
3.837981917E0,1.771085076E-3,1.297204792E-1,2.901160365E-1,3.178015955E-1
3.847979917E0,-1.139939177E-1,1.294681902E-1,3.250426251E-1,3.679800723E-1
3.857977917E0,-1.204071072E-1,6.479296924E-2,2.949282950E-1,3.250826042E-1
3.867975917E0,9.342111066E-2,2.384470332E-2,3.367265314E-1,3.502582344E-1
3.877972917E0,2.041127767E-2,-5.357499008E-2,3.550891274E-1,3.596876259E-1
3.887970917E0,-3.659290978E-1,-3.725420063E-2,-1.801123685E-1,4.095515173E-1
3.897968917E0,4.917004041E-2,-1.185294749E-1,-1.439459948E0,1.445168458E0
3.907966917E0,5.939711661E-1,-1.966074643E-2,-1.140370774E0,1.285936932E0
3.917964917E0,4.767206782E-1,1.404231131E-1,-2.586983621E-1,5.602732354E-1
3.927962917E0,-7.506004952E-2,1.509643273E-2,-3.194614577E-1,3.285080460E-1
3.937960917E0,-5.705975427E-1,-1.062073999E-1,6.730952132E-1,8.887737246E-1
3.947958917E0,-1.667745407E-1,7.469058772E-2,-4.457741797E-2,1.880945972E-1
3.957956917E0,1.285057567E-1,7.983066486E-2,-2.442978394E-1,2.873466529E-1
3.967953917E0,1.377571848E-1,9.500660146E-2,-1.080167842E-1,1.991756058E-1
3.977951917E0,-2.581187569E-2,-1.633682086E-1,-8.946532309E-2,1.880411353E-1
3.987949917E0,-3.164779525E-1,-1.194852572E-1,2.289717025E-1,4.084887534E-1
3.997947917E0,-1.069635545E-1,1.014572863E-1,-4.481130660E-2,1.540871057E-1
4.007945917E0,6.131372061E-2,-1.644894396E-2,-1.102597761E-1,1.272287637E-1
4.017943917E0,-3.645252910E-2,-6.384385650E-2,-6.807620823E-2,1.001957834E-1
4.027941917E0,-1.224516958E-1,5.094335017E-2,-3.725319564E-2,1.377586416E-1
4.037939917E0,5.080170594E-3,-1.948495994E-2,6.745932698E-3,2.123627569E-2
4.047937917E0,9.834943637E-2,4.899514471E-3,-9.131596684E-3,9.889389736E-2
4.057934917E0,-2.332055982E-2,1.213753513E-1,-3.966692626E-2,1.298048129E-1
4.067932917E0,8.954243325E-2,-1.966818336E-2,-2.557864487E-2,9.517852626E-2
4.077930917E0,-1.875081461E-2,8.735970419E-2,-3.140773416E-2,9.470879964E-2
4.087928917E0,-3.157902103E-2,4.186126753E-2,-1.028876066E-2,5.343649394E-2
4.097926917E0,-4.292678554E-2,1.510153991E-2,-3.541073799E-3,4.564323200E-2
4.107925667E0,-5.405867815E-2,2.140033420E-2,-3.796012402E-2,6.943548086E-2
4.117923667E0,-4.972654916E-2,-4.330877317E-3,-4.050483227E-2,6.428162745E-2
4.127921667E0,-2.986169379E-2,3.998201810E-2,-2.568740308E-2,5.612597620E-2
4.137919667E0,7.632078230E-4,-2.483536326E-3,-3.631179392E-2,3.640462631E-2
4.147916667E0,-1.151704140E-2,2.818772731E-2,-2.643233836E-2,4.032193850E-2
4.157914667E0,7.538120784E-3,1.741958633E-2,-4.420495033E-3,1.948861281E-2
4.167912667E0,-1.165587623E-2,5.395480785E-2,-2.925829768E-2,6.247422447E-2
4.177910667E0,-7.495107204E-3,4.367372165E-2,-2.625516772E-2,5.150635327E-2
4.187908667E0,-1.495615438E-2,2.045279291E-2,-2.833853066E-2,3.801415015E-2
4.197906667E0,-3.652441330E-2,3.684636191E-2,-9.318122864E-3,5.271161700E-2
4.207904667E0,-4.187260564E-2,-2.680308837E-3,-2.275151610E-3,4.201994138E-2
4.217902667E0,-6.100407399E-2,2.571708227E-2,-2.278192163E-2,7.001343669E-2
4.227899667E0,-4.191737339E-2,2.375837923E-3,-3.729938865E-2,5.616008539E-2
4.237897667E0,-1.659297276E-2,5.807029749E-3,-4.493292868E-2,4.824952248E-2
4.247895667E0,-6.718779691E-3,1.570156474E-2,-1.693529069E-2,2.405171941E-2
4.257893667E0,8.987682089E-3,-1.280962781E-2,-1.003908455E-2,1.859161673E-2
4.267891667E0,-1.524464138E-2,1.219903231E-2,5.092340112E-3,2.017789404E-2
4.277889667E0,-1.587456923E-2,2.578450341E-2,-7.022505999E-3,3.108308470E-2
4.287887667E0,-2.106210932E-2,2.802306424E-2,-2.378121078E-2,4.236095566E-2
4.297885667E0,-3.319946721E-2,1.032096603E-2,-2.616570532E-2,4.351288428E-2
4.307883667E0,-5.485156059E-2,3.992474279E-3,-3.663631439E-2,6.608216917E-2
4.317880667E0,-5.954022355E-2,4.952408932E-4,-1.178447843E-2,6.069726037E-2
4.327878667E0,-3.990750264E-2,2.311590271E-2,-3.695440292E-3,4.626672675E-2
4.337876667E0,-1.707803585E-2,3.156387309E-2,-2.748776078E-2,4.520524732E-2
4.347874667E0,-7.965150252E-3,3.747059786E-2,-3.795661569E-2,5.392767376E-2
4.357872667E0,-2.005660750E-2,1.925901531E-2,-1.923967838E-2,3.381334647E-2
4.367870667E0,-3.356963251E-2,-2.420272194E-3,2.208961129E-2,4.025827705E-2
4.377868667E0,-3.366329759E-2,1.825741239E-2,2.778947711E-2,4.731602002E-2
4.387866667E0,-5.011820298E-2,-6.803363319E-3,5.499891043E-3,5.087601423E-2
4.397864667E0,-3.952454656E-2,3.131108608E-3,-4.239289820E-2,5.804439198E-2
4.407861667E0,1.168916881E-2,5.417322419E-2,-9.687433004E-2,1.116064994E-1
4.417859667E0,1.162240092E-2,3.989358810E-2,-3.339754164E-2,5.331017128E-2
4.427857667E0,-1.988199502E-3,3.765302871E-2,-8.537519574E-3,3.865996312E-2
4.437855667E0,-2.771386530E-2,2.446247993E-2,-2.784151733E-2,4.627765488E-2
4.447853667E0,-5.344102945E-2,2.117880467E-2,-3.112823725E-2,6.537164944E-2
4.457851667E0,-4.210810225E-2,2.697829014E-2,-4.294955313E-2,6.592104769E-2
4.467849667E0,-3.353648610E-2,1.900870423E-2,-2.094414175E-2,4.387121847E-2
4.477847667E0,-2.865683846E-2,2.217541005E-2,-1.060684919E-2,3.775537645E-2
4.487845667E0,-1.794927098E-2,2.463722260E-2,-3.270347714E-3,3.065720535E-2
4.497842667E0,-1.526485082E-2,2.231225545E-2,-6.709679961E-3,2.785448292E-2
4.507840667E0,-1.534017026E-3,1.385841044E-2,-9.384781122E-3,1.680722657E-2
4.517838667E0,-3.200575814E-2,-1.346378506E-2,9.364315867E-2,9.987333592E-2
4.527836667E0,-9.059051011E-2,-8.494230079E-2,2.028130138E-1,2.378128540E-1
4.537834667E0,8.578183305E-2,1.015796758E-1,-3.749772620E-1,3.978503493E-1
4.547832667E0,-1.097305666E-1,8.326485339E-2,-2.724510133E-2,1.404141325E-1
4.557830667E0,2.019229945E-2,-7.133270536E-2,-9.324613273E-2,1.191256693E-1
4.567828667E0,-4.728508081E-2,1.044599595E-1,-6.126127839E-3,1.148272243E-1
4.577825667E0,-2.650170095E-2,-4.970954656E-2,1.123717904E-2,5.744260932E-2
4.587823667E0,-2.096573990E-2,5.016677141E-2,-5.117658556E-2,7.466799925E-2
4.597821667E0,-3.037423879E-2,-1.886851723E-2,-3.815191269E-2,5.228942308E-2
4.607819667E0,-4.720727630E-2,1.548043492E-2,-1.106117785E-2,5.089715568E-2
4.617817667E0,-1.837904133E-2,-3.628955623E-3,-2.423553944E-2,3.063200697E-2
4.627815667E0,-2.343611542E-2,4.858985044E-2,-3.171178937E-2,6.257685400E-2
4.637813667E0,-1.113178298E-2,1.438032469E-2,-1.269430518E-2,2.217782033E-2
4.647811667E0,-1.423022255E-2,6.644701407E-2,-1.822518647E-2,7.035525804E-2
4.657809667E0,-1.439833000E-2,2.277979287E-2,-4.920548916E-2,5.610179171E-2
4.667806667E0,-4.332647927E-2,4.410092471E-2,-4.291446984E-2,7.525773773E-2
4.677804667E0,-6.116600532E-2,3.052846824E-2,-3.123991907E-2,7.516116100E-2
4.687802667E0,-4.371411312E-2,3.207213545E-2,-5.502229929E-3,5.449605576E-2
4.697800667E0,-1.703330465E-2,2.756216660E-2,-7.452276349E-3,3.324669785E-2
4.707798667E0,-2.290537097E-3,1.970933771E-2,-1.612077355E-3,1.990736915E-2
4.717796667E0,-3.944129683E-3,2.677862828E-2,-2.780760348E-2,3.880610652E-2
4.727794667E0,-3.505632363E-2,1.848832031E-2,-3.214740694E-2,5.103155482E-2
4.737792667E0,-3.794912394E-2,-2.024301491E-3,-3.393957853E-2,5.095222071E-2
4.747790667E0,-4.603808898E-2,7.724475658E-3,-2.615576506E-2,5.350978609E-2
4.757787667E0,-2.402368750E-2,-8.224851137E-3,-1.358132780E-2,2.879649635E-2
4.767785667E0,-1.329287734E-2,8.781649964E-3,-3.398401737E-3,1.629009203E-2
4.777783667E0,-2.731603537E-2,6.432352918E-3,-1.955659747E-2,3.420528405E-2
4.787781667E0,-4.269870758E-2,3.320483021E-3,-2.523658276E-2,4.971006282E-2
4.797779667E0,-5.645263787E-2,-1.780238024E-2,-3.317417800E-2,6.785536936E-2
4.807777667E0,-4.742303856E-2,-7.801405373E-3,-2.135169268E-2,5.258993527E-2
4.817775667E0,-2.337906852E-2,1.145552001E-2,-9.227491021E-3,2.762166494E-2
4.827773667E0,1.123630196E-2,3.359943047E-2,-1.296737015E-2,3.772703140E-2
4.837771667E0,-6.661001891E-3,5.050571806E-2,-4.275308669E-2,6.650581120E-2
4.847768667E0,-3.373123493E-2,3.238190312E-2,-3.811098218E-2,6.032272227E-2
4.857766667E0,-5.363190450E-2,1.437604206E-2,-1.535712719E-2,5.760983528E-2
4.867764667E0,-4.569050856E-2,3.201674222E-2,-1.775740921E-2,5.854929493E-2
4.877762667E0,-8.958592191E-3,2.709066403E-2,1.128512621E-2,3.068410868E-2
4.887760667E0,-5.909671225E-3,7.963883964E-2,-1.834505439E-2,8.193784238E-2
4.897758667E0,-2.940528207E-2,6.906201225E-2,-5.336636782E-2,9.209886733E-2
4.907756667E0,-5.015891422E-2,3.289234449E-2,-5.710683167E-2,8.281915977E-2
4.917754667E0,-6.137445856E-2,3.054970551E-2,-3.719764709E-2,7.799854883E-2
4.927751667E0,-1.975284465E-2,1.045990821E-2,-1.654001892E-2,2.780569685E-2
4.937749667E0,5.818637386E-3,1.222849223E-2,-1.249316096E-2,1.842475601E-2
4.947747667E0,-2.095473982E-2,5.055214860E-2,-3.644277155E-2,6.574721628E-2
4.957745667E0,-5.115082126E-2,-7.917929417E-3,-2.986173034E-2,5.975636419E-2
4.967743667E0,-7.080594432E-2,7.583843269E-3,-2.806780457E-2,7.654278596E-2
4.977741667E0,-3.304762233E-2,-1.250871775E-2,-2.912498116E-3,3.545554973E-2
4.987739667E0,-1.384182125E-3,-1.367375948E-3,1.282879114E-3,2.330548425E-3
4.997737667E0,-2.525613438E-2,5.335870248E-2,-2.146045089E-2,6.281380745E-2
5.007735667E0,-4.399361003E-2,1.199919230E-2,-3.253273845E-2,5.601604601E-2
5.017732667E0,-7.240519434E-2,1.092806005E-2,-4.615850508E-2,8.655947236E-2
5.027730667E0,-4.787451670E-2,-8.279771567E-3,-2.490855396E-2,5.459816871E-2
5.037728667E0,-6.973681748E-3,7.076887388E-3,-1.323634207E-2,1.655038742E-2
5.047726667E0,-1.475321945E-2,5.394906113E-2,-1.637337327E-2,5.827732006E-2
5.057724667E0,-3.232165396E-2,1.282067128E-2,-1.457944751E-2,3.770436601E-2
5.067722667E0,-5.496667765E-2,4.349972131E-3,-4.481773853E-2,7.105552474E-2
5.077720667E0,-3.118195854E-2,9.219702347E-3,-4.122462451E-2,5.250511514E-2
5.087718667E0,5.229895860E-3,-1.447727198E-3,-1.082962811E-2,1.211315689E-2
5.097716667E0,-1.001774222E-2,4.738046352E-2,-8.428176641E-3,4.915585056E-2
5.107713917E0,-4.922463879E-2,1.337229212E-2,-1.396022737E-2,5.288450821E-2
5.117711917E0,-6.875580087E-2,8.421765261E-3,-4.254667997E-2,8.129271960E-2
5.127709917E0,-4.607825205E-2,1.350798178E-2,-3.191527247E-2,5.765635698E-2
5.137707917E0,-2.411124956E-2,3.319372050E-2,-1.066064358E-2,4.238896976E-2
5.147705917E0,-3.516435094E-2,5.201322162E-2,-1.738961935E-2,6.514833583E-2
5.157703917E0,-6.109159950E-2,1.412483563E-2,-2.248020530E-2,6.661121633E-2
5.167701917E0,-5.976760715E-2,2.750489586E-2,-3.910266995E-2,7.653564502E-2
5.177699917E0,-2.466209382E-2,1.740256774E-2,-2.129146636E-2,3.693771480E-2
5.187696917E0,8.297929913E-4,4.722230547E-2,-3.332912922E-4,4.723077147E-2
5.197694917E0,-1.176781386E-2,4.145816596E-2,-1.603949726E-2,4.598398026E-2
5.207692917E0,-3.733026925E-2,-1.176720858E-2,-3.175505877E-2,5.040238048E-2
5.217690917E0,-3.063827712E-2,6.352632071E-3,-2.382272601E-2,3.932660974E-2
5.227688917E0,-7.118729241E-3,4.288651741E-3,-1.961799324E-2,2.130573862E-2
5.237686917E0,-7.504170388E-3,2.333076732E-2,-4.035163522E-3,2.483787072E-2
5.247684917E0,-4.181223314E-2,-6.988964451E-3,-6.418488622E-3,4.287546455E-2
5.257682917E0,-6.870156795E-2,-2.900348470E-2,-3.126330793E-2,8.086100411E-2
5.267680917E0,-4.888122451E-2,-9.491942769E-3,-2.706208348E-2,5.667298694E-2
5.277677917E0,-2.075717703E-2,9.631778018E-3,-4.303550720E-3,2.328415974E-2
5.287675917E0,-3.632677741E-2,2.201003434E-2,-3.997156620E-3,4.266208656E-2
5.297673917E0,-6.441332962E-2,-3.727462934E-3,-2.585404873E-2,6.950829338E-2
5.307671917E0,-5.559390116E-2,1.106562265E-2,-4.950486660E-2,7.525863185E-2
5.317669917E0,-1.051687516E-2,2.584868574E-2,-3.318704188E-2,4.336056925E-2
5.327667917E0,-2.850152180E-3,5.516965826E-2,-3.684915304E-3,5.536599282E-2
5.337665917E0,-3.579913929E-2,5.122010163E-2,-1.564890325E-2,6.442022476E-2
5.347663917E0,-4.331540611E-2,4.568926603E-2,-4.348632753E-2,7.651662642E-2
5.357661917E0,-3.259530365E-3,6.588631177E-3,-3.255495787E-2,3.337453941E-2
5.367658917E0,-8.524290249E-3,3.436000019E-2,-1.203590870E-2,3.739165997E-2
5.377656917E0,-3.982366819E-2,4.745433030E-2,-3.193164468E-3,6.203252624E-2
5.387654917E0,-6.691074852E-2,4.406514706E-2,-2.444253087E-2,8.376289613E-2
5.397652917E0,-5.580626473E-2,3.357373470E-2,-4.464992344E-2,7.896296922E-2
5.407650917E0,-3.988239616E-2,1.227493420E-2,-2.878116488E-2,5.069156720E-2
5.417648917E0,-4.711255141E-2,1.681828471E-2,-3.177727818E-2,5.926417644E-2
5.427646917E0,-7.273399059E-2,6.831411682E-3,-4.016101599E-2,8.336551312E-2
5.437644917E0,-5.924552388E-2,-2.011784795E-4,-1.816203654E-2,6.196718603E-2
5.447641917E0,-1.836869907E-2,-7.334596566E-3,1.477006674E-2,2.468522399E-2
5.457639917E0,-2.013912633E-2,1.739891323E-2,5.496967435E-3,2.717578411E-2
5.467637917E0,-4.417907640E-2,-1.430955511E-2,-3.042013943E-2,5.551521451E-2
5.477635917E0,-2.269574828E-2,-1.961646519E-2,-3.490846217E-2,4.602720313E-2
5.487633917E0,2.631539404E-3,-1.599830865E-2,3.021139383E-2,3.428701207E-2
5.497631917E0,1.903491620E-2,6.234048711E-2,4.923414052E-2,8.168638173E-2
5.507629917E0,-1.475446198E-2,7.124933685E-2,5.748163819E-2,9.272702346E-2
5.517627917E0,-5.123955276E-2,6.702663302E-2,6.392702401E-2,1.058523769E-1
5.527625917E0,-5.297310602E-2,-2.858012345E-2,1.088435805E-1,1.243780464E-1
5.537622917E0,-4.253739752E-2,1.644166235E-2,1.235189223E-1,1.316688369E-1
5.547620917E0,-8.285058729E-2,-2.868082347E-2,1.459722304E-1,1.702783060E-1
5.557618917E0,-1.229365031E-1,-7.125576422E-2,1.736628896E-1,2.243870918E-1
5.567616917E0,-7.139918089E-2,8.155326373E-3,1.977557570E-1,2.104083929E-1
5.577614917E0,-1.272512001E-1,4.644265692E-2,1.912975073E-1,2.344024842E-1
5.587612917E0,-1.233583432E-1,9.327432727E-3,2.405246311E-1,2.704743611E-1
5.597610917E0,-7.264478400E-2,-8.046745406E-2,2.930507541E-1,3.124596298E-1
5.607608917E0,-1.336515258E-1,-6.038156480E-2,2.858423066E-1,3.212701168E-1
5.617605917E0,-9.756737128E-2,2.217139694E-2,3.054322332E-1,3.214028809E-1
5.627603917E0,-2.490292601E-2,3.385411325E-2,3.166483623E-1,3.194251744E-1
5.637601917E0,-7.392514151E-2,4.007929201E-2,2.855025834E-1,2.976289659E-1
5.647599917E0,-5.343218554E-2,2.379929832E-2,3.227902776E-1,3.280472045E-1
5.657597917E0,1.661536029E-1,1.770045551E-1,3.653597617E-1,4.386631826E-1
5.667595917E0,5.122687161E-2,-3.280868134E-2,3.494348699E-1,3.546904710E-1
5.677593917E0,1.110134091E-2,-1.121096250E-3,4.191541457E-1,4.193026288E-1
5.687591917E0,-4.509665072E-4,1.166453102E-1,3.874101967E-1,4.045899062E-1
5.697589917E0,-4.144082531E-2,1.121145472E-2,4.302205861E-1,4.323572497E-1
5.707586917E0,-1.346629845E-1,8.544324271E-2,4.872362012E-1,5.126731735E-1
5.717584917E0,-1.624538868E-1,1.360434664E-2,5.502101290E-1,5.738532301E-1
5.727582917E0,-1.673909103E-1,1.571899309E-1,5.118178958E-1,5.609687600E-1
5.737580917E0,-1.839367033E-1,8.760311281E-2,6.495940840E-1,6.807932801E-1
5.747578917E0,-4.525777806E-2,3.837543621E-2,7.486272061E-1,7.509751223E-1
5.757576917E0,-1.970160842E-2,5.506344907E-2,9.304411143E-1,9.322772141E-1
5.767574917E0,4.956538528E-2,9.678706035E-2,1.072340174E0,1.077839465E0
5.777572917E0,1.000382950E-1,-6.672731954E-2,1.161424844E0,1.167633446E0
5.787570917E0,3.342571791E-2,-1.733273691E-1,1.253220282E0,1.265591060E0
5.797567917E0,-1.480908594E-1,-1.031198690E-1,1.219361980E0,1.232642790E0
5.807565917E0,-3.099443103E-1,2.897346062E-2,1.174520268E0,1.215073165E0
5.817563917E0,-3.433515364E-1,9.994916148E-2,1.174395137E0,1.227633517E0
5.827561917E0,-2.249258312E-1,2.746278038E-1,1.195374947E0,1.246969657E0
5.837559917E0,-5.523945026E-2,9.666104372E-2,1.213831683E0,1.218926622E0
5.847557917E0,1.006514121E-2,-7.123663743E-2,1.226631823E0,1.228739840E0
5.857555917E0,-4.221887045E-2,-3.057956742E-3,1.097373274E0,1.098189367E0
5.867553917E0,-1.130716290E-1,6.591261053E-2,9.269006252E-1,9.360953128E-1
5.877550917E0,-1.902430350E-1,1.461194889E-1,7.788228124E-1,8.149283960E-1
5.887548917E0,-1.742342357E-1,1.092954058E-1,7.639469111E-1,7.911497567E-1
5.897546917E0,7.030132961E-2,2.149535602E-2,8.248392302E-1,8.281087386E-1
5.907544917E0,2.564813172E-1,-3.371864514E-2,9.273947150E-1,9.627983020E-1
5.917542917E0,7.695162378E-2,-1.927046763E-1,8.289042145E-1,8.544816215E-1
5.927540917E0,-1.202398038E-1,-1.215835853E-1,7.423847187E-1,7.618236339E-1
5.937538917E0,-2.641406581E-3,3.428590546E-1,7.296559149E-1,8.061991457E-1
5.947536917E0,-1.416281512E-1,2.853567319E-1,6.279623097E-1,7.041474704E-1
5.957534917E0,-3.332459397E-1,-2.003323691E-2,6.215753961E-1,7.055566313E-1
5.967531917E0,-2.381557779E-1,5.935570279E-3,6.527375472E-1,6.948522944E-1
5.977529917E0,-2.276177066E-1,-1.572315923E-1,6.042641294E-1,6.645801171E-1
5.987527917E0,-1.078082944E-1,-2.329269967E-1,6.462114698E-1,6.953178250E-1
5.997525917E0,2.602434888E-2,-6.073262614E-2,6.208316302E-1,6.243377545E-1
6.007523917E0,1.276320000E-1,-9.098922626E-2,6.504278970E-1,6.690481417E-1
6.017521917E0,9.159966644E-2,-1.615882066E-1,6.231658387E-1,6.502591098E-1
6.027519917E0,-4.597055364E-2,-4.818124884E-2,4.843950391E-1,4.889512025E-1
6.037517917E0,-8.819574639E-2,1.637331663E-1,3.979948264E-1,4.393027672E-1
6.047514917E0,-1.723765022E-1,1.295310660E-1,3.618742365E-1,4.212421140E-1
6.057512917E0,-1.710488188E-1,1.136715168E-1,3.146644020E-1,3.757560352E-1
6.067510917E0,-9.433685772E-2,1.638697353E-1,3.068145150E-1,3.603996108E-1
6.077508917E0,-1.341822337E-1,1.936426519E-2,2.875666505E-1,3.179220425E-1
6.087506917E0,-1.013070677E-1,-5.717093634E-2,2.515600812E-1,2.771535899E-1
6.097504917E0,1.652127494E-1,1.424040036E-1,1.008820117E-2,2.183481729E-1
6.107502292E0,3.646704481E-1,3.168682907E-1,-1.555955780E-1,5.075431343E-1
6.117500292E0,8.680973701E-2,-2.607502597E-1,-3.013339198E-1,4.078342305E-1
6.127498292E0,-5.396154128E-2,-2.548361117E-1,-4.076860017E-1,4.837986851E-1
6.137495292E0,8.103626937E-2,1.260415299E-1,-6.842078465E-1,7.004239584E-1
6.147493292E0,1.227474553E-1,6.080462547E-1,-9.456134695E-1,1.130916451E0
6.157491292E0,-2.126548645E-1,-1.654547327E-2,-9.852137375E-1,1.008038666E0
6.167489292E0,-3.551642641E-1,-2.570680853E-1,-1.034603999E0,1.123668585E0
6.177487292E0,-2.949998503E-1,-9.982061410E-2,-1.131628017E0,1.173699722E0
6.187485292E0,-1.148293021E-1,1.210726483E-1,-1.075984744E0,1.088846878E0
6.197483292E0,-3.631263446E-2,1.571188690E-1,-9.472875273E-1,9.609155040E-1
6.207481292E0,-2.079704773E-2,9.800912842E-2,-7.862440985E-1,7.926021000E-1
6.217478292E0,6.216544066E-2,-9.231985155E-2,-6.643623966E-1,6.736207323E-1
6.227476292E0,1.902332409E-1,-1.273935250E-1,-5.331502926E-1,5.802301532E-1
6.237474292E0,1.046855158E-1,-2.208416973E-1,-5.893139684E-1,6.379820263E-1
6.247472292E0,3.319438744E-2,-5.268964854E-2,-6.393462539E-1,6.423719318E-1
6.257470292E0,-1.648785079E-1,3.139919859E-2,-6.918291074E-1,7.118977075E-1
6.267468292E0,-1.937263310E-1,2.602012336E-2,-7.314667976E-1,7.571331548E-1
6.277466292E0,-2.058376323E-1,-2.797606724E-2,-7.090047187E-1,7.388095034E-1
6.287464292E0,-1.619126905E-2,7.760888737E-2,-5.564450151E-1,5.620643659E-1
6.297462292E0,7.874763262E-2,3.815941814E-2,-4.662838733E-1,4.744238415E-1
6.307459292E0,1.261717310E-1,-9.310676800E-2,-4.952416241E-1,5.194732353E-1
6.317457292E0,7.700658761E-2,-1.435365088E-1,-4.743214560E-1,5.015113034E-1
6.327455292E0,3.294145882E-2,7.338616527E-2,-4.232121134E-1,4.307889992E-1
6.337453292E0,-1.886652004E-1,1.806510067E-1,-4.467144120E-1,5.174776420E-1
6.347451292E0,-8.404616017E-2,1.950532104E-1,-3.932843095E-1,4.469698648E-1
6.357449292E0,7.465385076E-2,2.079920571E-1,-1.238720942E-1,2.533341449E-1
6.367447292E0,1.632280582E-1,-1.405571788E-1,1.643108529E-1,2.709202390E-1
6.377445292E0,3.114879752E-1,-1.868959792E-1,4.906872278E-1,6.105152097E-1
6.387442292E0,-6.219500564E-2,-3.202159678E-1,5.720044559E-1,6.584797509E-1
6.397440292E0,-4.018096961E-3,2.306316539E-1,6.197808856E-1,6.613134287E-1
6.407438292E0,-1.670389444E-1,2.382363233E-1,6.312578005E-1,6.950863006E-1
6.417436292E0,-4.456746309E-1,-1.567655875E-2,7.828041816E-1,9.009184301E-1
6.427434292E0,-1.275600062E-1,8.472140394E-2,8.709100270E-1,8.842700643E-1
6.437432292E0,-3.337334879E-2,7.925124234E-2,9.125930732E-1,9.166355094E-1
6.447430292E0,-2.137860814E-1,-7.327473013E-2,9.727053738E-1,9.986137486E-1
6.457428292E0,-5.656358879E-2,-4.945005352E-2,1.116217681E0,1.118743339E0
6.467426292E0,-1.103582286E-1,3.207528975E-2,1.221398565E0,1.226793470E0
6.477423292E0,-2.168769561E-1,3.250249966E-2,1.203695535E0,1.223509284E0
6.487421292E0,-1.582794499E-1,1.402841687E-1,1.244345378E0,1.262191528E0
6.497419292E0,-2.318461571E-1,-7.795058403E-2,1.148157511E0,1.173922742E0
6.507417292E0,-1.790405373E-1,1.882973603E-2,1.119293901E0,1.133679368E0
6.517415292E0,-1.555974052E-1,-1.238738026E-1,1.099882314E0,1.117719275E0
6.527413292E0,9.458583947E-2,3.092212061E-2,1.180807194E0,1.184992949E0
6.537411292E0,8.823302239E-3,-1.377699390E-1,1.160123253E0,1.168308337E0
6.547409292E0,2.339368656E-2,2.793733127E-1,1.111311867E0,1.146128604E0
6.557406292E0,-1.081595293E-1,1.113626798E-1,1.109189912E0,1.120001068E0
6.567404292E0,-2.230065192E-1,-3.550283164E-2,1.193254747E0,1.214433716E0
6.577402292E0,-1.708235548E-1,1.871564726E-1,1.119845293E0,1.148155788E0
6.587400292E0,-1.003325196E-1,2.630387686E-1,1.078763925E0,1.114893544E0
6.597398292E0,-7.773979191E-2,2.341793424E-2,1.090087643E0,1.093107014E0
6.607396292E0,-1.110311700E-1,2.949164270E-2,1.082106194E0,1.088187251E0
6.617394292E0,-6.260018114E-2,1.795651970E-1,1.024308806E0,1.041811390E0
6.627392292E0,2.030182511E-2,4.239987375E-2,1.000375568E0,1.001479500E0
6.637390292E0,-1.801373653E-2,-1.086781956E-1,1.016574109E0,1.022525483E0
6.647387292E0,-1.924358871E-2,1.096980140E-1,1.001798780E0,1.007970617E0
6.657385292E0,-5.179233391E-2,9.047092541E-2,1.022361683E0,1.027662807E0
6.667383292E0,-1.550119162E-1,-8.109631296E-2,9.849956363E-1,1.000410771E0
6.677381292E0,-2.294108284E-1,-6.549799726E-2,8.512212825E-1,8.840231827E-1
6.687379292E0,-2.292164450E-1,4.691640930E-2,7.966141355E-1,8.302622531E-1
6.697377292E0,-2.328940513E-1,9.408364587E-2,7.491797680E-1,7.901656132E-1
6.707375292E0,-1.946119284E-1,7.582902233E-2,6.250995129E-1,6.590699844E-1
6.717373292E0,-6.570560083E-2,1.084455130E-1,5.040276504E-1,5.197321691E-1
6.727370292E0,3.720926844E-2,-1.841009096E-2,4.648723555E-1,4.667223671E-1
6.737368292E0,4.240302119E-2,-2.590277796E-1,4.293394107E-1,5.032153976E-1
6.747366292E0,2.898841213E-2,-1.096523418E-1,2.921877050E-1,3.134288102E-1
6.757364292E0,-1.278061739E-1,-1.105084107E-1,1.394461530E-1,2.190702091E-1
6.767362292E0,-1.754843704E-1,-3.339089500E-2,3.458511114E-2,1.819501196E-1
6.777360292E0,-1.172440559E-1,1.609636143E-1,-2.164229929E-2,2.003093680E-1
6.787358292E0,-1.232874822E-1,2.503112850E-2,-1.065888941E-2,1.262536043E-1
6.797356292E0,2.577745020E-2,2.150835237E-1,1.170729518E-2,2.169388390E-1
6.807353292E0,-6.854065988E-2,-4.111349087E-2,-3.254267871E-2,8.629697055E-2
6.817351292E0,-2.154150791E-2,-1.657372081E-1,-8.652008057E-2,1.881982546E-1
6.827349292E0,4.819545574E-2,1.282704977E-1,-1.839148128E-1,2.293486013E-1
6.837347292E0,-7.081968527E-2,-8.408668868E-2,-2.703951323E-1,2.918895795E-1
6.847345292E0,-4.493702173E-2,1.108869996E-1,-2.477728397E-1,2.751484012E-1
6.857343292E0,-3.322607204E-3,6.592823813E-2,-2.663120216E-1,2.743714000E-1
6.867341292E0,1.843228754E-2,2.123500418E-1,-1.931118983E-1,2.876186620E-1
6.877339292E0,-1.455638755E-2,-4.738679496E-3,-1.929739040E-1,1.935801414E-1
6.887337292E0,1.944973961E-2,8.965515660E-2,-2.283238310E-1,2.460652581E-1
6.897334292E0,-3.476019870E-2,-1.758571578E-2,-1.813665962E-1,1.855030216E-1
6.907332292E0,-1.133917641E-2,-8.191854112E-2,-3.485291362E-2,8.974380139E-2
6.917330292E0,1.543336026E-2,-1.043946808E-2,8.156807363E-2,8.366912058E-2
6.927328292E0,-3.388571106E-3,-5.182871455E-4,1.295854086E-1,1.296307415E-1
6.937326292E0,-8.784886032E-2,-6.106231774E-2,3.060432673E-2,1.112773729E-1
6.947324292E0,-1.032171338E-1,1.298116136E-2,-1.053598094E-1,1.480640966E-1
6.957322292E0,-1.221034211E-1,7.629445156E-2,-1.935913700E-1,2.412627350E-1
6.967320292E0,-1.814782415E-1,-2.061810237E-2,-1.602862144E-1,2.430043802E-1
6.977317292E0,-1.544520088E-1,-5.864487779E-2,-9.331571460E-3,1.654742364E-1
6.987315292E0,-1.152361221E-1,-9.792599289E-3,1.209701210E-1,1.673589825E-1
6.997313292E0,-4.865511999E-2,-1.275246442E-2,2.147653073E-1,2.205767061E-1
7.007311292E0,1.255857669E-2,2.215096137E-2,2.623212969E-1,2.635542558E-1
7.017309292E0,-2.110395346E-2,4.621715083E-2,2.191863871E-1,2.249979426E-1
7.027307292E0,-4.113918208E-3,-3.139380134E-2,2.175310403E-1,2.198232212E-1
7.037305292E0,-4.211066041E-2,4.811773803E-2,1.978978443E-1,2.079715875E-1
7.047303292E0,-1.595409502E-1,2.663991223E-2,1.818349582E-1,2.433658804E-1
7.057301292E0,-2.193944383E-1,-1.319473913E-1,2.413397330E-1,3.518364682E-1
7.067298292E0,-1.167650959E-1,-1.266642767E-1,2.944002914E-1,3.411003638E-1
7.077296292E0,2.400950801E-2,1.773035899E-2,2.573862469E-1,2.591109843E-1
7.087294292E0,7.723404430E-2,2.190101118E-2,1.070765519E-1,1.338287707E-1
7.097292292E0,5.003341835E-2,2.704843937E-1,1.948876977E-2,2.757625108E-1
7.107290792E0,-1.967010655E-2,2.805579037E-2,3.804373920E-2,5.119928278E-2
7.117288792E0,-1.125964331E-1,9.063890039E-3,8.892387092E-2,1.437621844E-1
7.127286792E0,-1.435146822E-1,8.909683887E-2,1.866273361E-1,2.517230091E-1
7.137284792E0,-1.044662452E-1,1.120160239E-1,1.804556000E-1,2.366960278E-1
7.147281792E0,-6.713012874E-2,9.717111278E-2,1.012211502E-1,1.555454936E-1
7.157279792E0,-8.098503314E-3,3.431292782E-2,4.235839963E-2,5.511076837E-2
7.167277792E0,-1.383385442E-2,-6.648673859E-2,-1.423855484E-2,6.938730705E-2
7.177275792E0,5.550283078E-2,2.307849606E-1,1.885025382E-2,2.381125665E-1
7.187273792E0,-5.938662451E-2,3.553903413E-3,3.697779179E-2,7.004825826E-2
7.197271792E0,-9.495326389E-2,-2.672907770E-2,3.909506857E-2,1.061083894E-1
7.207269792E0,-4.314083017E-2,9.426286303E-2,7.070043862E-2,1.254797617E-1
7.217267792E0,-1.845824187E-1,2.647763144E-2,1.786219132E-1,2.582199104E-1
7.227265792E0,-2.053487685E-1,-5.826627515E-2,1.200702345E-1,2.449080169E-1
7.237262792E0,-1.023470681E-1,1.109349377E-1,-1.586560106E-1,2.189822195E-1
7.247260792E0,-2.757247232E-2,-1.159268701E-1,-2.843962902E-1,3.083513099E-1
7.257258792E0,-1.094353553E-1,1.991921620E-1,-2.689970630E-1,3.521548442E-1
7.267256792E0,-1.331887552E-1,-4.898520445E-2,-3.273680627E-1,3.568033678E-1
7.277254792E0,1.146516198E-1,-1.891282086E-1,-4.913771993E-1,5.388562194E-1
7.287252792E0,2.484513360E-1,4.087542149E-1,-3.833756179E-1,6.130130006E-1
7.297250792E0,-1.568793342E-1,-2.245521759E-1,-2.843717319E-1,3.948443833E-1
7.307248792E0,-2.666529508E-1,-2.688503345E-1,-3.858027971E-1,5.405812582E-1
7.317245792E0,1.681644604E-2,4.750730242E-2,-5.944180030E-1,5.965504999E-1
7.327243792E0,-1.010758469E-1,4.359296247E-1,-5.198642492E-1,6.859371707E-1
7.337241792E0,-1.390849778E-1,-1.354980948E-1,-5.940958214E-1,6.250233673E-1
7.347239792E0,-1.175198983E-1,-3.468070946E-1,-6.937510872E-1,7.844594689E-1
7.357237792E0,2.803697878E-1,1.012996582E-1,-6.730379105E-1,7.361038429E-1
7.367235792E0,1.041266316E-1,-1.938286436E-2,-7.579733956E-1,7.653376505E-1
7.377233792E0,-4.780745644E-2,-5.659695903E-2,-7.406691456E-1,7.443652006E-1
7.387231792E0,-1.460075330E-2,-2.465556595E-2,-8.453623724E-1,8.458478702E-1
7.397229792E0,-3.230498940E-2,1.990956282E-1,-9.890085804E-1,1.009366462E0
7.407226792E0,-7.667537939E-2,-8.273309480E-2,-1.134158108E0,1.139753698E0
7.417224792E0,-8.496088397E-2,-2.184041027E-2,-1.203424224E0,1.206617263E0
7.427222792E0,1.228623896E-1,2.991101323E-1,-1.321635629E0,1.360618526E0
7.437220792E0,7.732471269E-2,-4.706095430E-2,-1.369793297E0,1.372780944E0
7.447218792E0,1.363708465E-1,-1.252363775E-1,-1.243265982E0,1.256977112E0
7.457216792E0,-1.412340123E-2,1.833145961E-1,-1.204611794E0,1.218561974E0
7.467214792E0,-4.368407305E-2,-2.590980558E-1,-1.197100461E0,1.225597656E0
7.477212792E0,6.872828241E-2,1.905404208E-1,-1.292149290E0,1.307929286E0
7.487209792E0,3.298739601E-2,2.886456993E-2,-1.437485343E0,1.438153484E0
7.497207792E0,-2.383394536E-2,4.752644291E-2,-1.516829136E0,1.517760669E0
7.507205792E0,-2.046507206E-2,1.714828466E-3,-1.592289208E0,1.592421641E0
7.517203792E0,-5.907880515E-3,1.055801124E-2,-1.654871957E0,1.654916182E0
7.527201792E0,5.955754593E-2,8.227227939E-2,-1.592165247E0,1.595401518E0
7.537199792E0,-9.438685142E-3,-1.250217664E-1,-1.606243004E0,1.611128833E0
7.547197792E0,4.531394787E-2,-4.216023384E-2,-1.662835280E0,1.663986781E0
7.557195792E0,3.569812864E-2,8.464877056E-2,-1.797722359E0,1.800068180E0
7.567193792E0,-2.185725756E-3,-4.628801177E-2,-2.024817106E0,2.025347296E0
7.577190792E0,1.469503965E-2,-7.332501161E-2,-2.220028739E0,2.221287938E0
7.587188792E0,7.208319549E-2,-2.908823964E-2,-2.315999089E0,2.317303151E0
7.597186792E0,-2.492777668E-3,-3.148105047E-2,-2.362877387E0,2.363088406E0
7.607184792E0,5.119445611E-2,3.291936959E-2,-2.396135765E0,2.396908667E0
7.617182792E0,4.108166009E-2,7.289761669E-2,-2.557542890E0,2.558911370E0
7.627180792E0,1.810922887E-2,-1.798955510E-2,-2.732278159E0,2.732397392E0
7.637178792E0,5.306892727E-2,-4.938135331E-2,-2.860022280E0,2.860940801E0
7.647176792E0,1.137466535E-1,-6.418092107E-2,-2.913358827E0,2.916284819E0
7.657173792E0,1.811108902E-1,-7.132051757E-2,-2.948414639E0,2.954832762E0
7.667171792E0,1.511364182E-1,-4.667963818E-2,-2.980484862E0,2.984679417E0
7.677169792E0,4.262565393E-2,-7.396853424E-3,-2.983064654E0,2.983378352E0
7.687167792E0,9.890166935E-2,3.902411627E-2,-2.922944752E0,2.924877851E0
7.697165792E0,2.703642882E-2,-4.251704647E-2,-2.870609248E0,2.871051397E0
7.707163792E0,1.165177221E-1,-5.347246737E-2,-2.854211317E0,2.857089065E0
7.717161792E0,1.086591374E-1,-5.167245685E-2,-2.932106754E0,2.934574393E0
7.727159792E0,8.596956521E-2,-1.494363996E-2,-2.990405248E0,2.991678062E0
7.737156792E0,1.459463931E-1,1.375232916E-2,-2.923706059E0,2.927378793E0
7.747154792E0,9.981145956E-2,4.005744261E-2,-2.736675265E0,2.738787767E0
7.757152792E0,8.657259587E-2,-7.633760675E-2,-2.578229170E0,2.580811480E0
7.767150792E0,-5.381119475E-3,-6.556033406E-2,-2.492848712E0,2.493716466E0
7.777148792E0,4.415853806E-2,-4.898464256E-2,-2.598619580E0,2.599456327E0
7.787146792E0,2.804448880E-2,7.051637010E-2,-2.597216249E0,2.598324709E0
7.797144792E0,1.067832410E-1,4.099414829E-2,-2.546560650E0,2.549128150E0
7.807142792E0,5.138416171E-2,1.109307030E-3,-2.353407236E0,2.353968390E0
7.817140792E0,4.096482541E-2,-1.206443398E-1,-2.161596928E0,2.165348576E0
7.827137792E0,-3.055645265E-2,-1.099050785E-1,-1.905115246E0,1.908527422E0
7.837135792E0,8.820005871E-2,4.557751112E-2,-1.627220474E0,1.630246310E0
7.847133792E0,7.315740209E-2,6.100567284E-2,-1.347672111E0,1.351034350E0
7.857131792E0,3.172275290E-2,-5.613597688E-3,-1.200742106E0,1.201174197E0
7.867129792E0,2.366422992E-2,-6.875597446E-2,-1.203338855E0,1.205533815E0
7.877127792E0,2.751118619E-2,-6.471602353E-2,-1.188112705E0,1.190191930E0
7.887125792E0,1.267822534E-3,-2.005374556E-2,-1.091006241E0,1.091191265E0
7.897123792E0,-5.817318108E-2,3.315217100E-2,-8.948111057E-1,8.973127105E-1
7.907121792E0,-1.094757010E-1,5.886065832E-2,-6.754247439E-1,6.867664020E-1
7.917118792E0,-1.865077606E-1,7.274862690E-2,-5.148958701E-1,5.524448068E-1
7.927116792E0,-2.361362958E-1,6.895770340E-2,-4.727941632E-1,5.329632594E-1
7.937114792E0,-2.233407607E-1,7.680207211E-2,-4.621457988E-1,5.189974884E-1
7.947112792E0,-1.271822760E-1,1.664413955E-1,-3.555417019E-1,4.126596313E-1
7.957110792E0,-1.068472314E-1,5.620977286E-2,-1.321698779E-1,1.790104635E-1
7.967108792E0,1.510507565E-2,-7.507941842E-2,8.902678192E-2,1.174344510E-1
7.977106792E0,4.189616261E-1,-1.062922302E-1,2.326010692E-1,4.908463505E-1
7.987104792E0,1.583159585E-1,2.795452025E-1,-2.286787570E-2,3.220751507E-1
7.997101792E0,9.118221179E-3,2.622413545E-1,-2.520442307E-2,2.636075358E-1
8.007099792E0,-1.163954422E-1,-3.826570270E-2,1.594342750E-1,2.010757346E-1
8.017097792E0,-1.842239843E-1,-1.228689952E-1,2.482762849E-1,3.326805976E-1
8.027095792E0,-2.166150740E-1,-1.040863772E-1,2.763265479E-1,3.662136333E-1
8.037093792E0,-2.460792302E-1,-9.871538985E-3,2.377284926E-1,3.422970508E-1
8.047091792E0,-2.703004074E-1,1.811395050E-1,1.104778773E-1,3.436265296E-1
8.057089792E0,-1.973186411E-1,2.233892926E-1,1.165835398E-1,3.200455341E-1
8.067087792E0,-1.673213650E-1,-1.396855508E-2,3.394390547E-1,3.786956979E-1
8.077085792E0,-9.021489959E-2,-1.891486373E-1,4.888079327E-1,5.318356233E-1
8.087082792E0,-1.909360763E-2,-4.172462541E-2,3.407687116E-1,3.438441871E-1
8.097080792E0,-1.704879977E-2,7.248728377E-2,6.714883983E-2,1.002698089E-1
8.107077917E0,-4.342142344E-2,1.250541362E-1,-7.953499675E-2,1.544337162E-1
8.117075917E0,-5.298308283E-4,5.350830898E-2,3.184802949E-2,6.227131629E-2
8.127073917E0,-2.356756814E-3,-1.340769290E-2,2.550684106E-1,2.554314284E-1
8.137071917E0,-9.079794008E-2,-2.234089082E-2,4.451970595E-1,4.549107639E-1
8.147069917E0,-1.698898641E-1,-8.393986875E-2,4.630187881E-1,5.002947787E-1
8.157067917E0,-1.083991190E-1,2.444514841E-2,2.905756277E-1,3.110982637E-1
8.167064917E0,-1.728659872E-2,1.319667237E-1,7.981040061E-2,1.551893769E-1
8.177062917E0,4.756413918E-2,5.389228375E-2,6.560868323E-2,9.732021835E-2
8.187060917E0,-4.133246910E-2,-1.415708119E-1,2.145729339E-1,2.603693756E-1
8.197058917E0,-4.006256349E-2,-1.423550332E-1,2.961848617E-1,3.310520152E-1
8.207056917E0,-4.085738283E-2,5.665316083E-2,3.417229772E-1,3.487886172E-1
8.217054917E0,-7.348276310E-2,1.069807855E-1,4.028187793E-1,4.232110277E-1
8.227052917E0,-1.071666356E-1,3.889862040E-2,4.841044325E-1,4.973478581E-1
8.237050917E0,-2.138476234E-1,-1.142137364E-1,4.950270313E-1,5.512053568E-1
8.247048917E0,-1.116890183E-1,-1.269793685E-1,3.935410023E-1,4.283371538E-1
8.257045917E0,-3.930512980E-2,9.412656809E-2,2.513402259E-1,2.712500935E-1
8.267043917E0,-8.253849216E-2,4.581796416E-2,4.222449839E-2,1.034156506E-1
8.277041917E0,-8.970436458E-2,2.318257467E-1,-1.619585180E-1,2.966826780E-1
8.287039917E0,-1.177381457E-1,4.291946281E-2,-2.574762940E-1,2.863536157E-1
8.297037917E0,-2.204433192E-1,-1.574635989E-2,-1.807310039E-1,2.854941340E-1
8.307035917E0,-2.545134368E-1,-9.611163157E-3,-1.022151768E-1,2.744401689E-1
8.317033917E0,-1.678201690E-1,5.368355643E-2,-1.037664431E-1,2.044822928E-1
8.327031917E0,8.391130876E-2,-5.293146288E-2,-3.688891411E-2,1.058472460E-1
8.337028917E0,2.520665232E-2,2.495079461E-1,2.224105418E-2,2.517622986E-1
8.347026917E0,2.709554783E-1,-1.336239891E-1,2.052232361E-1,3.652243397E-1
8.357024917E0,1.527315752E-1,-3.439209821E-2,1.894462788E-1,2.457633883E-1
8.367022917E0,1.881937321E-2,7.270643558E-2,7.114658117E-2,1.034515858E-1
8.377020917E0,-1.219805930E-1,2.170843679E-2,-2.978864014E-2,1.274279576E-1
8.387018917E0,-1.363141651E-1,-5.597122930E-2,-1.206947172E-1,1.904771505E-1
8.397016917E0,-1.553627491E-1,-5.096989562E-2,-2.537691593E-4,1.635101785E-1
8.407014917E0,-2.996940316E-1,-5.059422572E-2,3.991408807E-1,5.016868853E-1
8.417012917E0,-3.735841994E-1,-9.961195987E-2,7.730516106E-1,8.643474355E-1
8.427009917E0,-3.589671105E-1,-7.730009043E-2,7.370666760E-1,8.234682600E-1
8.437007917E0,-2.149556342E-1,3.158795265E-1,4.031906623E-1,5.554714305E-1
8.447005917E0,-1.469942506E-1,2.525108202E-1,1.262057179E-1,3.182717507E-1
8.457003917E0,1.401063768E-1,4.392679646E-2,-5.912061274E-2,1.582864717E-1
8.467001917E0,1.163606147E-1,-1.847540344E-1,1.236838138E-1,2.509412913E-1
8.476999917E0,1.675260540E-1,-1.388699830E-1,4.605617881E-1,5.093790451E-1
8.486997917E0,8.458560236E-2,4.767268726E-2,6.347585285E-1,6.421415722E-1
8.496995917E0,3.337291025E-2,3.269227607E-1,5.414597708E-1,6.333805539E-1
8.506992917E0,-1.773517518E-1,3.057104876E-1,4.189301974E-1,5.481013194E-1
8.516990917E0,-2.546184674E-1,6.946918402E-2,3.540038842E-1,4.415600542E-1
8.526988917E0,-3.267391947E-1,-1.767365881E-1,3.878510767E-1,5.370500728E-1
8.536986917E0,-2.952409018E-1,-7.848286338E-2,3.950180089E-1,4.993655748E-1
8.546984917E0,-1.799106030E-1,1.773238313E-1,2.917023861E-1,3.858780226E-1
8.556982917E0,-1.489738986E-2,2.240878704E-1,2.148880988E-1,3.108282499E-1
8.566980917E0,-4.035821334E-2,3.157434554E-2,2.018581635E-1,2.082605168E-1
8.576978917E0,-4.611114264E-2,-5.103682248E-1,2.425828511E-1,5.669641982E-1
8.586976917E0,-6.710454717E-2,8.777663807E-2,1.725647825E-1,2.049057408E-1
8.596973917E0,1.529004135E-1,-9.307451695E-2,1.661831313E-1,2.442503537E-1
8.606971917E0,2.055431519E-2,1.594691573E-1,1.415341938E-1,2.142074229E-1
8.616969917E0,-1.264198356E-1,1.234035403E-1,1.336457151E-1,2.215210730E-1
8.626967917E0,-2.652912074E-1,2.844816595E-3,2.143542480E-1,3.410795528E-1
8.636965917E0,-1.793050142E-1,-5.660495784E-2,3.191462928E-1,3.704170158E-1
8.646963917E0,-1.055065745E-1,3.385489441E-2,3.659930152E-1,3.823985856E-1
8.656961917E0,-5.495856464E-2,1.389954058E-1,3.237661779E-1,3.566016049E-1
8.666959917E0,-2.064689123E-1,2.179262938E-1,1.700335228E-1,3.450111305E-1
8.676957917E0,-2.630516142E-4,-2.033918151E-1,1.673297703E-1,2.633772041E-1
8.686954917E0,7.743540779E-3,4.736482678E-2,-5.934923887E-4,4.799730694E-2
8.696952917E0,2.965652961E-2,3.990076921E-2,3.490436912E-2,6.074451511E-2
8.706950917E0,3.269130763E-2,-1.286858144E-1,2.389698565E-1,2.733776742E-1
8.716948917E0,-4.268569753E-2,3.441769348E-2,2.366034883E-1,2.428741590E-1
8.726946917E0,-1.387473742E-1,-2.363759997E-2,3.433409017E-1,3.710694609E-1
8.736944917E0,-7.939904898E-2,-1.136727593E-1,1.477147007E-1,2.025964906E-1
8.746942917E0,-2.247018829E-1,-1.793950430E-2,4.516213953E-2,2.298964567E-1
8.756940917E0,-1.218215853E-1,1.080894176E-1,4.484054267E-2,1.689215649E-1
8.766937917E0,-5.809197787E-2,3.823070392E-2,1.054323149E-1,1.263021680E-1
8.776935917E0,-1.478075252E-1,2.704799992E-2,3.454879993E-1,3.767500717E-1
8.786933917E0,-2.725200836E-2,4.730112868E-2,4.303199887E-1,4.337687880E-1
8.796931917E0,-1.048306729E-1,-2.890737338E-2,3.867213947E-1,4.017194834E-1
8.806929917E0,-5.948387101E-2,4.335042545E-2,1.995719022E-1,2.127123279E-1
8.816927917E0,-5.513511401E-2,8.813965880E-2,-5.373357296E-2,1.170289584E-1
8.826925917E0,-3.430477370E-2,9.479569056E-2,-1.096054727E-1,1.489174271E-1
8.836923917E0,-1.245881953E-1,1.670015382E-2,5.140755057E-2,1.358081360E-1
8.846921917E0,-9.466404598E-2,2.719029511E-2,2.380120826E-1,2.575856075E-1
8.856918917E0,-1.152024275E-1,5.379348865E-2,3.599505025E-1,3.817455998E-1
8.866916917E0,-1.389625883E-1,7.053494414E-2,3.736546218E-1,4.048500410E-1
8.876914917E0,-5.021245278E-2,3.261622344E-2,3.236328614E-1,3.291251091E-1
8.886912917E0,1.805347202E-1,-3.348007144E-1,3.758718860E-1,5.347559988E-1
8.896910917E0,-1.248054194E-1,2.179087887E-1,1.834920591E-1,3.110144187E-1
8.906908917E0,-1.158191260E-1,2.060396170E-1,8.376955032E-2,2.507662882E-1
8.916906917E0,-1.199953171E-1,-3.241317888E-2,1.754807889E-1,2.150418508E-1
8.926904917E0,-2.981459082E-1,-7.504862004E-2,2.921596384E-1,4.241232512E-1
8.936901917E0,-3.239926844E-1,-1.169679120E-1,4.206253052E-1,5.436712236E-1
8.946899917E0,-2.358307057E-1,8.077798689E-2,4.791904324E-1,5.401524557E-1
8.956897917E0,6.002166867E-3,2.476860907E-2,6.543852925E-1,6.548813794E-1
8.966895917E0,7.856209315E-3,1.412431486E-1,7.589381862E-1,7.720094025E-1
8.976893917E0,6.719711591E-2,-1.773024250E-3,7.400405699E-1,7.430872365E-1
8.986891917E0,8.404447909E-2,-4.509258508E-3,4.713311899E-1,4.787869029E-1
8.996889917E0,-1.433614486E-1,1.342696587E-1,1.969166815E-1,2.781313101E-1
9.006887917E0,-2.089433078E-1,-6.658071431E-2,2.137572473E-1,3.062392172E-1
9.016885917E0,-3.267966070E-1,-3.629211896E-2,2.084444672E-1,3.893099487E-1
9.026882917E0,-3.282436833E-2,-1.889583835E-1,4.203610110E-1,4.620455491E-1
9.036880917E0,-2.562037937E-2,1.091730620E-1,6.190991002E-1,6.291731536E-1
9.046878917E0,-7.964342605E-2,3.428461907E-1,6.702534664E-1,7.570510518E-1
9.056876917E0,-1.209565993E-2,2.306184246E-1,6.412144393E-1,6.815329191E-1
9.066874917E0,-2.892694328E-2,8.896995429E-4,5.548855627E-1,5.556397639E-1
9.076872917E0,-8.399638575E-2,-5.165081759E-2,5.619478297E-1,5.705335775E-1
9.086870917E0,-2.788926350E-1,1.495161639E-1,4.016347182E-1,5.113185230E-1
9.096868917E0,-2.624371449E-1,5.829179733E-2,2.595836306E-1,3.737042278E-1
9.106867667E0,-8.484368384E-2,-1.819509523E-1,3.625776565E-1,4.144480145E-1
9.116864667E0,-1.260176568E-1,-9.000037987E-2,4.558395767E-1,4.814252153E-1
9.126862667E0,-1.584611156E-1,2.676328163E-2,5.002883559E-1,5.254661145E-1
9.136860667E0,-1.080194520E-1,-4.319597216E-2,5.148034841E-1,5.277847300E-1
9.146858667E0,-5.437753413E-2,-6.184064610E-2,5.986432010E-1,6.042804513E-1
9.156856667E0,-1.201105803E-2,-1.759891427E-2,6.260713202E-1,6.264337836E-1
9.166854667E0,7.269181754E-2,8.429566269E-2,5.063881713E-1,5.184774239E-1
9.176852667E0,3.780520935E-2,1.334564024E-1,3.190515679E-1,3.478990488E-1
9.186850667E0,-1.397403411E-1,-2.876894969E-2,1.833523107E-1,2.323210822E-1
9.196848667E0,-2.062049105E-1,-8.666881911E-2,1.203731203E-1,2.540110970E-1
9.206845667E0,-2.591704151E-1,-6.369326329E-2,1.596038443E-1,3.109654691E-1
9.216843667E0,-2.421332002E-1,-4.922297599E-2,2.872807217E-1,3.789216291E-1
9.226841667E0,-1.694276417E-1,8.216706606E-2,3.546318752E-1,4.015232489E-1
9.236839667E0,-6.448060915E-2,8.598364421E-2,3.091311818E-1,3.272812607E-1
9.246837667E0,-4.804178361E-2,5.618495417E-2,2.762195438E-1,2.859405505E-1
9.256835667E0,5.951650579E-2,6.332317108E-2,1.753720307E-1,1.957227315E-1
9.266833667E0,5.809877526E-2,2.190238162E-2,1.549190551E-1,1.668984591E-1
9.276831667E0,-1.220953811E-1,-3.726515503E-2,2.626113188E-1,2.919943127E-1
9.286829667E0,3.289351165E-3,-1.830288500E-1,4.223981810E-1,4.603592109E-1
9.296826667E0,-2.161850478E-1,1.337172887E-1,3.995244581E-1,4.735357228E-1
9.306824667E0,-2.629671950E-1,1.461919852E-1,4.811024719E-1,5.674358384E-1
9.316822667E0,-2.525950384E-1,-1.355942175E-1,5.840684313E-1,6.506350572E-1
9.326820667E0,-2.425830703E-1,-1.473241889E-1,4.585947847E-1,5.393145086E-1
9.336818667E0,1.042098083E-2,3.629090475E-1,2.574032038E-1,4.450482928E-1
9.346816667E0,1.351656257E-1,1.604186538E-1,2.653460616E-1,3.382490551E-1
9.356814667E0,-2.470452268E-2,-1.488595124E-1,3.692604393E-1,3.989019176E-1
9.366812667E0,-7.516190071E-2,-3.067972383E-2,5.489225721E-1,5.548932753E-1
9.376810667E0,-1.576404224E-1,1.266830060E-1,6.734852225E-1,7.031937369E-1
9.386807667E0,-1.100930574E-1,4.476698470E-1,7.538633877E-1,8.836508250E-1
9.396805667E0,-2.446360277E-1,1.494906737E-1,8.855584717E-1,9.308104288E-1
9.406803667E0,-1.988439238E-1,-1.219681128E-1,9.504982334E-1,9.787042548E-1
9.416801667E0,-8.307219677E-2,-3.433596128E-1,1.103177220E0,1.158359527E0
9.426799667E0,-3.527734838E-2,-1.294225568E-2,1.201973530E0,1.202560751E0
9.436797667E0,2.928556032E-2,2.806459226E-1,1.247343246E0,1.278860802E0
9.446795667E0,4.568466134E-3,2.437435416E-1,1.286889719E0,1.309777437E0
9.456793667E0,-1.526346941E-1,-2.011410756E-1,1.424027392E0,1.446239639E0
9.466790667E0,-3.239402787E-1,-2.924064823E-1,1.528538770E0,1.589613043E0
9.476788667E0,-1.108241786E-1,3.684067001E-2,1.508982757E0,1.513495357E0
9.486786667E0,-5.967741385E-2,-2.006714619E-2,1.577617375E0,1.578873226E0
9.496784667E0,-1.598025034E-1,7.504638622E-2,1.709566813E0,1.718658630E0
9.506782667E0,-2.735275223E-1,9.595689277E-2,1.815752833E0,1.838745057E0
9.516780667E0,-3.621976971E-1,-3.549446053E-2,1.877921015E0,1.912860258E0
9.526778667E0,-3.317539861E-1,4.210509185E-2,1.926321343E0,1.955133617E0
9.536776667E0,-1.872824801E-1,1.579706073E-1,1.975187109E0,1.990324987E0
9.546774667E0,-1.262304224E-1,1.592951113E-1,2.062695369E0,2.072684548E0
9.556771667E0,-1.580846280E-1,7.879743445E-2,2.135256976E0,2.142550382E0
9.566769667E0,-2.071933092E-1,-4.698043060E-3,2.161588157E0,2.171500518E0
9.576767667E0,-1.824692349E-1,1.406014966E-2,2.122215931E0,2.130092291E0
9.586765667E0,-1.665940444E-1,6.286520276E-3,2.047344089E0,2.054120472E0
9.596763667E0,-2.883727988E-1,-1.432378349E-1,1.964973192E0,1.991179448E0
9.606761667E0,-3.370650486E-1,-3.015920561E-1,1.860302770E0,1.914496542E0
9.616759667E0,-2.763041457E-1,-7.674248532E-2,1.795599235E0,1.818353652E0
9.626757667E0,-5.337298248E-2,7.830390935E-1,1.627781222E0,1.807116655E0
9.636755667E0,-1.088338229E-1,2.140243554E-1,1.600972323E0,1.618877267E0
9.646753667E0,-2.268568376E-1,-2.065108295E-1,1.634750519E0,1.663285906E0
9.656750667E0,-1.057257355E-1,4.070492125E-2,1.524073251E0,1.528278148E0
9.666748667E0,-6.737980485E-2,3.307526184E-2,1.493329761E0,1.495214963E0
9.676746667E0,-4.809583381E-2,-5.824044690E-2,1.458258746E0,1.460213591E0
9.686744667E0,5.264979154E-3,1.371826136E-1,1.318695649E0,1.325822388E0
9.696742667E0,-1.062890781E-1,2.215667520E-1,1.310526504E0,1.333367508E0
9.706740667E0,-1.677752551E-1,1.038516298E-1,1.288874264E0,1.303890550E0
9.716738667E0,-8.098485041E-2,5.654207286E-3,1.101076900E0,1.104065603E0
9.726736667E0,-4.346096523E-2,-1.973053843E-3,9.862995654E-1,9.872586192E-1
9.736734667E0,-1.669609572E-1,7.302452412E-2,9.641538209E-1,9.812243029E-1
9.746731667E0,-1.951049218E-1,-9.756620184E-2,8.744826758E-1,9.012796705E-1
9.756729667E0,-1.533994368E-1,3.472426117E-2,9.024499083E-1,9.160529452E-1
9.766727667E0,-1.812377382E-1,1.007879446E-1,9.821907270E-1,1.003844585E0
9.776725667E0,-1.880731333E-1,2.600295630E-2,9.812428933E-1,9.994424811E-1
9.786723667E0,-2.280263539E-1,-3.871725165E-2,9.051419663E-1,9.342253598E-1
9.796721667E0,-2.226161445E-1,6.468697932E-2,8.987702554E-1,9.281865789E-1
9.806719667E0,-2.042361164E-1,-1.046357048E-1,8.707065439E-1,9.004392859E-1
9.816717667E0,-2.197263774E-1,-1.086105872E-1,8.047569680E-1,8.412548473E-1
9.826715667E0,-2.098591645E-1,-4.275507839E-2,7.464450252E-1,7.765623229E-1
9.836712667E0,-1.025721859E-1,-1.431147692E-1,6.420418203E-1,6.657481427E-1
9.846710667E0,-8.665211800E-2,-1.735427225E-2,5.671185225E-1,5.739626982E-1
9.856708667E0,-1.592910182E-1,7.003388344E-2,5.540184206E-1,5.807019749E-1
9.866706667E0,-1.484728653E-1,4.941367288E-2,6.114193672E-1,6.311256177E-1
9.876704667E0,-1.366385759E-1,-1.944771364E-3,6.430674219E-1,6.574264915E-1
9.886702667E0,-1.391861347E-1,-5.224770410E-2,6.181337249E-1,6.357608863E-1
9.896700667E0,-6.865895636E-2,5.776721529E-2,5.908131945E-1,5.975879302E-1
9.906698667E0,2.084605470E-2,1.434276775E-2,5.224960810E-1,5.231084282E-1
9.916696667E0,-2.061658803E-2,9.161177200E-2,5.164564919E-1,5.249238693E-1
9.926694667E0,-1.618728563E-2,9.102225389E-2,5.331865454E-1,5.411422836E-1
9.936691667E0,-4.138403423E-3,8.929349718E-2,5.313668919E-1,5.388332105E-1
9.946689667E0,-6.392450240E-2,1.005411007E-1,5.485588753E-1,5.613481047E-1
9.956687667E0,-4.467217941E-2,9.520754468E-2,5.301383919E-1,5.404690506E-1
9.966685667E0,-1.922425635E-2,1.088315389E-1,4.717527741E-1,4.845250827E-1
9.976683667E0,-1.255253944E-1,7.550974608E-2,4.006365985E-1,4.265771096E-1
9.986681667E0,-1.871999613E-1,9.734650184E-2,2.940319169E-1,3.619045939E-1
9.996679667E0,-2.279337120E-1,9.629689009E-2,2.230268383E-1,3.331183554E-1
1.000667767E1,-2.452959591E-1,4.526073821E-2,2.319444269E-1,3.406124765E-1
1.001667567E1,-2.134086802E-1,9.556895971E-3,3.499856776E-1,4.100299667E-1
1.002667367E1,-9.813568410E-2,3.292920251E-2,4.276244223E-1,4.399745350E-1
1.003667067E1,-1.136789355E-1,-6.141377994E-3,4.227981305E-1,4.378571412E-1
1.004666867E1,-5.389831826E-2,2.854851080E-3,3.223470587E-1,3.268345225E-1
1.005666667E1,-3.529697310E-2,-2.261435778E-2,2.446796626E-1,2.482446833E-1
1.006666467E1,-4.164054427E-2,-8.511064578E-2,2.191314232E-1,2.387390576E-1
1.007666267E1,-5.515952613E-2,-2.097274742E-2,2.099255669E-1,2.180623147E-1
1.008666067E1,-8.927510586E-2,-8.059378132E-2,2.661500537E-1,2.920637828E-1
1.009665867E1,-2.009572172E-1,-6.066456090E-2,3.079903901E-1,3.727225140E-1
1.010665604E1,-2.448122117E-1,-4.634500842E-2,3.107578772E-1,3.983106037E-1
1.011665404E1,-2.031288731E-1,-6.296151623E-2,2.512378997E-1,3.291594960E-1
1.012665104E1,-2.686121335E-1,-2.585208215E-3,1.682109457E-1,3.169449224E-1
1.013664904E1,-2.191414000E-1,6.513539680E-2,1.761883020E-1,2.886310637E-1
1.014664704E1,-6.398063567E-2,1.103553872E-1,1.008130145E-1,1.625887362E-1
1.015664504E1,-5.910961267E-2,7.587205418E-3,6.678397357E-2,8.950760371E-2
1.016664304E1,1.863957133E-2,8.600907046E-2,9.250704467E-2,1.276814283E-1
1.017664104E1,2.402262770E-2,-7.010362976E-2,1.406898558E-1,1.590133362E-1
1.018663904E1,-6.948100179E-3,-1.409884201E-1,1.096855795E-1,1.787650331E-1
1.019663704E1,-1.846312064E-1,-1.124761632E-1,8.140493631E-3,2.163465675E-1
1.020663504E1,-3.582532751E-1,-1.642017840E-1,-9.807768703E-2,4.061118906E-1
1.021663304E1,-9.748211157E-2,3.018344597E-1,-2.182479089E-1,3.850181202E-1
1.022663004E1,1.087834273E-2,3.480795218E-1,-2.442732811E-1,4.253788050E-1
1.023662804E1,-6.920947172E-2,9.738340326E-2,-1.961980587E-1,2.297110281E-1
1.024662604E1,4.067845803E-2,-3.748630312E-2,-1.782085150E-1,1.865964488E-1
1.025662404E1,9.196296126E-2,4.022039264E-2,-2.472027361E-1,2.668034089E-1
1.026662204E1,4.691553678E-2,-1.071672934E-1,-3.142545122E-1,3.353234182E-1
1.027662004E1,-1.498947254E-1,-6.189955680E-2,-3.478093439E-1,3.837594606E-1
1.028661804E1,-1.108529761E-1,2.293605058E-1,-3.710479331E-1,4.500790959E-1
1.029661604E1,1.039642252E-2,2.183168695E-1,-4.027030045E-1,4.581921550E-1
1.030661404E1,-1.304847469E-1,1.125133204E-1,-3.992110473E-1,4.348045270E-1
1.031661204E1,-1.191967336E-1,9.694851659E-2,-3.388385457E-1,3.720462824E-1
1.032660904E1,-7.794773351E-2,-2.811883067E-2,-3.338543791E-1,3.439843953E-1
1.033660704E1,-6.415100891E-2,-2.414452204E-1,-3.560942638E-1,4.349876678E-1
1.034660504E1,-2.097578980E-3,-1.319437094E-1,-4.016890973E-1,4.228092633E-1
1.035660304E1,-9.329758823E-2,1.054703035E-1,-5.195748121E-1,5.383181310E-1
1.036660104E1,-5.870520461E-2,-4.841253819E-2,-6.308590204E-1,6.354314900E-1
1.037659904E1,-9.410311528E-2,2.073459215E-3,-7.391471153E-1,7.451162015E-1
1.038659704E1,-3.988060545E-2,7.453512030E-2,-8.248211038E-1,8.291416044E-1
1.039659504E1,-4.158590935E-2,-1.324622113E-1,-8.741049457E-1,8.850621906E-1
1.040659304E1,-1.130846025E-1,1.887885036E-2,-7.829883689E-1,7.913376802E-1
1.041659104E1,-9.423157129E-2,-3.232629062E-2,-7.379852736E-1,7.446790195E-1
1.042658804E1,-4.940776628E-2,2.535278475E-3,-8.224395329E-1,8.239261740E-1
1.043658604E1,5.863116425E-2,-9.129583050E-2,-8.942977202E-1,9.008556790E-1
1.044658404E1,-1.287699413E-1,-9.920974452E-2,-7.712717181E-1,7.882159186E-1
1.045658204E1,-1.405998452E-1,-8.248668948E-2,-7.584242159E-1,7.757445854E-1
1.046658004E1,1.723112326E-2,1.688579950E-1,-1.042076156E0,1.055809002E0
1.047657804E1,1.438142790E-1,-9.143631442E-3,-1.111639311E0,1.120940725E0
1.048657604E1,-1.474713103E-1,-4.749347010E-2,-8.493782401E-1,8.633926174E-1
1.049657404E1,-3.072821095E-1,1.165039172E-1,-8.411623174E-1,9.030777939E-1
1.050657204E1,1.061935493E-1,-1.307056437E-1,-1.285847161E0,1.296828422E0
1.051657004E1,1.052160410E-1,4.749263870E-2,-1.427105951E0,1.431767216E0
1.052656704E1,-2.238072223E-1,1.092890926E-1,-1.174587511E0,1.200703793E0
1.053656504E1,-2.115844951E-1,1.086720287E-1,-1.243909176E0,1.266446859E0
1.054656304E1,2.092133760E-1,-2.979726935E-2,-1.649656826E0,1.663137323E0
1.055656104E1,1.007221999E-1,7.589098911E-2,-1.597524805E0,1.602494901E0
1.056655904E1,-2.034779884E-1,4.792466571E-2,-1.345319191E0,1.361463841E0
1.057655704E1,-7.924340341E-2,1.216332775E-3,-1.573732485E0,1.575726794E0
1.058655504E1,3.329293495E-1,6.090269332E-2,-2.087388745E0,2.114649584E0
1.059655304E1,4.258410215E-2,1.494884901E-1,-1.841564782E0,1.848112838E0
1.060655104E1,-2.772483249E-1,-1.000720261E-1,-1.564358228E0,1.591884955E0
1.061654904E1,8.280333448E-2,5.155696064E-2,-2.191648108E0,2.193817664E0
1.062654604E1,3.329264990E-1,4.952627746E-2,-2.558742154E0,2.580785601E0
1.063654404E1,-2.460452798E-1,4.636486155E-2,-2.074659941E0,2.089713342E0
1.064654204E1,-3.434838662E-1,-6.092763992E-2,-2.127388963E0,2.155800812E0
1.065654004E1,3.308489102E-1,-4.168708446E-2,-2.991769404E0,3.010296162E0
1.066653804E1,1.670582037E-1,9.717354303E-2,-2.894133182E0,2.900578910E0
1.067653604E1,-4.503151639E-1,-6.213233080E-2,-2.225840287E0,2.271785455E0
1.068653404E1,1.528469481E-2,-1.699229739E-1,-2.719479774E0,2.724826174E0
1.069653204E1,7.227651174E-1,2.816850459E-1,-3.516734179E0,3.601271327E0
1.070653004E1,-1.921069447E-1,-4.329563521E-1,-2.647789401E0,2.689822484E0
1.071652804E1,-1.891802670E-1,-3.646545236E-2,-2.891325349E0,2.897737251E0
1.072652604E1,6.229117041E-1,2.251169621E-1,-3.822095076E0,3.879060120E0
1.073652304E1,5.529127121E-2,-3.774534848E-1,-3.585538366E0,3.605775039E0
1.074652104E1,-4.872395633E-1,-1.035898846E-1,-3.048232457E0,3.088665467E0
1.075651904E1,1.089584783E-2,3.403582370E-1,-3.525222582E0,3.541631927E0
1.076651704E1,-6.976174124E-2,-2.115490281E-1,-3.688905444E0,3.695624855E0
1.077651504E1,3.551474169E-1,4.429884565E-1,-3.321972197E0,3.370143578E0
1.078651304E1,1.419081232E-1,-3.317279660E-1,-3.169016637E0,3.189490210E0
1.079651104E1,5.243007510E-1,-1.652568593E-1,-2.996728427E0,3.046733066E0
1.080650904E1,3.837472815E-2,-2.805529884E-1,-3.035955058E0,3.049131961E0
1.081650704E1,1.280080125E-1,-6.749404939E-2,-3.230590741E0,3.233830242E0
1.082650504E1,-1.963796513E-1,1.241276814E-1,-3.108399721E0,3.117069373E0
1.083650204E1,-7.275387112E-2,1.477169756E-2,-3.025610164E0,3.026520807E0
1.084650004E1,-8.822410539E-2,4.055629690E-2,-2.745419192E0,2.747135753E0
1.085649804E1,4.641081244E-3,3.801609740E-2,-2.564778820E0,2.565064747E0
1.086649604E1,5.354690060E-2,-3.931980265E-2,-2.489813422E0,2.490699539E0
1.087649404E1,1.172950729E-1,2.367908550E-2,-2.333246621E0,2.336313042E0
1.088649204E1,2.377979283E-1,-1.374980709E-1,-2.155234573E0,2.172668782E0
1.089649004E1,1.570729501E-1,-1.368929481E-1,-1.924245581E0,1.935492869E0
1.090648804E1,-7.649755094E-2,1.608458660E-1,-1.846387566E0,1.854958304E0
1.091648604E1,5.542356446E-2,-6.560276178E-3,-1.607458640E0,1.608427209E0
1.092648404E1,-9.502459992E-2,-2.331881662E-1,-1.355089304E0,1.378286406E0
1.093648104E1,-2.514897685E-1,-1.114621258E-2,-1.404388348E0,1.426771872E0
1.094647904E1,-2.143253774E-1,8.786252819E-2,-1.330947320E0,1.350953722E0
1.095647704E1,-6.653144695E-3,-2.617916854E-1,-8.242673725E-1,8.648675345E-1
1.096647504E1,9.337539274E-2,-2.653457875E-1,-5.254840082E-1,5.960375775E-1
1.097647304E1,7.677836347E-2,4.337492345E-1,-8.029846770E-1,9.158699182E-1
1.098647104E1,1.118078995E-2,3.036368822E-1,-8.451080185E-1,8.980690003E-1
1.099646904E1,1.434476220E-1,-1.582849317E-1,-5.882591307E-1,6.258435465E-1
1.100646704E1,-2.379107796E-2,1.702700244E-1,-6.547326171E-1,6.769288711E-1
1.101646504E1,-1.753700208E-1,4.622901519E-1,-7.984530848E-1,9.391454400E-1
1.102646304E1,-2.698076699E-1,3.882550828E-1,-6.212210548E-1,7.806752122E-1
1.103646104E1,-1.128049960E-1,-1.276234302E-1,-9.473951161E-2,1.949058288E-1
1.104645804E1,-3.034936620E-1,-4.537244744E-2,-1.063953513E-1,3.247876731E-1
1.105645604E1,-6.037322520E-1,9.867707231E-2,-2.225596458E-1,6.509705006E-1
1.106645404E1,-5.285225138E-3,3.891232847E-1,5.349208295E-2,3.928183642E-1
1.107645204E1,2.692792643E-2,-2.648591164E-1,3.249484849E-1,4.200797336E-1
1.108645004E1,-2.181576060E-1,-2.667390511E-1,2.382272601E-2,3.454127744E-1
1.109644804E1,-3.755288737E-1,-4.758058904E-2,-3.042721456E-1,4.856618021E-1
1.110644658E1,-2.273683228E-1,-1.746339294E-1,-1.824202645E-1,3.398095296E-1
1.111644458E1,-3.018686476E-1,-7.186703580E-2,5.630868673E-4,3.103060881E-1
1.112644258E1,7.377302619E-1,1.059208954E-1,4.770468432E-1,8.848948333E-1
1.113644058E1,3.769329729E-1,2.008452978E-1,3.100690752E-1,5.277879604E-1
1.114643758E1,-1.370085585E-1,-1.654084849E-1,1.005820495E-1,2.371667360E-1
1.115643558E1,-1.970818288E-1,-2.268279853E-1,1.962530226E-1,3.588975216E-1
1.116643358E1,-3.944701979E-1,8.145030705E-2,-3.535285056E-2,4.043398492E-1
1.117643158E1,-2.599091012E-1,2.340394112E-1,-2.345037532E-1,4.210928605E-1
1.118642958E1,-2.478292653E-1,2.571149772E-2,2.068306357E-1,3.238199155E-1
1.119642758E1,-2.996349382E-1,9.726081273E-2,7.106986570E-1,7.773887978E-1
1.120642558E1,-5.652835932E-2,1.471490739E-1,6.032560694E-1,6.235111793E-1
1.121642358E1,7.580933366E-2,-1.773511122E-1,3.445501059E-1,3.948610484E-1
1.122642158E1,1.244717627E-1,-1.006923152E-1,3.418557090E-1,3.774883942E-1
1.123641958E1,1.939168041E-1,2.239952971E-2,2.598479247E-1,3.250021689E-1
1.124641758E1,-1.912290949E-1,-3.035793237E-1,1.025560695E-1,3.731577681E-1
1.125641458E1,1.674898379E-2,1.435620378E-2,-7.584832728E-2,7.899112479E-2
1.126641258E1,-3.599675691E-1,-6.281245700E-1,2.161838418E-1,7.555478672E-1
1.127641058E1,-2.370150592E-1,5.890866214E-1,2.237232417E-1,6.732393888E-1
1.128640858E1,-4.125436857E-1,1.235318684E-1,3.469275838E-1,5.530019562E-1
1.129640658E1,-3.057806542E-1,2.597857387E-2,3.241766524E-1,4.463935447E-1
1.130640458E1,-1.501738569E-1,2.388103554E-1,3.921300691E-1,4.830616568E-1
1.131640258E1,1.146835237E-1,5.318977094E-1,4.605255353E-1,7.128472856E-1
1.132640058E1,-1.589309759E-1,-1.333707772E-1,6.138003534E-1,6.479179679E-1
1.133639858E1,-4.131310020E-2,-1.591446003E-1,6.823764986E-1,7.019055933E-1
1.134639658E1,1.141628657E-1,1.054067973E-3,6.152235657E-1,6.257270225E-1
1.135639358E1,1.404959841E-1,8.647245317E-2,3.997372967E-1,4.324424968E-1
1.136639158E1,-1.493177880E-1,2.237763783E-1,2.090660262E-1,3.407055511E-1
1.137638958E1,-2.430542097E-1,1.955837356E-1,1.264425302E-1,3.366245088E-1
1.138638758E1,-2.678727897E-1,1.914673872E-1,1.626344562E-1,3.672404636E-1
1.139638558E1,-3.130184473E-1,1.860839105E-1,3.801923937E-1,5.264542016E-1
1.140638358E1,-2.701458947E-1,5.752152717E-3,5.477426040E-1,6.107649728E-1
1.141638158E1,-1.756255075E-1,-5.247060636E-2,4.557395893E-1,4.912189499E-1
1.142637958E1,3.847760260E-3,1.146749538E-1,3.544605517E-1,3.725686957E-1
1.143637758E1,-2.551165771E-2,-1.066191352E-1,2.678819990E-1,2.894464546E-1
1.144637558E1,-3.926880397E-3,-2.791127644E-1,6.532977104E-2,2.866833351E-1
1.145637358E1,2.029521044E-2,-2.382436597E-2,7.381700456E-2,8.017759128E-2
1.146637058E1,-2.170287279E-1,-1.011019401E-1,1.743803430E-1,2.961951638E-1
1.147636858E1,-5.514055923E-2,-1.024755789E-1,3.460276973E-1,3.650710792E-1
1.148636658E1,-4.876433136E-1,-1.757961183E-1,5.176271045E-1,7.325558653E-1
1.149636458E1,-2.737538461E-1,-9.437940535E-2,4.082449955E-1,5.005123542E-1
1.150636258E1,-2.472308028E-1,-7.574192166E-2,1.542173892E-1,3.010696127E-1
1.151636058E1,-3.721804657E-1,7.732228244E-2,-3.099959850E-2,3.813895771E-1
1.152635858E1,-1.701257992E-1,-1.288223606E-2,-1.909086674E-1,2.560368311E-1
1.153635658E1,8.099829901E-2,-1.439659868E-2,3.766542435E-2,9.048022263E-2
1.154635458E1,3.097785417E-1,2.806517333E-1,3.672951901E-1,5.564475689E-1
1.155635258E1,9.721544199E-3,1.590031891E-1,2.543240601E-1,3.000954016E-1
1.156635058E1,1.143395247E-1,-6.151645910E-2,2.925753754E-1,3.200908495E-1
1.157634758E1,-1.293795135E-2,1.213611444E-1,2.890448266E-1,3.137560036E-1
1.158634558E1,-2.332761668E-1,2.222715608E-1,2.097577518E-1,3.844746171E-1
1.159634358E1,-1.220020815E-1,1.240342448E-2,3.422673529E-1,3.635729551E-1
1.160634158E1,-2.355992290E-1,-3.127028073E-1,5.191386098E-1,6.502268363E-1
1.161633958E1,3.767938457E-2,-7.066321378E-1,9.075691456E-1,1.150839028E0
1.162633758E1,-5.335986279E-2,4.196955248E-1,6.426914459E-1,7.694438922E-1
1.163633558E1,-4.772596453E-1,4.345975924E-1,4.339177805E-1,7.777766238E-1
1.164633358E1,-1.714741671E-1,-2.196387606E-1,5.879094672E-1,6.506013501E-1
1.165633158E1,-1.167132019E-1,-4.904035283E-1,5.632084894E-1,7.558580519E-1
1.166632958E1,-2.792291057E-1,4.004666638E-1,2.501912481E-1,5.485782559E-1
1.167632658E1,-1.468411267E-1,8.976796766E-1,1.097539920E-1,9.162079770E-1
1.168632458E1,-3.412969344E-1,1.150757987E-1,4.154399943E-1,5.498330890E-1
1.169632258E1,3.218289223E-2,-1.945305607E-1,6.895697433E-1,7.172059038E-1
1.170632058E1,-4.188478613E-1,9.725079023E-2,4.890143394E-1,6.511729964E-1
1.171631858E1,-1.472979404E-1,3.989495671E-1,5.285999894E-1,6.784359875E-1
1.172631658E1,1.813452539E-1,3.439066564E-1,7.255880070E-1,8.231863977E-1
1.173631458E1,2.697611479E-1,-1.742651345E-1,6.968834406E-1,7.673238846E-1
1.174631258E1,-2.240636227E-1,-1.712450477E-1,4.269952619E-1,5.117170381E-1
1.175631058E1,-5.667585899E-1,-2.196065278E-1,3.073355019E-1,6.811001666E-1
1.176630858E1,-5.040640493E-1,-4.591258946E-1,2.642771906E-1,7.312452300E-1
1.177630658E1,-2.189778973E-1,-9.467498210E-2,2.963614476E-1,3.804533866E-1
1.178630358E1,-2.156204991E-1,-1.047449016E-1,4.702003384E-1,5.277803068E-1
1.179630158E1,2.357001666E-2,4.296949945E-1,5.722213876E-1,7.159822976E-1
1.180629958E1,1.772795752E-1,-1.581542647E-1,6.663516194E-1,7.074357214E-1
1.181629758E1,-1.615341929E-1,-2.919595540E-1,6.411986518E-1,7.228204395E-1
1.182629558E1,9.024884999E-3,-2.022082655E-1,6.368834066E-1,6.682739744E-1
1.183629358E1,9.345937338E-2,2.032951898E-1,4.776455981E-1,5.274551223E-1
1.184629158E1,-1.488600972E-1,1.121749037E-1,2.112201405E-1,2.817028315E-1
1.185628958E1,-7.518123306E-2,2.796221117E-1,-4.056739748E-2,2.923806712E-1
1.186628758E1,-3.893348442E-1,9.519222314E-2,4.034695745E-2,4.028288188E-1
1.187628558E1,-3.083925323E-1,4.054630182E-2,4.135302937E-1,5.174526649E-1
1.188628258E1,-3.678173465E-1,-2.436934246E-2,4.943662959E-1,6.166696845E-1
1.189628058E1,1.446151648E-1,2.082135387E-1,4.863205272E-1,5.484287363E-1
1.190627858E1,1.294716071E-2,9.439510147E-2,5.590838635E-1,5.671444530E-1
1.191627658E1,-3.168770250E-1,-3.262255168E-1,5.815535438E-1,7.382673371E-1
1.192627458E1,1.744570877E-1,2.089376798E-1,3.968218750E-1,4.812045614E-1
1.193627258E1,-2.944776209E-1,-9.664292648E-2,2.914433545E-1,4.254364269E-1
1.194627058E1,2.579188917E-1,1.462484223E-2,2.106465286E-1,3.333286677E-1
1.195626858E1,-2.615598433E-1,-6.730531680E-2,4.437352556E-1,5.194656238E-1
1.196626658E1,1.178977016E-1,4.662741158E-1,6.168128389E-1,7.821569518E-1
1.197626458E1,-3.181994824E-1,-2.847028944E-2,7.322386301E-1,7.988960379E-1
1.198626258E1,-1.497618840E-1,2.950949224E-1,8.311705953E-1,8.946251693E-1
1.199625958E1,-3.177330939E-1,-5.958647594E-2,8.785692948E-1,9.361564361E-1
1.200625758E1,-3.215239169E-1,-9.045424257E-2,8.400273728E-1,9.039942402E-1
1.201625558E1,-2.062731037E-1,-5.837361267E-2,8.269278556E-1,8.542632793E-1
1.202625358E1,-1.119113953E-1,-2.212838381E-1,8.702896374E-1,9.049280361E-1
1.203625158E1,-8.650458544E-2,-1.215039901E-1,9.498854452E-1,9.615241141E-1
1.204624958E1,-2.022178769E-1,-1.147760193E-1,1.006580633E0,1.033087690E0
1.205624758E1,-1.456276102E-1,5.302482990E-3,1.067923188E0,1.077819768E0
1.206624558E1,-2.661890108E-1,4.022738645E-2,1.159475382E0,1.190318442E0
1.207624358E1,-2.618592938E-1,7.450128411E-2,1.199828771E0,1.230329148E0
1.208624158E1,-1.656414234E-1,6.027212822E-3,1.127023335E0,1.139146613E0
1.209623858E1,-1.510424242E-1,6.910741040E-2,1.113785824E0,1.126103241E0
1.210623667E1,-1.907440318E-1,2.313022747E-1,1.205169033E0,1.241900329E0
1.211623467E1,-1.710156358E-1,2.172984490E-1,1.285169469E0,1.314581883E0
1.212623267E1,-1.430794301E-1,7.895300693E-2,1.408142846E0,1.417593586E0
1.213623067E1,-1.980318552E-1,-2.670829724E-2,1.578569886E0,1.591167130E0
1.214622867E1,-1.814290518E-1,-1.086174303E-1,1.650951984E0,1.664438854E0
1.215622667E1,-2.962748357E-1,-7.581302928E-2,1.668391889E0,1.696189226E0
1.216622467E1,-1.554724575E-1,1.089887650E-1,1.770536900E0,1.780688392E0
1.217622267E1,-2.360201189E-1,6.132024391E-2,1.846609175E0,1.862640898E0
1.218622067E1,-3.605604037E-1,4.382025836E-2,1.768497391E0,1.805410491E0
1.219621867E1,-1.540556772E-1,-2.070640858E-1,1.791166461E0,1.809664604E0
1.220621567E1,6.855896898E-2,8.633380107E-2,1.719121163E0,1.722652440E0
1.221621367E1,-2.839031506E-2,1.008544384E-1,1.600264810E0,1.603691083E0
1.222621167E1,-9.265592940E-2,5.940196431E-2,1.572294070E0,1.576141604E0
1.223620967E1,-1.702290757E-1,1.277497392E-1,1.474569554E0,1.489850095E0
1.224620767E1,-3.119621478E-1,1.782672613E-1,1.497017015E0,1.539532248E0
1.225620567E1,-3.762446460E-1,2.070328762E-1,1.468244621E0,1.529759757E0
1.226620367E1,-3.692380371E-1,7.760849451E-2,1.509821248E0,1.556251910E0
1.227620167E1,-2.828496651E-1,-3.427906422E-2,1.540927851E0,1.567047424E0
1.228619967E1,-1.467000626E-1,-1.022040306E-1,1.645443322E0,1.655128484E0
1.229619767E1,1.281501364E-2,-2.910584615E-1,1.781152520E0,1.804822304E0
1.230619567E1,1.490331016E-2,4.444221207E-1,1.723472076E0,1.779912674E0
1.231619267E1,-2.674366239E-1,-7.472840276E-2,1.658313044E0,1.681400854E0
1.232619067E1,-4.733978882E-1,-3.392450003E-1,1.811960914E0,1.903259069E0
1.233618867E1,-5.236906672E-1,-3.010745227E-1,1.789383060E0,1.888594588E0
1.234618667E1,-3.219146571E-1,4.400685398E-1,1.604858968E0,1.694951820E0
1.235618467E1,-9.479239237E-2,1.244981025E-1,1.730983994E0,1.738042279E0
1.236618267E1,-4.030237243E-2,-1.958697376E-1,1.892194068E0,1.902731623E0
1.237618067E1,4.383303087E-2,2.842883177E-1,1.768154159E0,1.791398982E0
1.238617867E1,-9.278449506E-2,1.449071327E-1,1.754900275E0,1.763315632E0
1.239617667E1,-3.711232160E-1,7.840610040E-2,1.740128455E0,1.780990454E0
1.240617467E1,-3.894806226E-1,-7.629785939E-2,1.669504614E0,1.716030937E0
1.241617167E1,-3.337151422E-1,9.349791932E-2,1.566688344E0,1.604562253E0
1.242616967E1,-3.853564353E-1,-9.556840925E-2,1.634458743E0,1.681989383E0
1.243616767E1,-3.267801983E-1,-8.011881382E-2,1.721056007E0,1.753635681E0
1.244616567E1,-1.938546774E-1,-1.833164782E-1,1.564760517E0,1.587343706E0
1.245616367E1,3.616755042E-2,1.317350369E-1,1.579611860E0,1.585508070E0
1.246616167E1,8.364248302E-2,1.127582183E-1,1.673062645E0,1.678942851E0
1.247615967E1,1.800335772E-2,7.522247421E-2,1.447678794E0,1.449743575E0
1.248615767E1,-2.759462961E-1,1.823536976E-1,1.266360145E0,1.308841949E0
1.249615567E1,-6.202401844E-1,-6.953505199E-2,1.248396329E0,1.395717165E0
1.250615367E1,-2.718658532E-1,3.297539825E-1,1.282477410E0,1.351812502E0
1.251615167E1,-7.783802513E-2,9.466873289E-2,1.228399436E0,1.234498320E0
1.252614867E1,7.988107882E-2,1.043283149E-1,1.292604203E0,1.299265566E0
1.253614667E1,1.130886225E-1,1.153872269E-1,1.343650981E0,1.353329674E0
1.254614467E1,5.071980838E-2,-4.237690972E-2,1.121679565E0,1.123625092E0
1.255614267E1,-2.116428941E-1,-7.048701982E-2,9.581908303E-1,9.838144144E-1
1.256614067E1,-3.958038747E-1,7.549402256E-2,9.381763959E-1,1.021046034E0
1.257613867E1,-4.038798663E-1,2.115832800E-2,8.881856257E-1,9.759304928E-1
1.258613667E1,-3.106126836E-1,-4.160007058E-2,8.402828962E-1,8.968200213E-1
1.259613467E1,-2.617112496E-1,3.890600982E-1,9.691414958E-1,1.076613105E0
1.260613267E1,-2.761819755E-1,-1.731834910E-1,1.113882303E0,1.160604493E0
1.261613067E1,-1.923279694E-1,-3.026470217E-1,1.046852161E0,1.106564375E0
1.262612767E1,-9.444623720E-2,2.498461162E-1,9.521366233E-1,9.888919672E-1
1.263612567E1,-1.470660618E-1,-1.709423629E-1,8.610317409E-1,8.900704336E-1
1.264612367E1,-1.727261291E-1,-1.139375743E-1,8.527070600E-1,8.774539399E-1
1.265612167E1,-1.629763355E-1,-2.578659379E-1,8.822641504E-1,9.335128060E-1
1.266611967E1,-9.137305029E-2,-1.271566945E-1,8.347531843E-1,8.493119203E-1
1.267611767E1,-1.307184162E-1,9.107898902E-3,7.787216556E-1,7.896693454E-1
1.268611567E1,-1.843700916E-1,4.915693900E-2,7.289793921E-1,7.535381141E-1
1.269611367E1,-1.522198707E-1,1.117564441E-1,5.258009273E-1,5.586832796E-1
1.270611167E1,-2.836576407E-1,5.906436527E-2,4.300749904E-1,5.185699121E-1
1.271610967E1,-2.907261204E-1,8.821680550E-3,4.118749470E-1,5.042226404E-1
1.272610767E1,-1.772446015E-1,6.539766270E-2,3.225803626E-1,3.738323065E-1
1.273610467E1,-4.761296343E-2,2.486830319E-1,2.927414364E-1,3.870501172E-1
1.274610267E1,1.212288603E-2,2.646017476E-1,3.653211701E-1,4.512434005E-1
1.275610067E1,3.495169502E-2,1.287228072E-1,4.059072787E-1,4.272609284E-1
1.276609867E1,-1.848999225E-2,-1.155758727E-1,4.674784595E-1,4.819084687E-1
1.277609667E1,-7.728129711E-2,-1.278614941E-1,4.994065958E-1,5.212752713E-1
1.278609467E1,-5.447415937E-2,1.122287529E-1,3.909214497E-1,4.103441322E-1
1.279609267E1,-1.349128067E-1,1.472849669E-1,1.222646946E-1,2.341857862E-1
1.280609067E1,-3.330516660E-1,-9.520128633E-2,2.213364083E-1,4.110675161E-1
1.281608867E1,-3.998082307E-1,2.938646865E-1,1.706217527E-3,4.961914817E-1
1.282608667E1,-3.149310350E-1,-1.664170931E-1,6.558061659E-2,3.621836868E-1
1.283608367E1,-2.303547517E-1,1.104749080E-1,5.011999369E-2,2.603459826E-1
1.284608167E1,-4.691155337E-2,3.963164197E-1,-1.635758579E-2,3.994182883E-1
1.285607967E1,6.851175271E-2,-5.689586596E-2,-1.116841578E-1,1.428437991E-1
1.286607767E1,1.363833815E-2,-2.257797440E-1,-1.273500180E-1,2.595775879E-1
1.287607567E1,-8.782463092E-2,-1.302231388E-1,-1.209940946E-1,1.982695201E-1
1.288607367E1,-7.573902089E-2,-1.366135060E-1,-2.247798336E-1,2.737254516E-1
1.289607167E1,-8.394295681E-2,9.075053195E-2,-3.773605871E-1,3.970933036E-1
1.290606967E1,-1.568200215E-1,1.106058582E-1,-3.826540715E-1,4.280774619E-1
1.291606767E1,-2.467074404E-1,-1.143522058E-1,-3.740422922E-1,4.624376980E-1
1.292606567E1,-2.354958064E-1,-5.896384341E-2,-3.872944218E-1,4.570907774E-1
1.293606367E1,-2.056109065E-1,3.591853669E-2,-4.364928943E-1,4.838305829E-1
1.294606167E1,-1.786056872E-1,-3.379788862E-2,-5.301629502E-1,5.604596707E-1
1.295605867E1,-1.388642455E-1,8.683543735E-2,-6.490982401E-1,6.694417056E-1
1.296605667E1,-9.666872732E-3,-8.134915936E-3,-7.070856625E-1,7.071985290E-1
1.297605467E1,-8.075370267E-4,-5.344998757E-2,-7.035311401E-1,7.055590821E-1
1.298605267E1,-3.159104437E-3,-3.147568291E-2,-7.957557642E-1,7.963842884E-1
1.299605067E1,5.485320512E-2,-1.733312611E-1,-8.819887465E-1,9.005313705E-1
1.300604867E1,-2.127556924E-2,5.288573583E-2,-9.043099076E-1,9.061048283E-1
1.301604667E1,-1.762179036E-1,-5.886920988E-2,-9.717224568E-1,9.893244496E-1
1.302604467E1,-1.032695029E-1,2.612329931E-2,-1.137504469E0,1.142481262E0
1.303604267E1,-3.390994046E-2,8.224096024E-2,-1.279649697E0,1.282738012E0
1.304604067E1,-5.293981344E-2,1.145042151E-1,-1.317478843E0,1.323504568E0
1.305603767E1,7.456716578E-2,1.365077993E-1,-1.339293635E0,1.348295993E0
1.306603567E1,1.834770756E-1,4.057829248E-2,-1.339976590E0,1.353088208E0
1.307603367E1,7.361059785E-2,-7.050040903E-2,-1.360299758E0,1.364112993E0
1.308603167E1,-9.455455687E-2,-3.076986231E-2,-1.396076531E0,1.399613172E0
1.309602967E1,-1.179652734E-1,6.175286477E-2,-1.514522994E0,1.520364799E0
1.310602767E1,-9.111284919E-2,5.164008703E-2,-1.584636957E0,1.588093995E0
1.311602529E1,-1.137840392E-1,1.115806621E-1,-1.495372778E0,1.503840682E0
1.312602329E1,-1.128464381E-1,1.549926569E-1,-1.463593161E0,1.476096875E0
1.313602129E1,-2.974295877E-3,3.538562237E-2,-1.467120202E0,1.467549888E0
1.314601929E1,-2.336353686E-2,-1.612504248E-2,-1.433226231E0,1.433507343E0
1.315601629E1,-7.586448021E-2,-6.000545179E-2,-1.426284417E0,1.429560531E0
1.316601429E1,-7.658408973E-2,-9.395625880E-2,-1.602847525E0,1.607424366E0
1.317601229E1,-6.773414612E-2,-1.354289880E-1,-1.728085529E0,1.734707042E0
1.318601029E1,-1.375577217E-1,-4.396900604E-2,-1.798391281E0,1.804180312E0
1.319600829E1,-1.148298868E-1,5.944897273E-3,-1.918403628E0,1.921846436E0
1.320600629E1,-4.711353812E-2,2.177508248E-3,-2.013863516E0,2.014415719E0
1.321600429E1,1.360468011E-2,7.840940773E-2,-2.086262571E0,2.087779835E0
1.322600229E1,-8.899772856E-2,-2.956129766E-2,-2.006445739E0,2.008636097E0
1.323600029E1,-9.465666387E-2,-1.480183813E-2,-2.067930965E0,2.070149139E0
1.324599829E1,8.550789099E-2,-3.977193860E-2,-2.344783178E0,2.346678836E0
1.325599629E1,5.578393567E-2,-5.878071135E-2,-2.441560444E0,2.442904915E0
1.326599329E1,-7.201280963E-2,-1.021241887E-1,-2.418300220E0,2.421526616E0
1.327599129E1,1.717311157E-1,1.313606415E-1,-2.838667079E0,2.846889175E0
1.328598929E1,2.137297654E-1,-1.718973023E-2,-2.878068541E0,2.886044772E0
1.329598729E1,-4.099640038E-2,-3.915713129E-2,-2.598497373E0,2.599115731E0
1.330598529E1,1.064066072E-1,3.392562059E-2,-2.761970905E0,2.764228029E0
1.331598329E1,2.511649922E-1,4.313826288E-2,-3.073747952E0,3.084294285E0
1.332598129E1,8.244574070E-3,-4.645296721E-2,-2.931692187E0,2.932071781E0
1.333597929E1,-3.112863924E-2,7.666878300E-2,-3.083321013E0,3.084431158E0
1.334597729E1,2.183809697E-1,1.375325878E-1,-3.576359991E0,3.585659807E0
1.335597529E1,-1.912763111E-2,4.209852744E-2,-3.306374164E0,3.306697486E0
1.336597229E1,-4.800418236E-1,1.365315536E-1,-3.247213790E0,3.285342968E0
1.337597029E1,-1.584544644E-1,-3.700134282E-2,-3.223550109E0,3.227654291E0
1.338596829E1,-1.436057526E-1,-1.212031874E-1,-3.243745222E0,3.249183881E0
1.339596629E1,-1.411311013E-1,-1.034247739E-1,-2.977289359E0,2.982426294E0
1.340596429E1,5.029482543E-1,1.033453340E-1,-2.879615130E0,2.925033419E0
1.341596229E1,2.482499359E-1,-2.320725175E-1,-2.895538267E0,2.915412071E0
1.342596029E1,-2.386058673E-2,-1.641538917E-1,-2.865651979E0,2.870448936E0
1.343595829E1,2.207611153E-1,4.761030934E-2,-2.824664167E0,2.833677798E0
1.344595629E1,5.605499066E-2,-2.920487789E-3,-2.718259460E0,2.718838940E0
1.345595429E1,6.438555535E-2,-5.534539450E-2,-2.618584898E0,2.619960969E0
1.346595229E1,6.855951715E-2,1.286068359E-2,-2.488372668E0,2.489350184E0
1.347594929E1,-2.068576790E-2,1.946037651E-2,-2.403976881E0,2.404144640E0
1.348594729E1,-1.740835237E-1,-4.349457302E-2,-2.340138150E0,2.347007331E0
1.349594529E1,-4.005904055E-1,-2.513429760E-2,-2.284896580E0,2.319882925E0
1.350594329E1,-2.922016653E-1,1.866057791E-3,-2.109657866E0,2.129798490E0
1.351594129E1,-2.395987976E-1,-2.502949539E-2,-1.829216632E0,1.845011530E0
1.352593929E1,-1.153263519E-1,-1.348634252E-2,-1.444535331E0,1.449194387E0
1.353593729E1,6.505733465E-1,-1.797104455E-1,-1.104018050E0,1.293985076E0
1.354593529E1,3.295977157E-1,-2.436041769E-1,-1.125414766E0,1.197721188E0
1.355593329E1,5.442639492E-2,6.103515925E-1,-1.246718763E0,1.389172046E0
1.356593129E1,-4.910616324E-1,7.552096543E-2,-1.276713810E0,1.369979232E0
1.357592929E1,-1.591950143E-1,-4.639559871E-1,-1.185546947E0,1.283011993E0
1.358592629E1,-1.421129219E-2,-2.926847001E-1,-9.102518481E-1,9.562555733E-1
1.359592429E1,4.531471532E-2,9.388226594E-1,-9.229882532E-1,1.317326355E0
1.360592229E1,-4.205942418E-1,-2.449540249E-2,-7.334899342E-1,8.458764831E-1
1.361592029E1,-2.208071256E-1,6.336715311E-2,-7.900237387E-1,8.227446084E-1
1.362591829E1,1.832671240E-1,-2.859984181E-2,-2.719148237E-1,3.291541600E-1
1.363591629E1,-2.098229483E-1,-1.563537426E-1,-1.175535929E-1,2.868640961E-1
1.364591429E1,-7.151099427E-1,-2.458357485E-1,-3.950624478E-1,8.531657418E-1
1.365591229E1,2.524805792E-1,3.867774548E-1,-4.509869725E-1,6.455482102E-1
1.366591029E1,1.329561822E-2,-3.082837102E-3,-2.259557086E-1,2.263675321E-1
1.367590829E1,-4.237398611E-1,-2.930877194E-1,-2.877531767E-2,5.160270343E-1
1.368590529E1,2.755529978E-1,2.793526281E-1,-2.795571345E-1,4.817878546E-1
1.369590329E1,4.909198008E-2,-7.133852516E-2,-5.066232294E-1,5.139711123E-1
1.370590129E1,-1.639208436E-2,4.405390488E-2,-2.699712092E-1,2.740326636E-1
1.371589929E1,-3.073487678E-1,-1.273771619E-1,1.262472332E-1,3.558462734E-1
1.372589729E1,6.202496130E-2,1.806967063E-1,-1.688827908E-1,2.549897891E-1
1.373589529E1,4.436801456E-2,-1.724493274E-2,-2.953147960E-1,2.991266239E-1
1.374589329E1,-4.633855547E-1,-1.287458672E-1,2.359047461E-1,5.356796802E-1
1.375589129E1,-4.633533219E-1,1.602534882E-1,1.952981722E-1,5.277488584E-1
1.376588929E1,-1.022057847E-1,-9.802622239E-2,-2.041029096E-2,1.430794978E-1
1.377588729E1,-1.069609232E-2,5.742965279E-2,1.036921835E-1,1.190152945E-1
1.378588529E1,-4.540046839E-1,-1.589405508E-1,5.717015702E-1,7.471445891E-1
1.379588229E1,-4.184694733E-1,-2.802103599E-2,3.250911570E-1,5.306469060E-1
1.380588029E1,1.558350580E-1,-2.483246706E-2,-4.917566836E-1,5.164550828E-1
1.381587829E1,1.332102437E-1,3.496839978E-1,-4.760832220E-1,6.055403386E-1
1.382587629E1,-4.874655582E-1,-9.115149563E-2,1.065777844E-1,5.072377053E-1
1.383587429E1,-1.398434713E-1,-9.020896101E-2,1.719385457E-1,2.392837575E-1
1.384587229E1,1.143284149E-2,2.722816451E-1,1.299952984E-1,3.019383740E-1
1.385587029E1,6.429017264E-2,6.889827194E-2,5.825405538E-2,1.107868816E-1
1.386586829E1,-1.020341690E-1,1.003780456E-1,9.875420988E-2,1.738939839E-1
1.387586629E1,-2.875969464E-1,2.616952657E-2,2.615219826E-1,3.896031251E-1
1.388586429E1,-1.825938537E-1,-6.052945367E-2,3.166501164E-1,3.705018575E-1
1.389586229E1,4.569942556E-2,7.428278097E-2,2.144823021E-1,2.315362325E-1
1.390585929E1,5.290831156E-2,8.940428364E-2,5.692790687E-2,1.184618164E-1
1.391585729E1,-1.155847989E-1,1.648508798E-1,-3.090195000E-2,2.036923877E-1
1.392585529E1,-1.589688001E-1,1.754293334E-1,1.213145220E-1,2.660145554E-1
1.393585329E1,-3.119764735E-1,3.084645627E-2,1.646710414E-1,3.541149189E-1
1.394585129E1,-2.258393125E-1,2.954899795E-2,1.015942025E-1,2.493951089E-1
1.395584929E1,-1.143213617E-1,9.025405766E-2,1.453997880E-1,2.058063824E-1
1.396584729E1,-6.457734402E-2,3.451176513E-2,2.647864830E-1,2.747238193E-1
1.397584529E1,-1.713168770E-1,-9.932903686E-2,3.885194135E-1,4.360769021E-1
1.398584329E1,-6.953614835E-2,-1.019630979E-1,4.610523695E-1,4.772850685E-1
1.399584129E1,-8.522919808E-2,-3.053638482E-2,5.428683650E-1,5.503658318E-1
1.400583829E1,-3.068665187E-1,-2.391553594E-1,5.094199526E-1,6.409922264E-1
1.401583629E1,-2.292662925E-1,-1.553553853E-1,3.281983674E-1,4.294327618E-1
1.402583429E1,-2.646675288E-1,-4.378909453E-2,9.650829434E-2,2.850968896E-1
1.403583229E1,-2.234353760E-1,-1.158828059E-1,-1.709608912E-2,2.522785528E-1
1.404583029E1,-2.443998368E-1,-3.799028514E-3,1.891574264E-3,2.444366807E-1
1.405582829E1,-2.258738841E-1,-4.175706375E-2,5.801431954E-2,2.369141726E-1
1.406582629E1,-2.851968471E-2,-5.236955002E-2,2.422758722E-1,2.495065940E-1
1.407582429E1,-8.928263415E-2,9.593615343E-2,3.909214497E-1,4.123041524E-1
1.408582229E1,7.995672718E-2,1.197294515E-1,4.930594432E-1,5.136495248E-1
1.409582029E1,7.507960115E-2,1.665194741E-1,5.640668607E-1,5.929056460E-1
1.410581829E1,-5.687001944E-3,1.817290870E-1,5.629360092E-1,5.915697368E-1
1.411581508E1,-2.588797354E-1,7.029173195E-2,5.653702050E-1,6.257820018E-1
1.412581308E1,-3.987620908E-1,1.259525426E-2,5.108776635E-1,6.482019998E-1
1.413581108E1,-3.734018394E-1,3.043234093E-2,3.250701070E-1,4.960097131E-1
1.414580908E1,-3.276174830E-1,-2.144897390E-1,1.800234908E-1,4.309843623E-1
1.415580708E1,1.892329651E-1,-6.534647946E-1,4.878536671E-1,8.371538409E-1
1.416580508E1,1.274406133E-1,2.875503514E-1,2.674136370E-1,4.128393971E-1
1.417580308E1,-2.685575351E-1,6.660148928E-1,1.357431114E-2,7.182501299E-1
1.418580108E1,-2.382433765E-1,3.688356939E-2,2.965725321E-1,3.821983398E-1
1.419579908E1,-1.354018167E-1,-7.079153093E-1,7.887028527E-1,1.068424039E0
1.420579708E1,-4.406063740E-1,3.586353906E-1,5.460182601E-1,7.879652661E-1
1.421579408E1,-1.924977579E-1,8.068372612E-1,5.236982685E-1,9.809697392E-1
1.422579208E1,5.829136793E-2,4.770787105E-1,4.900644994E-1,6.864147384E-1
1.423579008E1,-1.649901532E-1,-1.024861222E-1,4.435522377E-1,4.842145635E-1
1.424578808E1,-4.588090121E-1,-1.237075864E-1,2.506110781E-1,5.372291774E-1
1.425578608E1,-3.476496784E-1,4.217173823E-1,4.495573282E-2,5.483856922E-1
1.426578408E1,1.028963774E-1,3.068866550E-1,3.637289733E-1,4.868940845E-1
1.427578208E1,1.722858703E-1,-3.796866461E-1,6.751955330E-1,7.935574196E-1
1.428578008E1,-2.997637962E-1,-1.209877723E-1,5.466941983E-1,6.351148880E-1
1.429577808E1,-5.210794103E-1,-1.260170904E-1,4.898721260E-1,7.262084816E-1
1.430577608E1,-2.597115384E-1,-5.793628479E-1,4.748249012E-1,7.928241164E-1
1.431577408E1,-6.646994155E-2,-1.696976369E-1,5.534880781E-1,5.827217121E-1
1.432577108E1,-1.987716011E-1,7.466585582E-2,5.641843897E-1,6.028176880E-1
1.433576908E1,-1.388359230E-2,7.320417982E-2,4.732824057E-1,4.791115128E-1
1.434576708E1,1.021320002E-1,5.480745980E-3,3.801578951E-1,3.936762747E-1
1.435576508E1,-3.801299015E-1,-1.430566077E-1,4.769462711E-1,6.264516586E-1
1.436576308E1,-3.998320947E-1,-4.980880761E-2,4.627913314E-1,6.136142418E-1
1.437576108E1,7.198032103E-3,3.426020329E-1,1.810181022E-1,3.875506650E-1
1.438575908E1,7.168171104E-2,3.023288418E-1,1.993812829E-1,3.691800269E-1
1.439575708E1,-2.744949806E-1,-1.385612500E-1,5.723272222E-1,6.496962088E-1
1.440575508E1,-2.657202468E-1,-3.365886102E-1,7.014507008E-1,8.221509762E-1
1.441575308E1,-8.100114953E-2,-8.939234253E-2,6.653382969E-1,6.761857928E-1
1.442575108E1,8.310972858E-2,3.883738909E-1,6.414921820E-1,7.544890494E-1
1.443574808E1,-1.888177031E-1,5.576401860E-2,4.981897902E-1,5.356816386E-1
1.444574608E1,-2.044630250E-1,1.271404228E-1,3.755035114E-1,4.460635636E-1
1.445574408E1,-4.272881709E-1,-2.679303665E-1,4.481177437E-1,6.746638974E-1
1.446574208E1,-2.649906605E-1,-2.390612375E-1,3.401997775E-1,4.930580230E-1
1.447574008E1,-1.609021820E-1,-1.366956137E-1,4.228238583E-1,4.726047165E-1
1.448573808E1,-1.418017039E-1,4.698250568E-1,6.953678423E-1,8.511050131E-1
1.449573608E1,-3.296313737E-1,1.785592018E-1,9.677533668E-1,1.037827929E0
1.450573408E1,3.283087336E-2,-2.218314847E-1,8.625245351E-1,8.911989943E-1
1.451573208E1,3.795979511E-2,8.117281213E-3,7.941431022E-1,7.950912545E-1
1.452573008E1,-4.688407145E-3,3.630817230E-1,7.268089056E-1,8.124663095E-1
1.453572708E1,-8.829913247E-2,1.041463203E-1,4.968899542E-1,5.153084702E-1
1.454572508E1,-4.407918038E-1,-1.135671349E-2,4.066106987E-1,5.997988409E-1
1.455572308E1,-6.226012900E-2,4.901424866E-1,5.516099524E-1,7.405332676E-1
1.456572108E1,-4.883796607E-1,-6.005417554E-2,7.420800787E-1,8.903954404E-1
1.457571908E1,-2.229760772E-1,6.542646937E-2,8.027806091E-1,8.357365974E-1
1.458571708E1,-6.022255708E-2,-6.217705743E-2,8.475030380E-1,8.519120508E-1
1.459571508E1,3.641097732E-3,2.346937329E-1,8.292024225E-1,8.617836523E-1
1.460571308E1,-2.601031557E-1,-2.765214063E-1,8.172097832E-1,9.010824432E-1
1.461571108E1,9.470684029E-2,4.025360756E-2,7.066032672E-1,7.140573617E-1
1.462570908E1,-1.960413168E-1,2.788985736E-2,7.989460051E-1,8.231189228E-1
1.463570708E1,-4.547412138E-1,-2.131992220E-1,7.722751004E-1,9.212232685E-1
1.464570408E1,-1.110343860E-1,1.713901682E-1,5.777873522E-1,6.128143675E-1
1.465570208E1,-5.105102756E-1,-1.464239553E-1,6.475978446E-1,8.375223487E-1
1.466570008E1,-3.310739549E-1,5.053145037E-2,6.573621100E-1,7.377589951E-1
1.467569808E1,-1.109548273E-1,5.399786254E-2,7.268872583E-1,7.372868025E-1
1.468569608E1,-1.032715494E-1,-2.899887088E-2,9.770978022E-1,9.829679865E-1
1.469569408E1,-2.000685135E-1,-1.355722356E-1,1.224309309E0,1.247934504E0
1.470569208E1,-1.572623999E-1,-4.537301389E-2,1.271990429E0,1.282478002E0
1.471569008E1,-1.822981308E-1,1.580593936E-1,1.164587018E0,1.189318419E0
1.472568808E1,-3.454136300E-1,8.184823749E-2,1.184531870E0,1.236578126E0
1.473568608E1,-4.019249593E-1,1.089799371E-3,1.176165090E0,1.242943755E0
1.474568308E1,-2.471600149E-1,-1.354167819E-1,1.189657540E0,1.222583674E0
1.475568108E1,-2.095558402E-1,-9.676190590E-3,1.336813247E0,1.353172914E0
1.476567908E1,-1.310263452E-1,5.405528859E-2,1.482042881E0,1.488805218E0
1.477567708E1,-2.593751773E-3,1.936426428E-1,1.414002340E0,1.427202445E0
1.478567508E1,-8.155813336E-2,1.172627670E-1,1.287313643E0,1.295213766E0
1.479567308E1,-8.523526456E-2,-6.610639092E-2,1.389957420E0,1.394136555E0
1.480567108E1,-9.653007522E-2,8.555959317E-2,1.293256168E0,1.299673042E0
1.481566908E1,-1.340703326E-1,2.313631314E-2,1.321270178E0,1.328256386E0
1.482566708E1,-2.342369009E-1,1.810709281E-1,1.335050896E0,1.367484735E0
1.483566508E1,-3.388682203E-1,1.002665283E-1,1.224746681E0,1.274711528E0
1.484566308E1,-3.429738428E-1,3.122548375E-2,1.270864840E0,1.316701762E0
1.485566008E1,-3.529021957E-1,-7.503266810E-2,1.298710451E0,1.347894171E0
1.486565808E1,-3.749305574E-1,1.676054300E-1,1.140199451E0,1.211907295E0
1.487565608E1,-2.210170041E-1,2.506870006E-1,1.218215341E0,1.263226466E0
1.488565408E1,-1.258766659E-1,8.507311396E-2,1.235492109E0,1.244798426E0
1.489565208E1,-9.921211995E-2,-3.317346994E-3,1.230652369E0,1.234649465E0
1.490565008E1,-6.693929024E-2,4.519679342E-2,1.319849305E0,1.322318345E0
1.491564808E1,-1.312836958E-1,-4.522297342E-2,1.376607642E0,1.383592833E0
1.492564608E1,-1.389857579E-1,-1.645825474E-1,1.488036277E0,1.503547943E0
1.493564408E1,-1.251639268E-1,-4.038254780E-2,1.467914253E0,1.473794088E0
1.494564208E1,-2.613914800E-1,6.761898338E-3,1.487298943E0,1.510109060E0
1.495563908E1,-4.048578862E-1,7.338682765E-2,1.414757801E0,1.473375434E0
1.496563708E1,-4.607612878E-1,-4.071084155E-2,1.363306981E0,1.439640323E0
1.497563508E1,-3.999502084E-1,-7.223546520E-2,1.406141928E0,1.463698485E0
1.498563308E1,-4.115548484E-1,3.609332733E-2,1.405689354E0,1.465142546E0
1.499563108E1,-3.826758889E-1,2.387840475E-2,1.424256603E0,1.474963689E0
1.500562908E1,-1.902179286E-1,-1.797986653E-1,1.494603285E0,1.517349465E0
1.501562708E1,-2.351588972E-1,-1.203890997E-1,1.590244437E0,1.612039271E0
1.502562508E1,-1.417109624E-1,-9.012634168E-2,1.532949325E0,1.542121392E0
1.503562308E1,5.424249999E-2,-1.165736361E-1,1.547118298E0,1.552451831E0
1.504562108E1,5.225203469E-2,1.006908991E-1,1.522678691E0,1.526898597E0
1.505561908E1,-1.004798329E-1,1.422503589E-1,1.330199461E0,1.341552074E0
1.506561608E1,-9.737871087E-1,1.503330565E-1,9.904142511E-1,1.397061827E0
1.507561408E1,-3.096398531E-1,5.708826311E-1,1.032147583E0,1.219472202E0
1.508561208E1,1.183598509E-1,3.105038523E-1,1.196036852E0,1.241340343E0
1.509561008E1,8.685421240E-2,-8.565878570E-2,1.241870252E0,1.247847268E0
1.510560808E1,2.519487749E-1,1.736547400E-1,1.219728600E0,1.257526148E0
1.511560596E1,-2.717213539E-1,1.987813951E-1,9.065078759E-1,9.670072732E-1
1.512560396E1,-3.411005045E-1,1.627109450E-1,9.340897769E-1,1.007644837E0
1.513560196E1,-5.070310727E-2,1.615729010E-2,1.260442763E0,1.261565623E0
1.514559996E1,-2.197473909E-1,-5.225660283E-2,1.294590502E0,1.314147723E0
1.515559796E1,-2.885373614E-1,-9.417372040E-2,1.195951483E0,1.233864842E0
1.516559596E1,-3.438729984E-1,1.399537370E-1,1.118244326E0,1.178264002E0
1.517559296E1,-3.838043649E-1,1.714024474E-2,1.079132885E0,1.145481279E0
1.518559096E1,-4.003253439E-1,-6.253845647E-2,1.116335794E0,1.187592963E0
1.519558896E1,-3.791273964E-1,-2.408196232E-1,1.161775677E0,1.245573922E0
1.520558696E1,-3.002396134E-1,-2.901848510E-1,1.144364423E0,1.218162963E0
1.521558496E1,-2.136417648E-1,-1.374041409E-1,1.217831764E0,1.244040556E0
1.522558296E1,-1.405768949E-1,-5.605147320E-2,1.279647943E0,1.288566059E0
1.523558096E1,-2.730258677E-2,-1.984695741E-2,1.090793987E0,1.091316111E0
1.524557896E1,7.591293901E-2,-6.792154253E-3,9.413502645E-1,9.444306371E-1
1.525557696E1,-2.087100770E-1,-6.982725746E-2,1.013296160E0,1.036920850E0
1.526557496E1,-3.659640349E-1,-9.764065334E-2,9.506473374E-1,1.023324842E0
1.527557196E1,-3.782215165E-1,3.141541959E-1,6.269168276E-1,7.967239692E-1
1.528556996E1,-3.225482029E-1,1.197815283E-1,7.139005923E-1,7.924891251E-1
1.529556796E1,-3.668585493E-1,7.443616531E-2,6.127262199E-1,7.180246224E-1
1.530556596E1,-2.206108053E-1,1.679932100E-1,6.679999495E-1,7.232667409E-1
1.531556396E1,-1.045840301E-2,1.534608143E-1,7.510157937E-1,7.666057149E-1
1.532556196E1,1.860412990E-1,2.566777471E-1,5.739591801E-1,6.556858785E-1
1.533555996E1,1.420652671E-1,2.847099202E-1,4.559255308E-1,5.559769495E-1
1.534555796E1,-1.316563462E-1,-1.997347882E-2,5.714092094E-1,5.867203916E-1
1.535555596E1,-3.576891284E-1,-5.913410519E-1,4.394714659E-1,8.189999522E-1
1.536555396E1,-1.875022258E-1,-2.054354124E-2,2.742963946E-1,3.328928264E-1
1.537555196E1,-1.032023695E-1,4.973430769E-1,2.964912558E-1,5.881393797E-1
1.538554896E1,-4.741385843E-1,-3.459820890E-1,8.454723001E-2,5.930086316E-1
1.539554696E1,-3.548638269E-1,1.429591922E-2,3.392086744E-2,3.567678996E-1
1.540554496E1,-4.604506544E-1,1.365439515E-1,-8.587981045E-2,4.878876896E-1
1.541554296E1,-2.847956916E-1,-7.229264915E-2,-1.255508298E-1,3.195275010E-1
1.542554096E1,5.990951177E-2,1.154309349E-2,8.077168286E-2,1.012247863E-1
1.543553896E1,1.267082861E-1,4.496501528E-1,1.506277835E-1,4.908451679E-1
1.544553696E1,1.571443227E-1,1.595395797E-1,1.132114506E-1,2.509263800E-1
1.545553496E1,9.816371419E-2,1.646760366E-2,2.972665966E-2,1.038795988E-1
1.546553296E1,-2.234211599E-1,-2.806621715E-2,2.317602396E-2,2.263666392E-1
1.547553096E1,-3.507358754E-1,-6.322671487E-2,-4.594332755E-2,3.593383657E-1
1.548552796E1,-2.547472158E-1,-2.607554674E-1,-1.111777890E-1,3.811168567E-1
1.549552596E1,-3.422137047E-1,-1.002164615E-1,1.842516124E-2,3.570616829E-1
1.550552396E1,-3.358851171E-1,-1.636479796E-1,1.023151642E-1,3.873859392E-1
1.551552196E1,-3.431391362E-1,-9.290850171E-2,1.168273687E-3,3.554965842E-1
1.552551996E1,-3.260260902E-1,-1.082399217E-2,-5.058718622E-2,3.301048829E-1
1.553551796E1,-1.994328481E-1,2.272723645E-2,-6.655183911E-2,2.114689941E-1
1.554551596E1,1.492761265E-2,1.112178059E-1,-1.578999656E-1,1.937127593E-1
1.555551396E1,4.919953231E-2,2.624842515E-1,-1.854368430E-1,3.251236673E-1
1.556551196E1,6.668833505E-2,-1.886364943E-1,-2.148688030E-1,2.935977921E-1
1.557550996E1,7.266557816E-2,2.464882064E-1,-3.508574975E-1,4.348996501E-1
1.558550796E1,2.017629270E-2,1.319154692E-1,-4.948410898E-1,5.125197343E-1
1.559550496E1,-6.873102330E-1,1.562905195E-1,-7.276269311E-1,1.013046412E0
1.560550296E1,-6.574941840E-1,-3.944751315E-1,-5.980239809E-1,9.723897948E-1
1.561550096E1,4.153540768E-1,-9.722514471E-2,-3.857256138E-1,5.751138905E-1
1.562549896E1,5.290609693E-1,-5.328835317E-2,-3.160022449E-1,6.185487666E-1
1.563549696E1,3.724086533E-1,2.071982976E-1,-5.209904230E-1,6.730901577E-1
1.564549496E1,-6.793803853E-1,2.200191402E-1,-9.005244201E-1,1.149308645E0
1.565549296E1,-4.163508078E-1,4.332437427E-1,-9.848903865E-1,1.153714527E0
1.566549096E1,7.261803299E-2,-2.066591478E-1,-7.670096827E-1,7.976748933E-1
1.567548896E1,9.513836481E-2,-4.538331960E-2,-7.726002055E-1,7.797576750E-1
1.568548696E1,9.070401918E-2,-1.330385183E-1,-7.974672443E-1,8.135603678E-1
1.569548396E1,-2.055840824E-2,-8.020712505E-2,-8.368646139E-1,8.409507792E-1
1.570548196E1,-1.521250727E-1,-1.043174701E-1,-8.604142749E-1,8.799641452E-1
1.571547996E1,-2.840121281E-1,3.144176861E-1,-9.000215596E-1,9.947663937E-1
1.572547796E1,-3.499046937E-1,9.318538564E-2,-8.329335308E-1,9.082373465E-1
1.573547596E1,-3.187053031E-1,-8.768325621E-2,-8.872635198E-1,9.468357710E-1
1.574547396E1,-2.454077140E-1,1.573890012E-2,-9.061207902E-1,9.388969835E-1
1.575547196E1,-1.668331955E-1,-8.018471377E-2,-9.362076384E-1,9.543309937E-1
1.576546996E1,-2.060293479E-1,-4.547578784E-2,-8.908472782E-1,9.154916781E-1
1.577546796E1,-5.237829801E-2,-1.259899374E-1,-9.410970801E-1,9.509367301E-1
1.578546596E1,8.864854015E-2,3.400168921E-2,-1.063448313E0,1.067678320E0
1.579546396E1,7.813721985E-2,-4.683212717E-2,-1.043278928E0,1.047248583E0
1.580546096E1,-1.380347814E-1,-1.003197105E-1,-9.819445592E-1,9.966608062E-1
1.581545896E1,8.249558821E-2,-1.185681671E-1,-1.314975650E0,1.322885064E0
1.582545696E1,1.329828236E-1,8.447641474E-2,-1.580496544E0,1.588329317E0
1.583545496E1,-2.803588974E-1,-4.929493785E-2,-1.334011261E0,1.364044408E0
1.584545296E1,-1.398312653E-1,9.506368490E-2,-1.820076265E0,1.827913427E0
1.585545096E1,6.599131040E-3,5.882322701E-2,-2.149090903E0,2.149905912E0
1.586544896E1,-2.624076895E-1,9.460548246E-3,-1.896795827E0,1.914884254E0
1.587544696E1,-3.203282709E-1,1.775237878E-1,-1.919801112E0,1.954420939E0
1.588544496E1,1.916277288E-1,4.067869557E-2,-2.432963283E0,2.440837209E0
1.589544296E1,1.343983249E-1,1.409273441E-1,-2.399165207E0,2.407055695E0
1.590543996E1,-1.616154692E-1,4.466066770E-2,-2.104347425E0,2.111016868E0
1.591543796E1,1.832541140E-1,6.413457732E-2,-2.553863238E0,2.561232662E0
1.592543596E1,4.602089086E-1,8.733344654E-2,-2.922029663E0,2.959337210E0
1.593543396E1,-1.149917085E-2,5.364338423E-3,-2.529816563E0,2.529848385E0
1.594543196E1,-1.143753023E-1,-5.946814292E-2,-2.610458438E0,2.613639498E0
1.595542996E1,2.733432253E-1,1.013433250E-2,-3.251015065E0,3.262501828E0
