"Time (s)","Linear Acceleration x (m/s^2)","Linear Acceleration y (m/s^2)","Linear Acceleration z (m/s^2)","Absolute acceleration (m/s^2)"
2.784654166E-2,6.405213615E-3,2.516190285E-2,-4.859153152E-2,5.509342113E-2
3.784554166E-2,-6.263219008E-2,-4.059466012E-3,2.046525478E-4,6.276394173E-2
4.784454167E-2,-6.081008348E-3,-8.095269073E-3,-1.566001296E-2,1.864800391E-2
5.784354167E-2,1.148677384E-1,2.582190732E-2,-8.646920979E-2,1.460763241E-1
6.784254167E-2,9.739013669E-2,5.086301034E-2,-4.111528158E-2,1.173130467E-1
7.784154167E-2,7.793533559E-2,1.816309635E-2,1.419493461E-1,1.629522367E-1
8.783954167E-2,-2.075035680E-2,3.132152427E-2,6.156825721E-2,7.212673212E-2
9.783854167E-2,7.048117260E-2,3.695696108E-2,-1.797282064E-1,1.965595097E-1
1.078375417E-1,1.177975497E-1,-6.050881483E-3,-1.481561655E-1,1.893756195E-1
1.178365417E-1,-5.511329658E-3,7.551828850E-2,1.184376919E-1,1.405733742E-1
1.278355417E-1,-7.236819243E-2,-2.545208920E-2,1.540624380E-1,1.721051973E-1
1.378345417E-1,-4.739620989E-2,1.582790114E-2,-9.008571267E-2,1.030163035E-1
1.478335417E-1,8.499795897E-4,4.259808065E-2,-1.285650694E-1,1.354411164E-1
1.578315417E-1,4.450903296E-2,-2.165649706E-2,1.660609245E-3,4.952590739E-2
1.678305417E-1,2.000213703E-2,4.642579593E-3,-2.961965561E-2,3.604112969E-2
1.778295417E-1,3.723654935E-2,-3.844345121E-2,-2.632884264E-2,5.964618599E-2
1.878285417E-1,6.554538255E-2,2.574450480E-2,1.187107569E-1,1.380261588E-1
1.978275417E-1,7.507451224E-2,-3.796030674E-3,6.108527720E-2,9.686074193E-2
2.078265417E-1,6.451938350E-2,1.347947661E-3,-1.366511840E-1,1.511228437E-1
2.178255417E-1,8.203435253E-2,-5.595785379E-3,-1.317091173E-1,1.552682820E-1
2.278245417E-1,5.338005396E-2,-1.110939911E-2,6.438544571E-2,8.437022300E-2
2.378225417E-1,-1.120267133E-3,-7.768628988E-3,1.468656850E-1,1.470752733E-1
2.478215417E-1,-5.956850946E-4,-9.058744032E-3,-9.257896543E-3,1.296627674E-2
2.578205417E-1,3.421010362E-2,3.851056628E-2,-1.444297349E-1,1.533406118E-1
2.678195417E-1,4.142581441E-2,3.143806659E-2,-7.497416854E-2,9.124459479E-2
2.778185417E-1,-5.702862516E-5,-1.233024292E-2,3.415007830E-2,3.630793288E-2
2.878175417E-1,1.389514512E-2,-1.779536130E-2,4.073813617E-2,4.657623515E-2
2.978165417E-1,6.493022349E-2,1.881219210E-2,2.007875383E-2,7.051942179E-2
3.078145417E-1,2.096310865E-2,3.380057925E-2,1.139563859E-2,4.137380404E-2
3.178135417E-1,-1.155153084E-2,-2.878644565E-2,-4.937388897E-2,5.830847477E-2
3.278125417E-1,5.004002844E-2,-9.005114101E-3,-1.131371909E-1,1.240367708E-1
3.378115417E-1,6.591720151E-2,4.575731300E-2,-4.877045631E-2,9.390083363E-2
3.478105417E-1,2.450346068E-2,5.826390428E-2,8.309945941E-2,1.044060452E-1
3.578095417E-1,-2.232183712E-3,2.895175740E-2,5.914517105E-2,6.588883182E-2
3.678085417E-1,4.739468413E-2,-1.760258591E-2,-6.165304184E-2,7.973208064E-2
3.778075417E-1,6.854384387E-2,1.120856423E-3,-8.290591657E-2,1.075774412E-1
3.878055417E-1,5.113729501E-2,3.141575580E-2,1.289369524E-2,6.138582923E-2
3.978045417E-1,2.499547190E-2,4.482064387E-2,3.998267591E-2,6.505596134E-2
4.078035417E-1,3.404590650E-2,3.655459955E-2,-4.668943226E-2,6.837591376E-2
4.178025417E-1,5.598296941E-2,2.035159953E-3,-5.492172718E-2,7.845145542E-2
4.278015417E-1,6.722196657E-4,-4.902543146E-3,-1.031448841E-2,1.144008216E-2
4.378005417E-1,-1.888140852E-2,1.612720549E-2,3.454535007E-3,2.507046383E-2
4.477995417E-1,1.903707693E-2,-8.126770947E-3,-3.875709951E-2,4.393822330E-2
4.577975417E-1,3.060625448E-2,-4.782401137E-3,-1.959928215E-2,3.665714166E-2
4.677965417E-1,8.954919409E-3,-2.420058405E-2,2.845313609E-2,3.841145406E-2
4.777955417E-1,2.019715538E-2,-3.522503408E-2,8.695979118E-3,4.152527139E-2
4.877945417E-1,5.076399597E-2,3.862067666E-3,-4.818222642E-2,7.009583294E-2
4.977935416E-1,8.517229736E-2,-3.440903686E-4,-1.958817244E-2,8.739642518E-2
5.077925416E-1,6.187732367E-2,-7.486171927E-3,1.798603535E-2,6.487174595E-2
5.177915416E-1,3.913621835E-2,1.565343484E-2,-1.180260479E-2,4.377185271E-2
5.277895417E-1,3.180579707E-2,3.295357352E-2,-6.090284407E-2,7.620172669E-2
5.377882917E-1,2.304484076E-2,7.505668737E-3,-2.707260847E-2,3.633628873E-2
5.477872917E-1,4.156200886E-3,-4.898066372E-3,1.589097798E-2,1.714025207E-2
5.577862916E-1,8.040803173E-3,1.042361207E-2,8.707673550E-3,1.578384563E-2
5.677852916E-1,7.388715288E-3,2.463512354E-2,-4.323782086E-2,5.030896121E-2
5.777842916E-1,2.306875496E-2,4.252517318E-2,-4.293785870E-2,6.468552790E-2
5.877832916E-1,3.670047388E-2,2.440887284E-2,-6.413810849E-3,4.454048524E-2
5.977812916E-1,2.498416577E-2,1.003455296E-2,-1.599447370E-2,3.131651291E-2
6.077802916E-1,2.197299132E-2,7.099305522E-3,-1.809245467E-2,2.933512233E-2
6.177792916E-1,4.472858677E-2,1.901971344E-3,-2.076931000E-3,4.481715756E-2
6.277782916E-1,4.150694453E-2,3.076777468E-2,-3.875534534E-3,5.181218168E-2
6.377772916E-1,3.180617622E-2,9.348400477E-3,-2.498515248E-2,4.151244731E-2
6.477762916E-1,1.483503022E-2,-7.631109785E-3,-3.276779652E-2,3.677010262E-2
6.577752916E-1,1.749595645E-2,1.207002355E-2,-4.622808695E-3,2.175234058E-2
6.677742917E-1,4.685518255E-2,2.120529301E-4,8.995356560E-3,4.771131457E-2
6.777722916E-1,6.415778803E-2,2.339491082E-2,-2.827713490E-2,7.391305686E-2
6.877712916E-1,4.316455251E-2,2.499977052E-3,-4.773491442E-2,6.440536106E-2
6.977702916E-1,1.436389995E-2,-3.046653343E-2,-3.037102282E-2,4.535339357E-2
7.077692917E-1,1.462568619E-2,-1.506993754E-2,3.234972060E-2,3.856835668E-2
7.177682917E-1,3.607869102E-2,-4.215641487E-3,4.013587296E-2,5.413253991E-2
7.277672917E-1,1.293116310E-2,4.470982086E-3,-1.045891464E-2,1.722189174E-2
7.377662917E-1,5.305795460E-3,1.601881273E-3,-5.476385236E-2,5.504359194E-2
7.477642916E-1,1.996919619E-2,4.626463205E-3,-5.775470316E-2,6.128440826E-2
7.577632917E-1,2.993434088E-2,-2.301189993E-3,-3.679886699E-2,4.749228201E-2
7.677622917E-1,3.293137237E-2,2.511026463E-2,1.965833902E-3,4.145919897E-2
7.777612917E-1,1.769080577E-2,3.338296015E-2,3.205268204E-2,4.954554534E-2
7.877602917E-1,2.734000895E-2,8.371330742E-3,2.501614273E-2,3.799161308E-2
7.977592917E-1,4.818671690E-2,1.935485026E-2,-3.396296740E-2,6.204879587E-2
8.077582917E-1,5.936937065E-2,1.146788824E-2,-6.120339096E-2,8.603539793E-2
8.177562917E-1,4.461512794E-2,1.907445800E-2,-1.480222642E-2,5.072918781E-2
8.277552917E-1,1.367662371E-2,5.112920484E-2,3.444068491E-2,6.314591357E-2
8.377542917E-1,1.761289619E-2,3.115813114E-2,2.860048592E-2,4.581518354E-2
8.477532917E-1,3.840567271E-2,4.005251359E-3,-5.103508294E-2,6.399701106E-2
8.577522917E-1,4.975119883E-2,-5.013256520E-4,-8.351636589E-2,9.721325261E-2
8.677512917E-1,1.711046048E-2,3.049048875E-3,-2.528979242E-2,3.068612321E-2
8.777502917E-1,-8.618119787E-3,6.754593886E-3,3.832440555E-2,3.985795514E-2
8.877492917E-1,1.718147218E-2,3.083437812E-3,1.751474977E-2,2.472806168E-2
8.977472917E-1,3.537268541E-2,-2.637275157E-2,-2.813914061E-2,5.233125388E-2
9.077462917E-1,2.597239089E-2,-1.303037390E-2,-2.544240475E-2,3.862216581E-2
9.177452917E-1,1.665596281E-2,3.236506954E-3,-5.533804893E-3,1.784710259E-2
9.277442917E-1,3.087947933E-2,4.378833622E-3,-1.466481686E-2,3.446408683E-2
9.377432917E-1,5.015270155E-2,3.452598117E-3,-4.056388915E-2,6.459599840E-2
9.477422917E-1,4.759369046E-2,1.212284949E-2,-3.128611207E-2,5.823180969E-2
9.577412917E-1,2.347068708E-2,1.262329806E-2,1.466774046E-2,3.041978659E-2
9.677392917E-1,1.328090882E-2,-1.793852672E-3,3.472778320E-2,3.722390862E-2
9.777382917E-1,3.330038193E-2,-8.679588642E-3,-1.960805297E-2,3.960715134E-2
9.877372917E-1,4.754974955E-2,1.036097378E-2,-4.654968381E-2,6.734390486E-2
9.977362917E-1,2.993985462E-2,1.343390487E-2,-2.499216914E-2,4.124891772E-2
1.007735292E0,1.971871609E-2,2.952509517E-2,1.257736087E-2,3.766628486E-2
1.017734292E0,2.122823420E-2,3.151725981E-2,5.394056439E-3,3.838061279E-2
1.027733292E0,3.230346821E-2,4.490844347E-3,-3.382263422E-2,4.698566086E-2
1.037731292E0,3.163498985E-2,9.846820794E-3,-4.594742060E-2,5.664713516E-2
1.047730292E0,8.994744429E-3,3.050543569E-2,-2.828415155E-2,4.256148803E-2
1.057729292E0,5.950994594E-3,2.433238395E-2,1.183301032E-2,2.770377913E-2
1.067728292E0,2.797211580E-2,3.046172775E-2,-8.524655700E-3,4.222589105E-2
1.077727292E0,2.281981432E-2,2.753097536E-2,-1.196925044E-2,3.770890460E-2
1.087726292E0,2.163155960E-2,1.149948148E-2,-1.751065671E-2,3.011288003E-2
1.097725292E0,5.229825967E-2,1.051451800E-2,-2.334968626E-2,5.823118497E-2
1.107723292E0,4.863414310E-2,-2.116874792E-3,-3.951431394E-2,6.269882008E-2
1.117722292E0,3.420574105E-2,-7.416005339E-3,-7.778550982E-3,3.585436809E-2
1.127721292E0,1.392039778E-2,2.137266956E-3,2.635164678E-2,2.987900053E-2
1.137720292E0,2.831107615E-3,-1.130827753E-2,6.145423651E-3,1.317795670E-2
1.147719292E0,4.470879760E-2,-2.325971223E-2,-5.178177238E-2,7.225816733E-2
1.157718292E0,4.875885781E-2,-5.608210713E-4,-5.462234974E-2,7.322118427E-2
1.167717292E0,3.400798182E-2,-1.393915912E-2,2.410807014E-3,3.683279754E-2
1.177715292E0,2.181851062E-2,1.380227946E-2,5.253723264E-3,2.634676322E-2
1.187714292E0,3.041133663E-2,1.028428389E-2,-1.450518787E-2,3.522806219E-2
1.197713292E0,4.513282580E-2,-1.642848328E-2,1.060684919E-3,4.804156617E-2
1.207712292E0,1.621247891E-2,8.688158467E-3,-1.151492178E-2,2.170073717E-2
1.217711292E0,-5.563799283E-3,2.618253434E-2,-3.187258780E-2,4.162142261E-2
1.227710292E0,7.367688152E-3,1.341283662E-2,-2.902674794E-2,3.281370310E-2
1.237709292E0,3.444348061E-2,2.596070560E-2,-3.351740956E-2,5.462351449E-2
1.247708292E0,4.497181267E-2,1.877084132E-2,-7.772703767E-3,4.934798215E-2
1.257706292E0,2.072822417E-2,4.038182147E-2,6.743593812E-3,4.588928895E-2
1.267705292E0,3.084446913E-2,5.305200689E-2,-1.556294918E-2,6.330957351E-2
1.277704292E0,5.098280974E-2,-5.246030521E-3,-5.014045894E-2,7.169960494E-2
1.287703292E0,6.050689164E-2,-1.794762645E-2,-5.044100583E-2,8.079292234E-2
1.297702292E0,3.886815549E-2,5.249794666E-3,3.000791073E-3,3.933571663E-2
1.307701292E0,9.063047217E-3,-7.640976962E-3,3.683102667E-2,3.869170298E-2
1.317700292E0,6.189113315E-3,3.066267097E-2,-4.332202077E-3,3.157962143E-2
1.327699292E0,2.451418667E-2,3.388737386E-2,-4.849212885E-2,6.403737983E-2
1.337697292E0,4.022673321E-2,-1.809888661E-2,-4.325536251E-2,6.178014363E-2
1.347696292E0,2.819402221E-2,-5.501773115E-3,-6.878664494E-3,2.953791497E-2
1.357695292E0,1.534706358E-2,-8.573644403E-3,1.901865363E-2,2.589882092E-2
1.367694292E0,3.528436961E-2,-1.423879238E-2,-1.106819451E-2,3.962618928E-2
1.377693292E0,4.795046198E-2,2.109746670E-2,-2.378881216E-2,5.753483718E-2
1.387692292E0,3.489612820E-2,1.766613783E-2,-1.974838614E-2,4.381587548E-2
1.397691292E0,2.107482245E-2,1.089354549E-3,-1.809654772E-2,2.779963802E-2
1.407689292E0,3.360907380E-2,1.060332259E-2,-2.931793928E-2,4.584257689E-2
1.417688292E0,2.993969474E-2,-1.324211620E-4,-2.707085431E-2,4.036377100E-2
1.427687292E0,1.220379688E-2,9.923273139E-4,1.544191182E-2,1.970710563E-2
1.437686292E0,1.011460957E-2,1.031863628E-2,2.172825336E-2,2.609399501E-2
1.447685292E0,1.202509135E-2,6.396908741E-3,-1.150205791E-2,1.782752365E-2
1.457684292E0,2.463117667E-2,8.331898581E-3,-5.910307109E-2,6.457002718E-2
1.467683292E0,3.949009824E-2,1.089791263E-2,-4.832197487E-2,6.335018243E-2
1.477681292E0,2.352254001E-2,1.886308115E-2,-1.620848179E-3,3.019524578E-2
1.487680292E0,8.763487050E-3,1.090324821E-2,1.109976947E-2,1.785733488E-2
1.497679292E0,2.118178081E-2,1.826735951E-2,-1.779190779E-2,3.314990565E-2
1.507678292E0,3.044770814E-2,2.925849868E-2,-3.725202620E-2,5.631017787E-2
1.517677292E0,3.737311838E-2,1.446436699E-2,-2.797191024E-2,4.887121497E-2
1.527676292E0,2.919038775E-2,1.493788183E-2,-6.567007899E-3,3.344166030E-2
1.537675292E0,2.585961272E-2,5.365660898E-3,9.747308493E-3,2.815173014E-2
1.547673667E0,3.250723454E-2,-4.916137923E-3,1.663182020E-2,3.684435035E-2
1.557672667E0,4.079606015E-2,7.947224882E-3,-1.704755723E-2,4.492322467E-2
1.567671667E0,3.503023957E-2,1.286575651E-2,-5.446973741E-2,6.602724944E-2
1.577670667E0,4.772006341E-2,-7.322468162E-3,-5.895806015E-2,7.620285984E-2
1.587669667E0,4.098540030E-2,-4.768623635E-3,-1.644646347E-2,4.441879073E-2
1.597668667E0,1.904725931E-2,-2.858648915E-3,1.842866957E-2,2.665681569E-2
1.607667667E0,8.263262319E-3,-3.644350246E-3,3.519146740E-2,3.633183413E-2
1.617666667E0,1.415793178E-2,-1.340695286E-2,-4.474874139E-3,2.000544716E-2
1.627664667E0,2.023264980E-2,-1.931578355E-2,-5.072693467E-2,5.792824452E-2
1.637663667E0,2.573377424E-2,8.365465254E-3,-5.446564436E-2,6.081705814E-2
1.647662667E0,1.881139268E-2,1.826227974E-2,-1.015485942E-2,2.811584119E-2
1.657661667E0,2.236992133E-2,1.563645964E-2,8.704165220E-3,2.864742122E-2
1.667660667E0,2.886172855E-2,1.893668298E-2,-5.771201849E-4,3.452434510E-2
1.677659667E0,3.765327310E-2,4.707026873E-3,-1.988404155E-2,4.284040366E-2
1.687658667E0,3.668110498E-2,1.090578809E-3,-2.392563701E-2,4.380786380E-2
1.697656667E0,3.811626751E-2,2.815456264E-2,-3.720583320E-3,4.753285166E-2
1.707655667E0,3.211055120E-2,1.665076884E-2,1.683998108E-4,3.617131405E-2
1.717654667E0,2.839621710E-2,1.338745605E-2,-8.800059557E-4,3.140610666E-2
1.727653667E0,2.367084002E-2,2.416235788E-2,2.410222292E-3,3.391072657E-2
1.737652667E0,1.287147582E-2,1.502052857E-2,-7.921223044E-3,2.130814264E-2
1.747651667E0,3.195167596E-2,1.691126229E-2,-4.534691155E-2,5.799347184E-2
1.757650667E0,3.953270069E-2,6.782057527E-3,-4.819333613E-2,6.270110346E-2
1.767648667E0,2.675413165E-2,1.598539224E-2,-1.631490111E-2,3.517800909E-2
1.777647667E0,1.159402822E-2,2.323981343E-2,7.783228755E-3,2.711252604E-2
1.787646667E0,1.039375473E-2,5.070285145E-3,1.826202393E-2,2.161572221E-2
1.797645667E0,2.195646380E-2,-8.405792769E-3,-1.182599366E-2,2.631725253E-2
1.807644667E0,3.622338676E-2,2.156343497E-3,-3.592412353E-2,5.106198407E-2
1.817643667E0,4.073052109E-2,7.121287398E-3,-2.140490234E-2,4.656026124E-2
1.827642667E0,2.100093740E-2,1.150052302E-2,-1.032969117E-2,2.607688480E-2
1.837640667E0,1.809136746E-2,1.588889491E-2,1.044312716E-3,2.410072918E-2
1.847639667E0,3.201700032E-2,-4.969164860E-3,-5.091755390E-3,3.279797070E-2
1.857638667E0,3.319329566E-2,-8.185809553E-3,-6.885681152E-3,3.487427361E-2
1.867637667E0,3.269630517E-2,-1.396347988E-2,-7.032446265E-3,3.624199833E-2
1.877636667E0,2.280663525E-2,-2.086286545E-3,-2.738426507E-2,3.569864390E-2
1.887635667E0,2.939741573E-2,3.060651943E-3,-2.454134881E-2,3.841683802E-2
1.897634667E0,2.423544807E-2,1.456110187E-2,-1.343690157E-3,2.830526690E-2
1.907633667E0,1.690757124E-2,2.074632313E-2,1.951215863E-3,2.683436476E-2
1.917631667E0,1.974136492E-2,1.260533614E-2,-1.211835444E-2,2.637177473E-2
1.927630667E0,3.834750662E-2,1.538022369E-2,-4.879033685E-2,6.393418111E-2
1.937629667E0,3.709113184E-2,2.320317697E-2,-4.594742060E-2,6.344529094E-2
1.947628667E0,2.152980435E-2,2.462092577E-2,4.195961952E-3,3.297466539E-2
1.957627667E0,6.955527971E-3,2.684708867E-2,2.724451661E-2,3.887684690E-2
1.967626667E0,-2.842724388E-3,1.228788715E-2,2.290412843E-2,2.614712894E-2
1.977625667E0,2.220908178E-2,2.807650231E-3,-1.900695920E-2,2.936648960E-2
1.987623667E0,3.844711029E-2,6.253761593E-3,-4.684555292E-2,6.092450781E-2
1.997622667E0,3.973847700E-2,1.774783440E-2,-4.759341180E-2,6.449236410E-2
2.007621667E0,2.560347270E-2,1.553943241E-2,-1.631314695E-2,3.410469963E-2
2.017620667E0,1.788662811E-2,1.472935550E-2,2.918988526E-2,3.726841531E-2
2.027619667E0,1.965098889E-2,3.191063125E-3,1.795972288E-2,2.681223404E-2
2.037618667E0,2.551346212E-2,-4.476025309E-3,-1.242942631E-2,2.873085781E-2
2.047617667E0,3.286412483E-2,-8.513893168E-3,-4.640525758E-2,5.749769568E-2
2.057615667E0,2.591919950E-2,-1.344300460E-2,-3.038622558E-2,4.214074015E-2
2.067614667E0,2.092157515E-2,1.407063011E-2,-3.142878413E-3,2.540812120E-2
2.077613667E0,1.371504174E-2,1.742366111E-2,2.858937621E-2,3.618064080E-2
2.087612667E0,2.513536654E-2,1.432304710E-2,-5.390548110E-3,2.942778174E-2
2.097611667E0,3.417348086E-2,7.294511162E-3,-4.625790775E-2,5.797267215E-2
2.107610667E0,3.339370441E-2,-5.194136482E-3,-5.209342897E-2,6.209544178E-2
2.117609667E0,2.116534009E-2,1.739802472E-3,-1.691774905E-2,2.715158865E-2
2.127608667E0,1.074680778E-2,2.022601230E-2,4.635672569E-3,2.336824579E-2
2.137606667E0,2.394925428E-2,3.024625786E-2,1.032618284E-2,3.993786357E-2
2.147605667E0,2.006846638E-2,1.504821148E-2,-1.797434092E-3,2.514801744E-2
2.157604667E0,2.474813468E-2,8.490833212E-3,5.993396044E-4,2.617104558E-2
2.167603667E0,2.043951333E-2,2.685388606E-3,-1.646225095E-2,2.638163610E-2
2.177602667E0,3.121784583E-2,6.936917379E-3,-3.382380366E-2,4.654808713E-2
2.187601667E0,3.947188965E-2,3.000703365E-2,-2.813972533E-2,5.701136976E-2
2.197600667E0,2.849974936E-2,1.805554412E-2,-6.585134268E-3,3.437444371E-2
2.207598667E0,9.784639310E-3,7.779683881E-3,1.032852173E-2,1.621545586E-2
2.217597667E0,1.782702763E-2,3.627100959E-5,-1.571497679E-2,2.376477909E-2
2.227596667E0,3.236605626E-2,-2.004231837E-2,-3.831446528E-2,5.401161332E-2
2.237595667E0,3.118041908E-2,-2.099022511E-3,-3.352384150E-2,4.583091073E-2
2.247594667E0,2.474760478E-2,1.898108527E-2,-1.675812006E-2,3.540565108E-2
2.257593667E0,2.430274130E-2,1.610902430E-2,1.183242559E-2,3.146633430E-2
2.267592667E0,2.537414307E-2,-2.582605518E-3,-1.640728712E-3,2.555795333E-2
2.277590667E0,3.060246749E-2,-3.605849985E-3,-2.184929073E-2,3.777439180E-2
2.287589667E0,3.506769373E-2,-3.734708000E-3,-3.561772943E-2,5.012298711E-2
2.297588667E0,2.709184033E-2,-6.914168056E-3,-1.645698845E-2,3.244389005E-2
2.307587667E0,2.001194939E-2,1.175125893E-3,9.063184261E-4,2.006689942E-2
2.317586667E0,8.296573176E-3,5.054954477E-3,1.205111146E-3,9.789687641E-3
2.327585667E0,2.542438345E-2,4.228487089E-3,-1.735512078E-2,3.107216751E-2
2.337584667E0,3.670572267E-2,1.527661834E-2,-3.591593742E-2,5.357835109E-2
2.347582667E0,3.243410780E-2,4.018042143E-3,-1.495834708E-2,3.594256750E-2
2.357581667E0,2.278034562E-2,-4.768459182E-3,-1.361231804E-2,2.696252124E-2
2.367580667E0,1.977615128E-2,1.376414465E-2,-4.391258955E-4,2.409856155E-2
2.377579667E0,2.011560956E-2,2.237581423E-2,3.151649237E-3,3.025306105E-2
2.387578667E0,2.649898748E-2,1.700308185E-2,-2.049975336E-2,3.757048067E-2
2.397577667E0,2.376727796E-2,1.889255477E-2,-3.995753288E-2,5.018382769E-2
2.407576667E0,1.980328145E-2,1.406025130E-2,-3.037687004E-2,3.889234958E-2
2.417574667E0,2.874121652E-2,2.578145189E-2,-1.166694939E-2,4.033433397E-2
2.427573667E0,2.416417143E-2,2.750979748E-2,6.742424369E-3,3.723112172E-2
2.437572667E0,2.365031081E-2,6.705075279E-3,5.993396044E-3,2.530249063E-2
2.447571667E0,2.144331580E-2,-1.932778861E-3,-7.928824425E-3,2.294379401E-2
2.457570667E0,2.526125983E-2,2.009962108E-3,-4.250516474E-2,4.948595989E-2
2.467569667E0,3.487633903E-2,1.389170531E-2,-4.864357173E-2,6.144538690E-2
2.477568667E0,3.084892306E-2,2.321949435E-2,-2.798418939E-2,4.768559351E-2
2.487567667E0,2.685358000E-2,8.535875045E-3,9.737952948E-3,2.981281015E-2
2.497565667E0,1.742895558E-2,-8.197065443E-5,1.677507699E-2,2.419046134E-2
2.507564667E0,1.718458308E-2,1.351931076E-3,-1.031741202E-2,2.008946500E-2
2.517563667E0,2.787900803E-2,4.401747398E-3,-3.875593007E-2,4.794409853E-2
2.527562667E0,2.684241090E-2,-3.781869449E-3,-4.010020494E-2,4.840293375E-2
2.537561667E0,1.830525678E-2,-1.286508042E-2,-2.675685883E-3,2.253335339E-2
2.547560042E0,8.004687480E-3,-1.754895598E-4,2.142419815E-2,2.287142507E-2
2.557559042E0,2.351943368E-2,5.522823092E-3,-7.317205667E-3,2.524295613E-2
2.567557042E0,4.432163883E-2,1.665451471E-3,-3.082008898E-2,5.400980728E-2
2.577556042E0,3.284082733E-2,-3.794112056E-3,-3.082125843E-2,4.519806629E-2
2.587555042E0,2.831057366E-2,-2.138034403E-3,-2.213989735E-2,3.600326133E-2
2.597554042E0,1.914861714E-2,1.948992094E-2,-5.826750398E-3,2.793702877E-2
2.607553042E0,1.611252350E-2,1.102773909E-2,-7.390880585E-4,1.953895325E-2
2.617552042E0,2.129481937E-2,1.799783941E-2,9.057337046E-4,2.789644976E-2
2.627551042E0,2.756965835E-2,4.805735182E-3,-1.900286615E-2,3.382735689E-2
2.637549042E0,2.474670029E-2,1.220143972E-2,-3.591944575E-2,4.529327643E-2
2.647548042E0,2.184067522E-2,2.475988850E-2,-3.562123775E-2,4.856891755E-2
2.657547042E0,2.712172051E-2,2.107535692E-2,-1.825851560E-2,3.889899465E-2
2.667546042E0,1.494749776E-2,1.944053024E-2,1.362050414E-2,2.805138211E-2
2.677545042E0,9.461982641E-3,5.533366352E-3,1.317026854E-2,1.713485430E-2
2.687544042E0,2.885018487E-2,-1.001611596E-2,-1.242767215E-2,3.297124173E-2
2.697543042E0,2.729524121E-2,-1.962727569E-2,-2.964129031E-2,4.482037745E-2
2.707541042E0,2.623799153E-2,-6.820685696E-3,-2.575113773E-2,3.739084176E-2
2.717540042E0,1.436123673E-2,1.384273488E-2,-2.100904584E-3,2.005692473E-2
2.727539042E0,1.151217177E-2,5.250470750E-3,-2.848178744E-3,1.296956684E-2
2.737538042E0,3.560245814E-2,-1.850333121E-3,-1.961156130E-2,4.068872196E-2
2.747537042E0,3.263569056E-2,-9.275620915E-3,-4.221280396E-2,5.415760574E-2
2.757536042E0,2.856151971E-2,-1.842430243E-2,-3.637143552E-2,4.978048463E-2
2.767535042E0,1.234505282E-2,3.246246222E-3,-1.691190183E-2,2.118846071E-2
2.777533042E0,5.868516876E-3,2.293804228E-2,3.443425298E-3,2.392593680E-2
2.787532042E0,1.706286963E-2,7.197081931E-3,1.302174926E-2,2.263858348E-2
2.797531042E0,2.617309200E-2,1.890843362E-3,-1.841171265E-2,3.205615691E-2
2.807530042E0,2.468778959E-2,9.922249876E-3,-3.742101073E-2,4.591590184E-2
2.817529042E0,3.070056824E-2,3.016044997E-2,-4.146085203E-2,5.975934976E-2
2.827528042E0,3.175653427E-2,2.961326022E-2,-2.814031005E-2,5.174262942E-2
2.837527042E0,1.654946582E-2,3.290191703E-2,-5.989887714E-3,3.731353264E-2
2.847525042E0,2.516765870E-2,2.108831216E-2,1.766093016E-2,3.728319203E-2
2.857524042E0,8.335964223E-3,1.906521209E-2,2.529622436E-2,3.275468788E-2
2.867523042E0,1.594921716E-2,1.940435059E-3,-1.526474118E-2,2.216202021E-2
2.877522042E0,1.953159149E-2,-4.206943754E-3,-2.723633051E-2,3.377867880E-2
2.887521042E0,2.245405728E-2,-1.450529750E-2,-3.950788200E-2,4.770179330E-2
2.897520042E0,1.399172924E-2,-2.413781784E-2,-1.375966787E-2,3.110837825E-2
2.907519042E0,1.514837245E-2,-9.561001584E-3,7.206108570E-3,1.930839041E-2
2.917517042E0,1.781120360E-2,-8.773363363E-3,2.443902254E-2,3.148772302E-2
2.927516042E0,4.045417163E-2,2.306277070E-2,6.383697689E-2,7.901639711E-2
2.937515042E0,1.199428931E-1,1.509328986E-2,1.360278708E-1,1.819826548E-1
2.947514042E0,1.788365974E-1,1.109004848E-2,1.441572547E-1,2.299713717E-1
2.957513042E0,1.189694414E-1,4.059983125E-2,1.721993315E-1,2.132010414E-1
2.967512042E0,-3.139919631E-2,8.245495006E-2,1.953116208E-1,2.143160226E-1
2.977511042E0,-8.012280637E-2,1.348093658E-1,2.209709573E-1,2.709638226E-1
2.987509042E0,-6.914271296E-2,3.357891496E-2,3.207373202E-1,3.298191729E-1
2.997508042E0,-1.051056839E-1,-3.563088566E-2,4.999954104E-1,5.121642073E-1
3.007507042E0,-4.326182186E-2,-1.974199075E-2,5.615888107E-1,5.635985484E-1
3.017506042E0,-1.105972244E-1,-2.513971997E-2,2.269889116E-3,1.134411917E-1
3.027505042E0,-1.455440498E-2,2.480454661E-2,-1.303302269E0,1.303619538E0
3.037504042E0,6.250318314E-1,5.534952410E-2,-1.292535791E0,1.436794046E0
3.047503042E0,5.463415381E-2,-1.978189434E-1,-1.544132710E-1,2.568281203E-1
3.057501042E0,-5.948208944E-2,-1.661820167E-1,8.659434021E-2,1.966040727E-1
3.067500042E0,-8.678763636E-2,3.108605324E-1,-4.694203198E-2,3.261440154E-1
3.077499042E0,5.053441510E-2,3.654729053E-2,-1.303280050E-1,1.444812113E-1
3.087498042E0,-1.017330282E-1,-4.669149706E-2,1.022268713E-2,1.124019940E-1
3.097497042E0,-1.298039848E-2,-1.175317755E-1,-7.555362761E-2,1.403230546E-1
3.107496042E0,7.631047659E-2,-1.087899506E-1,-3.078325152E-2,1.364043649E-1
3.117495042E0,-4.224527428E-2,-5.681028647E-2,1.322406292E-2,7.202046715E-2
3.127493042E0,-2.387041736E-2,4.408137308E-2,-3.826885700E-2,6.306718397E-2
3.137492042E0,-1.065652312E-2,7.474380651E-2,1.891340375E-2,7.783260845E-2
3.147491042E0,2.631994391E-2,-5.021358568E-2,-2.075469196E-2,6.037301444E-2
3.157490042E0,5.462206651E-2,2.754341897E-2,-7.988992274E-2,1.006211202E-1
3.167489042E0,-2.692892228E-2,1.253647969E-1,-1.134067476E-2,1.287249396E-1
3.177488042E0,8.292959780E-3,5.744633563E-2,6.256520748E-4,5.804520738E-2
3.187487042E0,8.779423454E-2,1.334393084E-2,-3.336304307E-2,9.486295774E-2
3.197485042E0,5.664047054E-2,8.605502592E-2,4.051535726E-3,1.031020142E-1
3.207484042E0,1.520016782E-1,6.200564722E-2,1.482444584E-2,1.648301388E-1
3.217483042E0,4.255980880E-2,2.243039433E-2,-4.490076900E-2,6.580683073E-2
3.227482042E0,-3.953841543E-3,6.888221037E-2,-4.296358645E-2,8.127891195E-2
3.237481042E0,3.960434278E-2,2.185665457E-2,-8.684869409E-3,4.606130993E-2
3.247480042E0,-5.753990935E-2,-1.293860368E-1,2.694455445E-2,1.441443606E-1
3.257479042E0,-6.174939299E-2,3.606509624E-2,6.879833937E-3,7.184017550E-2
3.267477042E0,1.177342353E-2,9.919576602E-2,-4.236833990E-2,1.085057129E-1
3.277476042E0,1.599561573E-2,-1.481146868E-1,-3.877113283E-2,1.539383672E-1
3.287475042E0,5.231083576E-3,-5.146101605E-2,5.984040499E-3,5.207119308E-2
3.297474042E0,4.283335799E-2,4.761332888E-3,9.275438190E-3,4.408401753E-2
3.307473042E0,5.568979550E-3,5.723161491E-2,-8.986585736E-3,5.819991410E-2
3.317472042E0,2.249327017E-2,3.263820760E-2,-2.156102300E-2,4.512291559E-2
3.327471042E0,9.198518068E-2,-2.885997439E-2,-5.549592376E-3,9.656588197E-2
3.337469042E0,3.965828335E-2,1.005137467E-1,-1.124127209E-2,1.086377417E-1
3.347468042E0,1.468255037E-2,2.958462713E-2,-1.722940564E-2,3.725157536E-2
3.357467042E0,1.031593194E-2,-1.033736564E-1,-9.450269938E-3,1.043160529E-1
3.367466042E0,1.017481305E-2,1.882257091E-2,-6.005090475E-3,2.222334601E-2
3.377465042E0,-2.264654031E-3,-8.319458630E-2,7.921223044E-3,8.360151686E-2
3.387464042E0,-8.411813574E-3,-7.004681127E-2,-1.183067143E-2,7.153516033E-2
3.397462042E0,5.177628147E-2,5.077500975E-2,-3.158139646E-2,7.909658362E-2
3.407461042E0,6.495053343E-2,-3.238884212E-2,-2.305030882E-2,7.615067710E-2
3.417460042E0,1.382835438E-2,6.981136948E-2,-1.751007199E-2,7.329019931E-2
3.427459042E0,6.517048923E-2,6.272359394E-2,1.107813478E-2,9.112720216E-2
3.437458042E0,1.087371977E-2,1.371245161E-3,1.571322262E-2,1.915785636E-2
3.447457042E0,1.393749632E-2,3.532920588E-2,-2.500210941E-2,4.546990286E-2
3.457456042E0,2.218319415E-2,4.573849227E-2,-5.539593637E-2,7.518519498E-2
3.467454042E0,3.660996538E-4,1.191287963E-2,-1.707854748E-2,2.082612575E-2
3.477453042E0,9.424752323E-3,-1.526722625E-2,1.869998038E-2,2.591531246E-2
3.487452042E0,4.215733764E-2,-4.171495009E-3,1.944374621E-2,4.661224897E-2
3.497451042E0,-1.961948245E-2,-1.646342039E-2,-4.056213498E-3,2.593108502E-2
3.507450042E0,1.473677415E-2,2.474654954E-2,-1.632776499E-2,3.310830917E-2
3.517449042E0,2.009857041E-2,2.368822178E-2,-2.845079720E-2,4.212519727E-2
3.527448042E0,3.454541403E-2,-7.871887162E-3,-1.004025400E-2,3.682606330E-2
3.537446042E0,4.165145298E-3,3.310878055E-2,-2.455421269E-2,4.143005124E-2
3.547445208E0,2.078940067E-2,-1.560747938E-2,-1.197217405E-2,2.862036939E-2
3.557444208E0,2.478657556E-2,-4.582338654E-2,-1.930282831E-2,5.555858406E-2
3.567443208E0,3.844399025E-2,6.558931433E-4,-2.832975984E-3,3.855381090E-2
3.577442208E0,7.866743440E-3,5.145695955E-3,-2.034187853E-2,2.240883445E-2
3.587441208E0,1.401481661E-2,1.443330366E-2,-1.360237777E-2,2.428497520E-2
3.597440208E0,3.582695925E-2,6.158086527E-2,-4.324015975E-3,7.137556368E-2
3.607438208E0,3.307648382E-2,3.954398856E-2,2.415484786E-3,5.161022553E-2
3.617437208E0,3.071510405E-2,1.925440606E-2,-1.075478375E-2,3.781289652E-2
3.627436208E0,2.390731878E-2,3.612201523E-2,-2.153237164E-2,4.837357650E-2
3.637435208E0,5.504532270E-3,1.267106250E-2,-3.560545027E-2,3.819167173E-2
3.647434208E0,3.627400629E-2,-5.666554961E-3,-3.426117539E-2,5.021694452E-2
3.657433208E0,4.499743992E-2,1.269401282E-2,-1.001160264E-2,4.781359376E-2
3.667431208E0,2.708914513E-2,-2.151779015E-2,3.070314467E-2,4.625494751E-2
3.677430208E0,-2.101143041E-2,-1.578057524E-2,3.160595477E-2,4.110283615E-2
3.687429208E0,-4.637582051E-3,-1.214097586E-2,1.229610980E-2,1.789147222E-2
3.697428208E0,6.625534873E-4,-5.247680532E-2,-4.578428328E-2,6.964520564E-2
3.707427208E0,1.017218180E-2,-3.381411921E-2,-7.137345314E-2,7.963063326E-2
3.717426208E0,5.698042218E-2,-2.998949200E-2,-1.149387181E-2,6.540831163E-2
3.727425208E0,6.320418938E-2,-3.271462340E-3,3.460440695E-2,7.213138708E-2
3.737423208E0,5.773760919E-2,2.290299553E-3,4.743670642E-2,7.476040465E-2
3.747422208E0,3.707179491E-2,-2.637112532E-2,1.430135393E-1,1.500754032E-1
3.757421208E0,1.153223046E-1,-2.184059848E-1,9.662933171E-1,9.973581016E-1
3.767420208E0,4.397942322E-1,-3.591546965E-1,-5.819733739E-1,8.130830650E-1
3.777419208E0,-4.159439147E-1,3.777800518E-1,-8.115315521E-1,9.870717135E-1
3.787418208E0,-1.601569543E-1,6.695589999E-2,-2.081830966E-1,2.710600382E-1
3.797417208E0,-2.722908544E-2,6.250734197E-1,-1.084985948E-1,6.350040537E-1
3.807415208E0,8.123893021E-2,7.806361802E-2,7.756448507E-2,1.367842885E-1
3.817414208E0,1.532733654E-1,-3.101293746E-1,1.053071845E-1,3.616110571E-1
3.827413208E0,-3.652705369E-2,1.000928020E-1,-7.254055738E-2,1.288989027E-1
3.837412208E0,-1.547280339E-1,4.990507197E-2,-9.189425647E-2,1.867507297E-1
3.847411208E0,4.081161009E-2,2.821933151E-1,-5.327222764E-2,2.900630705E-1
3.857410208E0,1.627693989E-1,-2.985516866E-1,1.266734952E-1,3.628679666E-1
3.867409208E0,-3.847947554E-2,9.938073903E-4,3.806011140E-2,5.413159679E-2
3.877407208E0,2.779890575E-2,1.845269249E-1,-1.096966892E-1,2.164632274E-1
3.887406208E0,-5.240416280E-2,2.320968200E-2,-8.679489970E-2,1.040107698E-1
3.897405208E0,1.548451609E-1,-1.199678169E-1,-4.309397936E-3,1.959282314E-1
3.907404208E0,-6.568681665E-2,-2.654512749E-1,3.835481107E-2,2.761344397E-1
3.917403208E0,9.606152139E-2,1.835157769E-1,-3.556861281E-3,2.071678245E-1
3.927402208E0,1.005521921E-2,-9.675137406E-2,1.112549722E-2,9.790665199E-2
3.937401208E0,3.443372307E-2,-1.902013919E-1,-2.344382644E-2,1.947096910E-1
3.947399208E0,9.510953072E-4,-8.718492726E-2,-3.945116401E-2,9.570010692E-2
3.957398208E0,2.064731332E-2,9.543204121E-2,-3.015643001E-2,1.021909796E-1
3.967397208E0,8.132214339E-2,1.946554536E-2,3.392788410E-2,9.024023372E-2
3.977396208E0,2.605217798E-2,-1.189983303E-1,1.671952844E-2,1.229587785E-1
3.987395208E0,6.880966835E-3,1.295492655E-2,-4.300802529E-2,4.544081938E-2
3.997394208E0,7.057888049E-2,2.607957949E-1,-7.772879183E-2,2.811362483E-1
4.007392208E0,1.249870668E-2,3.890804904E-2,-5.280035734E-3,4.120597925E-2
4.017391208E0,3.449564874E-2,1.825573817E-2,4.306883633E-2,5.812182397E-2
4.027390208E0,-5.797765567E-2,1.368668731E-3,1.971096396E-2,6.125197067E-2
4.037389208E0,1.077338520E-2,2.212207796E-1,-6.651675582E-2,2.312556549E-1
4.047388208E0,3.781742455E-2,8.009459356E-2,-7.670845270E-2,1.171728989E-1
4.057387208E0,2.829980199E-2,6.578848511E-2,-3.540313661E-2,7.988983445E-2
4.067385208E0,-8.764638221E-3,-2.143083109E-2,2.267082453E-2,3.240471708E-2
4.077384208E0,8.882907294E-3,7.963154890E-2,-5.032113791E-3,8.028332200E-2
4.087383208E0,5.386934713E-2,7.441628935E-2,-4.096968591E-2,1.005892929E-1
4.097382208E0,6.024238279E-2,-4.597464669E-2,-8.343976736E-3,7.623932562E-2
4.107381208E0,3.322636440E-2,-9.204220930E-2,4.678941965E-3,9.796760731E-2
4.117380208E0,3.207362238E-3,-6.641960068E-2,-1.762116909E-2,6.879212256E-2
4.127379208E0,2.193433117E-2,-5.797097705E-2,1.687506437E-3,6.200481225E-2
4.137377208E0,2.730675291E-2,-1.134634473E-1,-7.594363689E-3,1.169499337E-1
4.147376208E0,7.797810249E-5,-8.362821216E-2,-1.103661954E-2,8.435336935E-2
4.157375208E0,-1.148676379E-3,-7.249007033E-2,-8.034659028E-3,7.294302914E-2
4.167374208E0,3.667859707E-2,-5.650036577E-2,-1.551090896E-2,6.912451889E-2
4.177373208E0,3.663038495E-2,-2.924665807E-2,-3.182288647E-2,5.665552235E-2
4.187372208E0,1.259605369E-2,-1.999263531E-2,-1.520977736E-2,2.810166120E-2
4.197371208E0,3.718375996E-2,2.433492383E-2,7.995482683E-3,4.515250010E-2
4.207369208E0,3.998826731E-2,1.744350510E-2,1.922506034E-2,4.767536405E-2
4.217368208E0,2.823821437E-2,6.753767967E-2,-7.717155218E-3,7.360903077E-2
4.227367208E0,1.135696474E-2,6.493102748E-2,-3.226785958E-2,7.339096497E-2
4.237366208E0,2.517958154E-2,1.016074136E-1,-5.278106153E-2,1.172344586E-1
4.247365208E0,2.617380920E-2,2.466176491E-2,-3.362792194E-2,4.923523200E-2
4.257364208E0,1.257914244E-2,4.801574523E-2,-1.522381067E-2,5.191831108E-2
4.267362208E0,2.375274215E-2,4.969968852E-2,6.355923414E-4,5.508770984E-2
4.277361208E0,2.470057581E-2,8.013175992E-2,-8.618795872E-4,8.385678404E-2
4.287360208E0,3.353274937E-2,3.080287624E-2,-1.373978734E-2,4.756095269E-2
4.297359208E0,3.048089566E-3,1.991620123E-2,-3.470439434E-2,4.012905317E-2
4.307358208E0,4.291436020E-2,1.476434743E-2,-1.495016098E-2,4.778216801E-2
4.317357208E0,3.498611136E-2,-9.250916429E-3,1.049516737E-2,3.767964943E-2
4.327356208E0,7.354792301E-4,-2.466704568E-2,1.138686776E-2,2.717838902E-2
4.337354208E0,-4.290257441E-3,-2.403275069E-2,-3.636207998E-2,4.379703500E-2
4.347353208E0,3.641613931E-2,-4.872097425E-2,-2.977109849E-2,6.772139130E-2
4.357352208E0,3.306693641E-2,-4.492201997E-2,-1.943965316E-2,5.907038409E-2
4.367351208E0,5.214674827E-3,-4.793441411E-2,7.802524567E-3,4.884444983E-2
4.377350208E0,2.648247823E-2,-3.993321212E-2,1.648797870E-2,5.067382485E-2
4.387349208E0,3.459170753E-2,-8.774881812E-2,-1.059632421E-2,9.491429501E-2
4.397347208E0,4.868761771E-2,-8.973307075E-2,-1.448413789E-2,1.031130368E-1
4.407346208E0,2.302285432E-2,-3.447006717E-2,-4.037326992E-2,5.786396353E-2
4.417345208E0,2.318244676E-2,-4.083710030E-2,2.148267031E-3,4.700754886E-2
4.427344208E0,2.185954163E-2,-5.295474211E-2,4.391960621E-2,7.218709082E-2
4.437343208E0,1.677271069E-2,-1.689872732E-2,1.758140802E-2,2.959724172E-2
4.447342208E0,1.769096109E-2,3.960043246E-2,-3.839691103E-2,5.792656672E-2
4.457341208E0,1.931069464E-2,3.592373980E-2,-6.847966611E-2,7.970497274E-2
4.467339208E0,1.297139011E-2,5.663693480E-2,-6.264063656E-2,8.543915200E-2
4.477338208E0,2.333875014E-2,7.661332581E-2,-2.566518366E-2,8.410113318E-2
4.487337208E0,5.076639424E-2,1.151047607E-1,1.130325258E-2,1.263095256E-1
4.497336208E0,3.993447293E-2,9.079143506E-2,-1.278201342E-3,9.919415611E-2
4.507335208E0,2.305275735E-2,8.914886082E-2,-4.140237987E-2,1.009609136E-1
4.517334208E0,1.769693621E-2,9.866997343E-2,-2.689076006E-2,1.037885263E-1
4.527333208E0,1.690273815E-2,8.029582914E-2,1.621023595E-2,8.364146390E-2
4.537331208E0,2.775693370E-2,7.442010831E-2,-3.561539054E-3,7.950776346E-2
4.547330542E0,4.810714452E-3,8.068715405E-2,-2.258779407E-2,8.392716034E-2
4.557329542E0,-1.180580249E-3,8.583672378E-2,-2.649373412E-2,8.984016288E-2
4.567328542E0,1.490711085E-2,3.128132466E-2,-1.812695324E-2,3.910664471E-2
4.577327542E0,1.491429197E-2,4.293849824E-2,-2.173293114E-2,5.038324158E-2
4.587326542E0,1.755270185E-3,-2.680703525E-2,-9.019330144E-3,2.833807383E-2
4.597324542E0,1.769183817E-2,-4.001189372E-2,-1.755626500E-2,4.713995351E-2
4.607323542E0,1.276359469E-2,-1.181784227E-1,3.248128295E-3,1.189100470E-1
4.617322542E0,1.320093901E-2,-1.164984263E-1,2.824205160E-2,1.205975191E-1
4.627321542E0,1.257946221E-2,-1.421009717E-1,4.746769667E-3,1.427356327E-1
4.637320542E0,3.848998225E-2,-1.903868217E-1,-1.349712789E-2,1.947069415E-1
4.647319542E0,7.001820560E-2,-1.872960018E-1,-2.709950566E-2,2.017838562E-1
4.657317542E0,6.538032205E-2,-1.698109997E-1,-8.370289207E-3,1.821549447E-1
4.667316542E0,3.428364149E-2,-1.002615307E-1,2.757780790E-2,1.094909955E-1
4.677315542E0,2.456293783E-2,-1.318985671E-1,3.463364303E-2,1.385642780E-1
4.687314542E0,5.127974323E-2,-6.911593454E-2,-1.269430518E-3,8.607110971E-2
4.697313542E0,5.279434567E-2,2.851323450E-2,-4.855001628E-2,7.718388146E-2
4.707312542E0,4.117987504E-2,4.876451774E-2,-2.742636502E-2,6.946917156E-2
4.717311542E0,-2.417524916E-2,1.987606741E-1,-7.787087917E-2,2.148351043E-1
4.727309542E0,3.959780121E-3,1.093298313E-1,-7.293641388E-2,1.314854073E-1
4.737308542E0,1.034244541E-2,2.929237416E-1,3.633752167E-2,2.953501313E-1
4.747307542E0,-2.690738808E-2,5.241023842E-3,2.555233240E-4,2.741425098E-2
4.757306542E0,2.869288106E-2,3.266591609E-1,-6.802065969E-2,3.348974455E-1
4.767305542E0,-2.472485089E-2,1.075615785E-1,-4.453356385E-2,1.190128133E-1
4.777304542E0,6.693537991E-2,1.285924965E-1,2.072370172E-2,1.464440066E-1
4.787302542E0,-7.094207481E-3,9.086920302E-2,-2.951089740E-3,9.119346889E-2
4.797301542E0,-1.173042823E-2,2.486792860E-1,-8.425194561E-2,2.628257609E-1
4.807300542E0,1.078168003E-1,-1.042555445E-1,2.515355229E-2,1.520736077E-1
4.817299542E0,4.978904128E-3,2.787634481E-2,-2.237144709E-3,2.840571954E-2
4.827298542E0,2.089784824E-2,-1.867604699E-1,9.567798972E-3,1.881694342E-1
4.837297542E0,-4.009400141E-2,2.187114470E-3,-3.324200571E-2,5.212814367E-2
4.847295542E0,1.984002298E-2,-2.496068006E-1,7.782994866E-2,2.622111407E-1
4.857294542E0,-2.700216779E-3,-2.137615597E-1,-9.879455566E-3,2.140067737E-1
4.867293542E0,5.979116047E-2,-1.749119097E-1,-6.061165273E-2,1.945325974E-1
4.877292542E0,6.895363776E-2,-6.571925042E-2,-6.238218963E-2,1.138646636E-1
4.887291542E0,6.777772615E-2,-2.716704466E-1,2.983600259E-2,2.815827387E-1
4.897290542E0,5.980641805E-3,-2.980013357E-2,1.114186943E-2,3.237216847E-2
4.907289542E0,1.863791767E-2,-3.632926248E-2,9.060260653E-3,4.182434232E-2
4.917287542E0,-6.268937859E-2,-8.704974694E-2,-9.628610015E-3,1.077048131E-1
4.927286542E0,8.797072909E-2,-7.210567072E-3,-1.695107818E-2,8.987869884E-2
4.937285542E0,2.671044655E-2,9.808077509E-2,-1.039120388E-1,1.453650515E-1
4.947284542E0,7.405209918E-2,1.813828040E-1,-2.038047016E-2,1.969741063E-1
4.957283542E0,-7.968025438E-2,9.351177905E-2,8.785149157E-2,1.510340370E-1
4.967282542E0,1.825423068E-2,9.340515872E-2,1.898941755E-2,9.704812514E-2
4.977280542E0,9.480921225E-2,3.036112093E-1,-1.768122000E-1,3.639108506E-1
4.987279542E0,1.309886855E-1,1.825491408E-1,-1.286264652E-1,2.588957166E-1
4.997278542E0,-6.323471367E-3,1.541785966E-1,6.820894003E-2,1.687112487E-1
5.007277542E0,-1.669468508E-1,-1.081007648E-2,8.151544869E-2,1.860991056E-1
5.017276542E0,6.902087160E-2,2.431325076E-1,-6.580047190E-2,2.611646972E-1
5.027275542E0,1.965266540E-2,2.853713499E-2,-5.324357629E-2,6.352537876E-2
5.037273542E0,3.561977595E-3,1.027004957E-2,-2.226795137E-2,2.477949275E-2
5.047272542E0,-5.706775582E-2,-6.161039371E-2,-6.045611680E-2,1.034771058E-1
5.057271542E0,3.981929191E-2,-7.109284161E-2,-5.223142326E-2,9.678785932E-2
5.067270542E0,1.997075393E-2,-7.655297158E-2,6.990521729E-2,1.055742766E-1
5.077269542E0,-2.523664671E-2,-2.153327430E-1,6.392293096E-2,2.260336693E-1
5.087268542E0,6.812766373E-2,-1.923577171E-1,-6.554845691E-2,2.143349484E-1
5.097267542E0,1.085774134E-1,-1.443586547E-1,-6.448484838E-2,1.917987788E-1
5.107265542E0,2.022268670E-2,-1.802283443E-1,8.237089634E-2,1.991887992E-1
5.117264542E0,-2.635809699E-2,-1.406390947E-1,6.577298999E-2,1.574807621E-1
5.127263542E0,-1.250968848E-2,-1.204518019E-1,-4.663096011E-2,1.297673893E-1
5.137262542E0,1.061354700E-1,-7.126915343E-3,-7.116061449E-2,1.279818892E-1
5.147261542E0,-3.189688115E-2,-6.932873664E-2,1.882160246E-2,7.860112894E-2
5.157260542E0,-1.447193183E-2,-9.764046147E-3,3.035991311E-2,3.502138964E-2
5.167258542E0,2.730348213E-2,1.183949159E-1,-4.522528946E-2,1.296462998E-1
5.177257542E0,2.663264204E-2,1.012908234E-1,-1.055673856E-1,1.487064270E-1
5.187256542E0,1.570297903E-1,2.100858354E-1,-9.307013154E-3,2.624519647E-1
5.197255542E0,-2.407934021E-1,-7.110133834E-2,4.188360572E-2,2.545409578E-1
5.207254542E0,2.554092302E-1,3.516629880E-1,-1.057123965E-1,4.472983822E-1
5.217253542E0,-8.641184312E-2,4.606595462E-2,-4.899966717E-4,9.792506780E-2
5.227251542E0,2.080650194E-1,2.690331331E-1,2.464835286E-2,3.409947511E-1
5.237250542E0,-1.526252655E-1,-2.283447348E-2,1.576409340E-3,1.543320119E-1
5.247249542E0,-7.862449391E-3,1.941880601E-1,-9.798179269E-2,2.176493797E-1
5.257248542E0,1.677464210E-1,1.275223282E-1,-3.839281797E-3,2.107499609E-1
5.267247542E0,4.146954976E-5,2.112701342E-2,4.195435703E-2,4.697361482E-2
5.277246542E0,-5.795742796E-2,-2.776586898E-2,-1.598979592E-2,6.622447062E-2
5.287244542E0,-1.207669303E-2,-3.015434694E-2,-7.213534534E-2,7.911156174E-2
5.297243542E0,9.572664038E-2,-5.653802549E-2,-7.349248409E-2,1.332714644E-1
5.307242542E0,-3.510750504E-3,-1.921957492E-1,4.311561406E-2,1.970037755E-1
5.317241542E0,-1.863405302E-2,-1.719003378E-1,7.200670660E-2,1.873016814E-1
5.327240542E0,7.831943370E-3,-1.732553387E-1,8.248667121E-3,1.736283163E-1
5.337239542E0,6.995172093E-2,-1.939168224E-1,-6.410887241E-3,2.062476102E-1
5.347238542E0,2.913045379E-2,-1.861430405E-1,-9.539147615E-3,1.886499674E-1
5.357236542E0,1.351163629E-3,-1.462896612E-1,-4.170292675E-2,1.521237151E-1
5.367235542E0,6.080629192E-2,-8.098094009E-2,-6.607353687E-5,1.012685645E-1
5.377234542E0,6.058496567E-2,-7.980272613E-2,4.770450890E-2,1.109717682E-1
5.387233542E0,2.457954758E-2,-1.600642394E-2,2.735853732E-2,4.011046410E-2
5.397232542E0,3.115152561E-2,1.065120398E-1,-5.496090353E-2,1.238383345E-1
5.407231542E0,6.239390234E-3,8.952405106E-2,-8.788482070E-2,1.256074338E-1
5.417229542E0,2.445049770E-3,9.104553312E-2,-4.821497083E-2,1.030531454E-1
5.427228542E0,-3.239160128E-2,1.883318909E-1,3.872610927E-3,1.911363756E-1
5.437227542E0,-3.682737216E-2,2.116877533E-1,7.227158546E-4,2.148685238E-1
5.447226542E0,-3.975503650E-3,1.841490121E-1,-3.730874419E-2,1.879324497E-1
5.457225542E0,-7.787650712E-3,1.059969366E-1,-5.573916793E-2,1.200118866E-1
5.467224542E0,2.689150924E-2,1.975104480E-1,-4.931892514E-2,2.053433386E-1
5.477222542E0,4.777493130E-2,1.034381037E-1,-1.131202340E-2,1.144982412E-1
5.487221542E0,5.460556640E-2,6.173828328E-2,3.043417275E-2,8.786138159E-2
5.497220542E0,7.367595876E-2,4.390747324E-2,2.906884789E-2,9.055943365E-2
5.507219542E0,7.119451007E-2,-3.137851635E-2,1.871109009E-5,7.780276282E-2
5.517218542E0,4.625662867E-2,-6.245895261E-2,-4.608775377E-2,9.035971173E-2
5.527217542E0,2.436031354E-2,-1.263030923E-1,-2.558039904E-2,1.311497344E-1
5.537215542E0,-1.265239709E-2,-1.072392507E-1,-1.330826283E-3,1.079912549E-1
5.547214792E0,-6.006899457E-3,-1.102432943E-1,3.220646381E-2,1.150083609E-1
5.557213792E0,-5.104706059E-2,-1.440121889E-1,-1.170612574E-3,1.527962149E-1
5.567212792E0,-3.465342307E-2,-1.300531127E-1,-1.868068457E-2,1.358809767E-1
5.577211792E0,1.879751924E-2,-9.823064653E-2,-4.022650480E-2,1.077997140E-1
5.587210792E0,5.052025387E-2,-1.225043939E-1,-9.528622627E-3,1.328548728E-1
5.597208792E0,6.506883904E-2,-1.121255861E-1,2.117276788E-2,1.313559552E-1
5.607207792E0,8.747762608E-2,-4.355156053E-2,1.564656436E-2,9.896407664E-2
5.617206792E0,6.912923696E-2,3.125499392E-2,-2.310761154E-2,7.930755171E-2
5.627205792E0,1.655522168E-2,4.876481010E-2,-3.222575963E-2,6.075015763E-2
5.637204792E0,4.657828035E-3,5.883322209E-2,-3.820863068E-2,7.030606547E-2
5.647203792E0,-3.127445418E-2,1.319950096E-1,-2.847652495E-2,1.386062283E-1
5.657201792E0,-3.892597441E-2,1.393173498E-1,2.181069911E-2,1.462882840E-1
5.667200792E0,-3.709854593E-2,1.227701864E-1,-9.340342283E-3,1.285926233E-1
5.677199792E0,3.621107563E-3,1.259097392E-1,-6.025087953E-2,1.396300230E-1
5.687198792E0,3.972268495E-2,1.282715575E-1,-8.616047680E-2,1.595465823E-1
5.697197792E0,5.730409297E-2,8.100836718E-2,-3.348174155E-2,1.047241216E-1
5.707196792E0,8.030431674E-2,5.539842144E-2,4.377810359E-3,9.765722507E-2
5.717194792E0,6.701591617E-2,3.184592815E-2,-1.659322858E-2,7.603046360E-2
5.727193792E0,6.124153490E-2,-1.622671779E-2,-4.489609122E-2,7.764979700E-2
5.737192792E0,1.415714149E-2,-7.048389064E-2,-3.277890623E-2,7.901177247E-2
5.747191792E0,-3.363345852E-2,-9.465571370E-2,-2.397358418E-3,1.004821427E-1
5.757190792E0,-3.022857003E-2,-1.166531765E-1,4.785946012E-3,1.206011415E-1
5.767189792E0,-2.804512834E-2,-1.514521679E-1,-1.527351201E-2,1.547823263E-1
5.777188792E0,-4.085586620E-3,-1.454393846E-1,-1.736973882E-2,1.465299097E-1
5.787186792E0,-1.022040306E-2,-1.245352232E-1,-1.347198486E-3,1.249611676E-1
5.797185792E0,2.314099548E-3,-9.498217106E-2,1.572667122E-2,9.630314670E-2
5.807184792E0,4.063816706E-2,-7.713495227E-2,2.486703873E-2,9.066218119E-2
5.817183792E0,8.009698726E-2,-2.937701443E-2,-9.847295880E-3,8.588076375E-2
5.827182792E0,8.828103351E-2,6.296828164E-2,-4.830794156E-2,1.187105833E-1
5.837181792E0,9.270649868E-2,6.518337138E-2,-1.147808433E-3,1.133343914E-1
5.847179792E0,4.691069456E-2,1.245307465E-1,3.178721845E-2,1.368172041E-1
5.857178792E0,-5.302145518E-3,1.371932391E-1,1.666573405E-2,1.383034501E-1
5.867177792E0,-4.233951495E-2,1.824690705E-1,-6.043097377E-2,1.968235219E-1
5.877176792E0,6.242816336E-3,1.324847322E-1,-6.822706640E-2,1.491512977E-1
5.887175792E0,-2.288523462E-2,1.071230556E-1,-1.959109604E-2,1.112784527E-1
5.897174792E0,-3.273975729E-2,9.981854931E-2,-6.738916039E-3,1.052665544E-1
5.907172792E0,9.130573422E-3,1.938845896E-1,-1.604066670E-2,1.947611471E-1
5.917171792E0,4.012166605E-2,6.474457439E-2,-6.178168058E-3,7.641843862E-2
5.927170792E0,5.783547697E-2,-1.481231287E-2,-6.335458159E-3,6.003736369E-2
5.937169792E0,2.714169698E-2,-4.116156595E-2,-4.346937060E-2,6.573075693E-2
5.947168792E0,2.765634332E-2,-4.162523188E-2,-4.721860528E-2,6.875412671E-2
5.957167792E0,2.764836735E-2,-1.110184158E-1,2.013722599E-2,1.161681055E-1
5.967165792E0,-1.166042609E-2,-1.983373174E-1,3.375889957E-2,2.015274679E-1
5.977164792E0,5.122343637E-4,-1.727321042E-1,-1.039284110E-2,1.730452350E-1
5.987163792E0,2.132363518E-2,-1.534902697E-1,-4.570534587E-2,1.615640398E-1
5.997162792E0,4.936027592E-2,-1.698967711E-1,3.255144954E-3,1.769518173E-1
6.007161792E0,5.009942793E-2,-1.374195812E-1,2.736964703E-2,1.488058855E-1
6.017160792E0,7.716232454E-2,-7.084596120E-2,1.750831783E-2,1.062060061E-1
6.027158792E0,9.127341008E-2,-1.424288543E-2,-2.535937428E-3,9.241280296E-2
6.037157792E0,7.407291161E-2,-8.285230491E-3,-7.915960550E-3,7.495401063E-2
6.047156792E0,3.681737708E-2,7.303238131E-2,-1.958700299E-2,8.410052712E-2
6.057155792E0,8.740363140E-3,1.278284482E-1,-1.779190779E-2,1.293563222E-1
6.067154792E0,-1.303114135E-2,1.617913059E-1,-1.914261460E-2,1.634401328E-1
6.077153792E0,-4.318821089E-2,1.398209596E-1,-2.902850211E-2,1.491904026E-1
6.087151792E0,-7.182648445E-2,1.736429542E-1,-5.553217649E-2,1.959457630E-1
6.097150792E0,-7.870496621E-2,1.729116868E-1,-6.662551403E-2,2.013253145E-1
6.107149792E0,-6.529622264E-2,9.916709639E-2,-4.837810814E-2,1.282113530E-1
6.117148792E0,-2.301695229E-2,1.394985404E-1,-3.671876013E-2,1.460749473E-1
6.127147792E0,4.142370393E-2,5.081440536E-2,3.831680417E-3,6.567121755E-2
6.137146792E0,8.178259335E-2,1.610182492E-2,3.136680365E-2,8.905918096E-2
6.147144792E0,7.978331155E-2,-1.034080088E-1,1.340181828E-2,1.312943328E-1
6.157143792E0,1.148501876E-1,-7.698511736E-2,-2.911445618E-2,1.412972945E-1
6.167142792E0,8.373904430E-2,-5.979510734E-2,-2.402562439E-2,1.056641521E-1
6.177141792E0,5.400049835E-3,-1.331300455E-1,2.267842591E-2,1.351557641E-1
6.187140792E0,-3.163099729E-2,-1.385777867E-1,3.361096501E-2,1.460616990E-1
6.197139792E0,-5.006002318E-2,-6.742312906E-2,-5.303424597E-3,8.414279866E-2
6.207137792E0,-3.566271644E-2,-6.673816429E-2,-2.939687669E-2,8.117874276E-2
6.217136792E0,-5.989411714E-2,-7.549044114E-2,-1.756503582E-2,9.795224579E-2
6.227135792E0,-2.540845435E-2,3.520389274E-4,-2.564822674E-2,3.610463985E-2
6.237134792E0,3.908922136E-2,3.225492261E-2,-2.370110393E-2,5.594720356E-2
6.247133792E0,8.262144039E-2,2.476960950E-2,-2.130023718E-2,8.884557429E-2
6.257132792E0,7.761568476E-2,1.505696403E-2,-1.485835969E-2,8.044673728E-2
6.267130792E0,6.657557515E-2,4.349824123E-2,-2.581545711E-3,7.956801226E-2
6.277129792E0,3.058050846E-2,4.695639420E-2,-4.821614027E-3,5.624338553E-2
6.287128792E0,2.779533346E-2,1.031896519E-2,-2.337658346E-2,3.775614200E-2
6.297127792E0,-9.163016332E-3,-1.666803639E-3,-3.759350359E-2,3.872997050E-2
6.307126792E0,-2.573118411E-2,2.488962360E-2,2.467934310E-2,4.348168781E-2
6.317125792E0,-3.861624557E-2,2.184143353E-2,5.462293446E-2,7.036993399E-2
6.327123792E0,1.259481115E-2,2.091642229E-2,-1.587519050E-2,2.912297482E-2
6.337122792E0,-9.438593779E-3,2.207384208E-2,-5.733955085E-2,6.216241347E-2
6.347121792E0,4.616363967E-2,6.688151244E-2,-5.000714242E-2,9.541977063E-2
6.357120792E0,6.002852088E-2,7.604117576E-2,-8.689547181E-3,9.726865867E-2
6.367119792E0,7.791685291E-2,3.495818177E-2,1.331411004E-2,8.643133671E-2
6.377118792E0,5.753619089E-2,5.912656959E-2,9.719826579E-3,8.307129181E-2
6.387116792E0,2.696151137E-2,4.966756538E-2,1.884791493E-2,5.957376976E-2
6.397115792E0,1.958376875E-2,4.689552834E-2,-4.056798220E-3,5.098207713E-2
6.407114792E0,-2.758047570E-2,4.975085165E-3,-4.073053479E-2,4.944098074E-2
6.417113792E0,-6.354899238E-2,2.702595865E-2,-6.453396499E-2,9.451724452E-2
6.427112792E0,-6.798193102E-2,1.978953592E-2,-2.606220961E-2,7.544804468E-2
6.437111792E0,-3.815171169E-2,-4.031532766E-2,3.067040026E-2,6.341570942E-2
6.447109792E0,-3.137305286E-4,-3.422325986E-2,7.770364881E-3,3.509570504E-2
6.457108792E0,2.396632997E-2,-4.526521498E-2,-5.092340112E-3,5.147092954E-2
6.467107792E0,4.946443859E-2,-7.454821715E-2,3.189831555E-2,9.498247154E-2
6.477106792E0,5.118813381E-2,-6.646444151E-2,1.087073404E-1,1.373136296E-1
6.487105792E0,1.261735034E-2,-1.998081297E-2,2.807148832E-1,2.817077849E-1
6.497104792E0,5.858855266E-2,3.872084677E-2,4.356596661E-1,4.412836583E-1
6.507102792E0,1.003407513E-1,9.958223043E-2,5.409019464E-1,5.590704809E-1
6.517101792E0,9.727276297E-2,1.671529651E-1,6.275699615E-1,6.566933537E-1
6.527100792E0,2.375948472E-2,3.499887474E-1,6.796230447E-1,7.648163958E-1
6.537099792E0,-1.759674600E-1,5.426829718E-1,6.663744235E-1,8.772253001E-1
6.547097917E0,-1.984590308E-1,5.396444296E-1,7.338062686E-1,9.322412441E-1
6.557096917E0,1.850077305E-3,2.106242726E-1,9.529078710E-1,9.759095335E-1
6.567094917E0,2.554061239E-1,1.222250066E-1,1.147634186E0,1.182047150E0
6.577093917E0,6.129241116E-1,1.751342318E-1,1.233578900E0,1.388547755E0
6.587092917E0,4.183604593E-1,-1.722058548E-1,1.317165433E0,1.392697062E0
6.597091917E0,-1.279560819E-1,-2.276692352E-1,1.304790970E0,1.330671077E0
6.607090917E0,-7.674105824E-1,-3.400561552E-1,1.234451305E0,1.492791752E0
6.617089917E0,-7.897104742E-1,-1.581182312E-1,1.239110366E0,1.477849284E0
6.627087917E0,-1.103226702E-1,-4.424300840E-1,1.666816065E0,1.728059971E0
6.637086917E0,5.371420406E-1,-1.957040421E-1,1.957255452E0,2.039036672E0
6.647085917E0,3.893175950E-1,-2.126073376E-1,1.864626786E0,1.916664582E0
6.657084917E0,-3.215272790E-1,-3.625398689E-1,1.748923252E0,1.814813348E0
6.667083917E0,-2.205551837E-1,-7.528392479E-2,1.843400808E0,1.858073948E0
6.677082917E0,2.158151018E-1,-5.503839741E-1,1.985487564E0,2.071632096E0
6.687080917E0,3.959631383E-1,3.850956129E-2,1.992718815E0,2.032042832E0
6.697079917E0,2.080461256E-1,2.193994084E-2,2.026592905E0,2.037361861E0
6.707078917E0,1.904642608E-1,2.145027308E-2,1.894459864E0,1.904131016E0
6.717077917E0,-1.193684590E-1,1.531022521E-1,1.956012334E0,1.965622899E0
6.727076917E0,-1.376632548E-1,3.783862618E-1,1.957649555E0,1.998629309E0
6.737074917E0,6.932234125E-2,3.829227510E-1,1.906727323E0,1.946033017E0
6.747073917E0,-6.841728363E-2,4.742922199E-1,1.997923422E0,2.054588045E0
6.757072917E0,3.442871640E-2,2.818704392E-1,2.066724685E0,2.086141703E0
6.767071917E0,1.302100100E-1,-1.196983516E-2,2.197311137E0,2.201198345E0
6.777070917E0,8.039958067E-2,6.119167094E-1,2.004584570E0,2.097442598E0
6.787069917E0,2.278058225E-1,4.621207289E-1,2.190151221E0,2.249936317E0
6.797067917E0,-7.028867769E-1,4.444226689E-1,1.786089908E0,1.970197577E0
6.807066917E0,2.040140867E-1,2.872390237E-1,2.304614561E0,2.331389345E0
6.817065917E0,5.648143176E-1,-2.673488060E-1,2.299829784E0,2.383213720E0
6.827064917E0,-3.155445541E-1,-1.993092891E-2,2.161501619E0,2.184503343E0
6.837063917E0,-3.893184720E-1,1.294159855E-1,2.066982547E0,2.107304966E0
6.847062917E0,-3.443745433E-1,-2.290674141E-2,1.742998853E0,1.776840889E0
6.857060917E0,-4.191552055E-1,-5.645985553E-2,2.049088898E0,2.092282035E0
6.867059917E0,3.177015189E-2,-2.194748741E-1,2.197694129E0,2.208854465E0
6.877058917E0,2.144518052E-1,7.575177513E-3,1.927174451E0,1.939084404E0
6.887057917E0,2.843512849E-2,-2.073175077E-1,2.120540704E0,2.130840675E0
6.897056917E0,1.547744279E-1,2.334914174E-1,2.158078659E0,2.176184014E0
6.907055917E0,3.945666404E-1,-7.252804069E-2,1.869487576E0,1.912047841E0
6.917053917E0,3.336020717E-1,-3.101292650E-1,2.073018628E0,2.122469490E0
6.927052917E0,-5.236623812E-2,2.269372003E-2,2.007970693E0,2.008781603E0
6.937051917E0,-2.954682854E-1,4.358039461E-3,1.308478809E0,1.341431062E0
6.947050917E0,-2.602264040E-2,-3.445937042E-1,2.019183898E0,2.048542314E0
6.957049917E0,-4.448498628E-2,2.660046408E-2,1.995737148E0,1.996410094E0
6.967048917E0,3.020573665E-1,2.495046022E-1,1.341989787E0,1.398008507E0
6.977046917E0,4.671575204E-1,-3.040796991E-1,2.070342942E0,2.144066349E0
6.987045917E0,-1.124753958E-1,1.115904014E-1,2.140339376E0,2.146195652E0
6.997044917E0,4.747692430E-3,4.807642471E-1,7.595714396E-1,8.989469249E-1
7.007043917E0,-3.135019755E-1,-6.457849154E-1,1.925540155E0,2.055000373E0
7.017042917E0,-8.757269633E-1,3.600759984E-1,1.840346223E0,2.069644090E0
7.027041917E0,5.783730970E-1,1.056729497E0,4.505566174E-1,1.286154709E0
7.037039917E0,5.497081821E-1,-8.880692661E-1,2.026790541E0,2.280071491E0
7.047038917E0,-8.221734846E-1,3.174025069E-1,1.675673427E0,1.893302676E0
7.057037917E0,9.088087553E-1,4.974661242E-2,5.779078048E-1,1.078139838E0
7.067036917E0,-7.239718183E-2,-5.413506471E-1,1.441788894E0,1.541770764E0
7.077035917E0,-1.034065324E0,1.118125262E0,1.238676503E0,1.963113515E0
7.087034917E0,7.886126594E-1,-2.909079688E-1,4.933979970E-1,9.746686393E-1
7.097032917E0,-2.266225470E-1,2.102980894E-1,1.078546409E0,1.121982808E0
7.107031917E0,-2.688448527E-1,9.491988359E-1,1.446156764E0,1.750607144E0
7.117030917E0,7.442678875E-1,-6.893304460E-1,4.756592989E-1,1.120429793E0
7.127029917E0,-4.564066105E-1,6.757497760E-1,6.702370942E-1,1.055538970E0
7.137028917E0,-8.670549577E-1,-4.666520286E-2,1.158314125E0,1.447637231E0
7.147026917E0,4.902059289E-1,6.624895334E-4,-1.942538595E-1,5.272920003E-1
7.157025917E0,8.363291551E-1,-3.910722347E-1,7.129135823E-1,1.166460340E0
7.167024917E0,-4.673398805E-1,-1.343987999E-2,9.412286425E-1,1.050951260E0
7.177023917E0,9.062118606E-1,-2.006757103E-2,-1.905110568E-1,9.262381478E-1
7.187022917E0,-1.540122616E-1,-2.971220424E-1,-2.031936675E-1,3.915213294E-1
7.197021917E0,-1.050891272E0,-1.039796838E-1,7.003584409E-1,1.267156733E0
7.207019917E0,7.952737344E-1,-3.143374330E-1,-3.310237420E-1,9.169760369E-1
7.217018917E0,7.126952619E-1,4.095740676E-2,-4.984651941E-1,8.706776644E-1
7.227017917E0,-5.762550163E-1,-6.634202640E-1,7.754840523E-1,1.171994798E0
7.237016917E0,-4.146846072E-1,2.368544618E-1,-1.087913064E0,1.188115396E0
7.247015917E0,5.604368361E-1,-5.033246689E-2,-9.686105686E-1,1.120191608E0
7.257014917E0,-6.365020951E-1,-5.866990936E-1,2.692970252E-1,9.065713603E-1
7.267012917E0,5.369687803E-1,6.251493604E-1,-1.068671046E0,1.349520285E0
7.277011917E0,8.463206580E-1,-4.817071471E-1,-1.174170604E0,1.525443227E0
7.287010917E0,-7.137456411E-1,5.618037324E-1,-3.112303323E-1,9.601669613E-1
7.297009917E0,-7.704012139E-1,-3.063830818E-1,-1.413764943E0,1.638938662E0
7.307008917E0,3.449803148E-1,9.251724806E-1,-1.729578323E0,1.991581460E0
7.317007917E0,2.163545440E-1,-3.716719772E-1,-7.561847323E-1,8.699222360E-1
7.327005917E0,5.798990376E-1,-3.463067557E-1,-8.941100246E-1,1.120555219E0
7.337004917E0,4.320481699E-1,4.608939830E-3,-1.855740187E0,1.905376211E0
7.347003917E0,-3.765096711E-1,5.701918922E-1,-1.540336112E0,1.685085655E0
7.357002917E0,-1.440201521E0,7.410145698E-1,-1.692484757E0,2.342602755E0
7.367001917E0,2.222247465E-1,3.106567569E-1,-2.047140021E0,2.082468181E0
7.377000917E0,3.485472625E-1,4.806396648E-2,-1.753123307E0,1.788081840E0
7.386998917E0,2.924531321E-1,-1.190382558E-1,-1.351912512E0,1.388296215E0
7.396997917E0,3.438744967E-1,-1.817115271E-1,-2.178202436E0,2.212653294E0
7.406996917E0,-1.264012342E-1,5.269860848E-1,-2.506354026E0,2.564274187E0
7.416995917E0,-7.072504078E-1,2.548686734E-1,-2.122876666E0,2.252058285E0
7.426994917E0,1.654019251E-2,-1.441230850E-2,-2.293520638E0,2.293625560E0
7.436993917E0,5.108801120E-1,-2.646438475E-1,-2.253966563E0,2.326241631E0
7.446991917E0,-5.281947043E-2,-1.114985636E-1,-2.106024406E0,2.109635188E0
7.456990917E0,3.619475825E-2,6.924309321E-3,-2.247148125E0,2.247450267E0
7.466989917E0,1.258308018E-2,-2.268759873E-1,-2.320633593E0,2.331731399E0
7.476988917E0,-2.850813646E-1,-7.378709240E-2,-2.146128119E0,2.166236788E0
7.486987917E0,1.795914181E-1,2.809349578E-3,-2.391302456E0,2.398038450E0
7.496985917E0,5.515830187E-1,-7.634635656E-1,-2.169589487E0,2.365214364E0
7.506984917E0,8.907213438E-2,-1.705155892E-2,-2.383051450E0,2.384776471E0
7.516983917E0,-8.360872448E-2,-4.869942726E-1,-2.898446673E0,2.940263076E0
7.526982917E0,-5.970266651E-2,-1.855258852E-1,-2.831123001E0,2.837823410E0
7.536981917E0,7.974017920E-2,-3.876780722E-1,-2.791499344E0,2.819418623E0
7.546981958E0,4.857836797E-1,-2.223465513E-1,-3.119814071E0,3.165227260E0
7.556979958E0,-2.854631695E-2,-2.946388030E-1,-3.029767535E0,3.044194184E0
7.566978958E0,-3.332472919E-1,-2.037363257E-1,-3.505716271E0,3.527408230E0
7.576977958E0,3.780316282E-3,-3.119396726E-1,-3.794231340E0,3.807034556E0
7.586976958E0,1.089765133E-1,-1.301721401E-1,-3.504937422E0,3.509046451E0
7.596975958E0,3.153536426E-1,-1.465891665E-1,-4.041619433E0,4.056553209E0
7.606974958E0,1.398893629E-1,-2.957520581E-1,-4.206486940E0,4.219190763E0
7.616972958E0,-2.375112137E-1,2.296248364E-1,-4.203399026E0,4.216361288E0
7.626971958E0,-3.293313568E-2,-3.357515813E-1,-4.631716343E0,4.643986434E0
7.636970958E0,-2.554127568E-1,9.595152978E-3,-4.612469063E0,4.619545281E0
7.646969958E0,-1.134002426E-1,2.253873958E-1,-4.718919963E0,4.725660241E0
7.656968958E0,4.899193057E-1,-4.080752435E-1,-4.735983893E0,4.778712145E0
7.666967958E0,1.218388711E-1,3.050207902E-1,-4.570849752E0,4.582635688E0
7.676965958E0,1.308539346E-1,-3.688469315E-2,-4.579387856E0,4.581405502E0
7.686964958E0,-2.856219214E-1,3.860506094E-1,-4.672342213E0,4.696956111E0
7.696963958E0,-4.178284357E-1,-1.336062464E-1,-4.450343900E0,4.471911454E0
7.706962958E0,-8.970264696E-2,3.518181950E-2,-4.349298751E0,4.350365956E0
7.716961958E0,1.763692003E-1,4.360444129E-2,-4.018612978E0,4.022717702E0
7.726960958E0,3.776054393E-1,3.707811539E-1,-3.809324757E0,3.845909468E0
7.736958958E0,-1.531564850E-2,-1.689079156E-1,-3.614560436E0,3.618537218E0
7.746957958E0,-4.211030410E-2,1.992402919E-1,-3.603471192E0,3.609220775E0
7.756956958E0,-6.033913594E-1,-1.596048493E-1,-3.245248541E0,3.304722823E0
7.766955958E0,1.496994010E-1,-1.513461140E-1,-2.951034776E0,2.958702723E0
7.776954958E0,3.392768676E-1,-3.028375130E-1,-2.339482677E0,2.383274753E0
7.786953958E0,5.364339428E-1,3.003047733E-2,-2.221291153E0,2.285344086E0
7.796951958E0,8.561710602E-2,-1.309188661E-1,-1.997886584E0,2.004001208E0
7.806950958E0,-5.050044643E-1,-2.841269163E-1,-1.951896479E0,2.036088770E0
7.816949958E0,-2.896441662E-1,-1.778666905E-1,-1.875529504E0,1.906080067E0
7.826948958E0,1.888077994E-1,-1.787357877E-1,-1.418514052E0,1.442143191E0
7.836947958E0,5.694513423E-1,-2.049072854E-1,-1.325999406E0,1.457578901E0
7.846946958E0,-1.407658057E-1,-2.649109557E-1,-1.131289464E0,1.170388259E0
7.856944958E0,-3.649767325E-1,-1.492867429E-1,-1.163804076E0,1.228793910E0
7.866943958E0,4.206323401E-2,-2.661107129E-1,-8.112994176E-1,8.548631307E-1
7.876942958E0,4.014689496E-1,-2.772690825E-1,-6.677625525E-1,8.270201256E-1
7.886941958E0,2.871142039E-1,-2.994868940E-2,-7.267457557E-1,7.819788255E-1
7.896940958E0,1.003891645E-1,-1.914495714E-1,-5.688264942E-1,6.085182851E-1
7.906939958E0,-2.784188461E-1,-2.098010943E-1,-5.249957657E-1,6.302016400E-1
7.916937958E0,-1.632109916E-1,9.780805729E-2,-5.196151578E-1,5.533571687E-1
7.926936958E0,2.002622756E-1,-1.040071657E-1,-1.923804116E-1,2.965344707E-1
7.936935958E0,3.845881111E-1,4.661308955E-3,-1.938767141E-1,4.307179161E-1
7.946934958E0,-2.456144862E-2,1.230517298E-1,-3.791907656E-1,3.994128562E-1
7.956933958E0,-2.481844471E-1,8.462905448E-2,-3.601949161E-1,4.455311148E-1
7.966932958E0,-1.548229780E-1,2.663690320E-1,-3.564673162E-1,4.711598064E-1
7.976930958E0,4.206994917E-2,1.624707524E-1,-1.060363322E-1,1.985203510E-1
7.986929958E0,2.190460539E-1,1.548897277E-1,1.086324960E-1,2.894356935E-1
7.996928958E0,-3.541484931E-3,1.680382153E-1,1.944234288E-1,2.570016607E-1
8.006927958E0,-1.361304437E-1,1.693609469E-1,2.456251574E-1,3.279425955E-1
8.016926958E0,-6.484567640E-2,1.986456484E-1,1.663065076E-1,2.670634940E-1
8.026925958E0,4.788759984E-3,2.149502803E-1,3.151275015E-1,3.814864315E-1
8.036923958E0,1.349674051E-1,1.623936422E-1,2.810312176E-1,3.515201854E-1
8.046922958E0,1.029523737E-1,2.098876514E-1,1.849538630E-1,2.980938592E-1
8.056921958E0,-1.521830698E-1,2.144844034E-1,4.829039991E-2,2.673858799E-1
8.066920958E0,-1.361207501E-1,2.114995460E-1,-5.349676073E-2,2.571435785E-1
8.076919958E0,4.487016248E-2,7.158431835E-2,-6.633081436E-3,8.474458026E-2
8.086918958E0,1.386140668E-1,6.901452189E-2,2.200231236E-1,2.690483947E-1
8.096916958E0,1.464650959E-1,1.221364578E-2,4.134513563E-1,4.387974721E-1
8.106915958E0,6.374339403E-2,1.108253846E-2,3.456774491E-1,3.516801697E-1
8.116914958E0,-8.496778185E-2,-5.951522671E-2,2.895623052E-1,3.075839963E-1
8.126913958E0,-2.176233167E-1,-5.239446921E-2,9.077977717E-2,2.415492834E-1
8.136912958E0,-9.401170685E-2,-5.787488172E-2,6.699096501E-2,1.291336221E-1
8.146911958E0,1.669047691E-1,-1.900263774E-1,2.231373507E-1,3.372795626E-1
8.156909958E0,2.369126050E-1,-1.649862428E-1,4.354175913E-1,5.224332700E-1
8.166908958E0,7.708546107E-2,-1.442828967E-1,4.224022740E-1,4.529717471E-1
8.176907958E0,-1.401803989E-1,-2.628010427E-1,3.403605759E-1,4.522833779E-1
8.186906958E0,-1.468610255E-1,-1.356433067E-1,2.554578352E-1,3.243855315E-1
8.196905958E0,-4.986066054E-2,-2.003790006E-1,1.951093072E-1,2.840870837E-1
8.206904958E0,1.559948514E-1,-2.079444023E-1,2.941856986E-1,3.925818302E-1
8.216902958E0,2.592939741E-1,-1.418934869E-1,3.025431240E-1,4.229650913E-1
8.226901958E0,2.960693792E-2,-1.063979825E-1,1.984650242E-1,2.271243433E-1
8.236900958E0,-1.687950826E-1,-1.004224388E-1,1.900239837E-1,2.732865904E-1
8.246899958E0,-1.922970157E-1,-5.140977982E-2,2.238074416E-1,2.995177434E-1
8.256898958E0,5.603974222E-2,-5.637673371E-2,2.909703147E-1,3.016330766E-1
8.266897958E0,3.718179749E-1,-1.386184797E-2,3.253688997E-1,4.942728782E-1
8.276895958E0,1.614489332E-1,9.499238541E-2,1.048522711E-1,2.146702356E-1
8.286894958E0,-2.594342707E-1,-6.223582651E-2,4.525511026E-2,2.706057352E-1
8.296893958E0,-5.241421270E-2,2.241000216E-3,5.873060346E-2,7.874995592E-2
8.306892958E0,2.091192724E-1,6.033822231E-2,1.645763165E-1,2.728679811E-1
8.316891958E0,2.721586891E-1,2.715236815E-1,1.756573749E-1,4.226712375E-1
8.326890958E0,-1.245361917E-1,2.282989072E-1,9.536808729E-4,2.600587695E-1
8.336888958E0,-2.060220023E-1,3.073489505E-1,-9.487458229E-2,3.819811895E-1
8.346887958E0,-2.196538720E-1,2.350843452E-1,4.579246938E-2,3.249760346E-1
8.356886958E0,8.762569768E-2,3.001854352E-1,1.328756368E-1,3.397727083E-1
8.366885958E0,8.422381503E-2,2.131122812E-1,1.641477156E-1,2.818775761E-1
8.376884958E0,-1.797539159E-2,6.126314219E-2,3.148784101E-1,3.212860103E-1
8.386883958E0,-9.378367458E-3,8.570536243E-2,2.550152010E-1,2.691953113E-1
8.396881958E0,2.068917573E-1,1.091164445E-1,2.319947129E-1,3.294421718E-1
8.406880958E0,1.211604022E-1,1.221741175E-1,1.868273109E-1,2.539897678E-1
8.416879958E0,-2.737687382E-2,8.744405027E-2,1.480859989E-1,1.741419485E-1
8.426878958E0,-1.331623331E-1,1.487965818E-1,3.522947431E-2,2.027652474E-1
8.436877958E0,-1.729584280E-1,1.132779809E-1,2.564413369E-2,2.083366036E-1
8.446876958E0,-9.955001593E-2,-3.092299998E-2,7.878070593E-2,1.306630676E-1
8.456874958E0,2.815987081E-2,-7.546703400E-2,1.112573111E-1,1.373551631E-1
8.466873958E0,8.529190946E-2,-6.896257304E-2,2.197839725E-1,2.456329393E-1
8.476872958E0,1.088681571E-1,-1.190595981E-1,2.603554630E-1,3.062881497E-1
8.486871958E0,-7.041127553E-2,-2.100007950E-1,2.632036418E-1,3.439974399E-1
8.496870958E0,-6.462844321E-2,-1.675222534E-1,2.168130022E-1,2.815109571E-1
8.506869958E0,4.885159557E-2,-2.380029098E-1,2.243219966E-1,3.306844744E-1
8.516867958E0,1.885107974E-1,-2.340750244E-1,2.062406516E-1,3.645032841E-1
8.526866958E0,1.939263424E-1,-1.488410023E-1,1.901134461E-1,3.096840206E-1
8.536865958E0,-1.409405552E-2,-2.368776496E-1,2.718674612E-1,3.608622726E-1
8.546865042E0,-6.054175110E-2,-1.171598926E-1,2.905884916E-1,3.191134837E-1
8.556864042E0,-1.115787161E-1,-6.975167306E-2,4.009166801E-1,4.219588726E-1
8.566863042E0,1.103559902E-1,-1.160316175E-1,4.895341569E-1,5.150587070E-1
8.576861042E0,1.295626136E-1,2.597464755E-2,4.835419303E-1,5.012723327E-1
8.586860042E0,-5.346949808E-3,3.494440427E-2,3.971539968E-1,3.987242135E-1
8.596859042E0,-4.677175010E-2,2.823472431E-2,3.373972070E-1,3.417918542E-1
8.606858042E0,-9.761925618E-2,1.436495885E-1,3.235931003E-1,3.672563383E-1
8.616857042E0,1.085980614E-1,2.302930453E-1,4.439369845E-1,5.117699404E-1
8.626856042E0,1.825014494E-1,4.768033432E-2,6.448367894E-1,6.718591208E-1
8.636854042E0,5.669953655E-2,7.709773108E-3,6.520504993E-1,6.545564389E-1
8.646853042E0,-1.274259039E-2,9.789823232E-2,6.152615726E-1,6.231318000E-1
8.656852042E0,3.675587168E-3,1.729514114E-1,6.307198566E-1,6.540131789E-1
8.666851042E0,-2.197310552E-3,2.252299778E-1,6.261116660E-1,6.653940106E-1
8.676850042E0,3.836237591E-2,2.765380892E-1,6.285195494E-1,6.877367306E-1
8.686849042E0,-1.102546598E-1,3.339597751E-1,6.961730039E-1,7.799628663E-1
8.696847042E0,-1.391364882E-1,2.449009980E-1,8.195007223E-1,8.665546117E-1
8.706846042E0,7.100559932E-2,2.397813039E-1,8.380556917E-1,8.745708726E-1
8.716845042E0,8.473741069E-2,7.717672331E-2,8.168226975E-1,8.248248266E-1
8.726844042E0,5.530898645E-2,-1.984380540E-2,7.128171033E-1,7.152349847E-1
8.736843042E0,-5.769573765E-2,-7.694424167E-3,6.078730309E-1,6.106534402E-1
8.746842042E0,-1.584652818E-1,-4.620135786E-1,1.114774003E0,1.217082113E0
8.756840042E0,4.663722394E-1,1.435195574E0,9.625633782E-1,1.789921132E0
8.766839042E0,4.809450905E-2,2.112677770E-1,2.240559483E-1,3.116860975E-1
8.776838042E0,-2.625164112E-1,-8.538543568E-1,1.092511314E0,1.411227515E0
8.786837042E0,2.634783147E-1,9.166066021E-2,9.342909211E-1,9.750497547E-1
8.796836042E0,-2.526574574E-2,-4.085162332E-1,5.407224369E-1,6.781626829E-1
8.806835042E0,9.978533895E-2,-6.842571093E-1,1.136560729E0,1.330389114E0
8.816833042E0,-6.930132782E-2,2.169442174E-1,3.576227260E-1,4.239828789E-1
8.826832042E0,-9.761499685E-1,1.103674087E0,4.249089754E-1,1.533464342E0
8.836831042E0,-2.737665455E-2,-1.088139278E0,7.619366384E-1,1.328662489E0
8.846830042E0,8.628766836E-1,2.994316926E-1,1.151819038E0,1.470000886E0
8.856829042E0,-4.557406126E-1,-1.444806057E-1,1.543998808E0,1.616324989E0
8.866828042E0,4.756187338E-1,-2.347851504E-1,1.229472985E0,1.339007494E0
8.876826042E0,2.395220164E-1,-1.831183855E-1,7.692731398E-1,8.262471199E-1
8.886825042E0,-8.122388459E-1,-3.291278919E-1,1.565894292E0,1.794458705E0
8.896824042E0,4.413676449E-1,6.243406174E-1,9.066575646E-1,1.186016249E0
8.906823042E0,3.923899231E-2,-4.549969564E-1,1.367788287E0,1.442014815E0
8.916822042E0,6.969652651E-2,2.524353181E-1,1.150222748E0,1.179658241E0
8.926821042E0,5.473529236E-1,-1.833461711E-1,1.495415463E0,1.602959278E0
8.936819042E0,-1.247452662E-1,6.230496253E-1,1.166168690E0,1.328044288E0
8.946818042E0,1.770641784E-1,-3.395322813E-1,1.197202202E0,1.256951473E0
8.956817042E0,-8.581283242E-2,4.029191322E-1,1.124116684E0,1.197224285E0
8.966816042E0,-7.932879469E-1,1.557374643E-1,1.131029847E0,1.390247618E0
8.976815042E0,5.712520472E-2,4.946849692E-1,1.001967764E0,1.118890481E0
8.986814042E0,2.862981702E-1,-3.415689396E-2,1.861206749E0,1.883407523E0
8.996812042E0,4.159774996E-1,3.432785558E-1,1.794764838E0,1.874048630E0
9.006811042E0,2.786999327E-1,3.762356194E-1,1.436149839E0,1.510547336E0
9.016810042E0,-4.396630353E-1,-2.685986484E-1,1.652557629E0,1.731009976E0
9.026809042E0,-4.047107191E-1,4.136008623E-1,1.506859049E0,1.614150127E0
9.036808042E0,-6.146748411E-3,2.089331665E-1,1.817425722E0,1.829406217E0
9.046807042E0,3.820962471E-1,1.938258068E-1,2.018774593E0,2.063738560E0
9.056805042E0,-6.909525001E-2,-2.374594476E-1,1.855473554E0,1.871882275E0
9.066804042E0,-5.609075004E-2,-1.371027717E-2,1.509693779E0,1.510797620E0
9.076803042E0,-1.423070678E-1,-1.042529132E-1,1.381706999E0,1.392922899E0
9.086802042E0,2.124414959E-2,-8.406434136E-2,1.354330335E0,1.357103085E0
9.096801042E0,1.331114349E-1,-1.306021846E-1,1.445669691E0,1.457647571E0
9.106799042E0,4.005785831E-2,-1.624005675E-1,1.418003590E0,1.427834990E0
9.116798042E0,5.118878248E-2,-1.235350204E-1,1.323862249E0,1.330598529E0
9.126797042E0,-4.721790179E-2,5.380277110E-2,1.212622479E0,1.214733529E0
9.136796042E0,7.973665260E-3,-5.539304931E-3,1.207275200E0,1.207314240E0
9.146795042E0,3.183329451E-1,-3.225232426E-1,1.334388406E0,1.409237214E0
9.156794042E0,1.845898921E-1,3.824334852E-3,1.198633016E0,1.212769211E0
9.166793042E0,1.817750242E-1,1.248334860E-2,1.275455489E0,1.288403934E0
9.176791042E0,7.337490024E-2,-7.806036551E-2,1.278170936E0,1.282652813E0
9.186790042E0,-1.862517256E-1,1.284661784E-1,1.187008166E0,1.208379763E0
9.196789042E0,-6.727841048E-2,1.600863858E-1,1.351630091E0,1.362739131E0
9.206788042E0,-4.167124581E-1,-2.751165762E-1,1.314775091E0,1.406403905E0
9.216787042E0,-2.948589324E-1,2.817889985E-1,1.308348416E0,1.370446062E0
9.226786042E0,2.201985766E-1,6.716004090E-2,1.626153358E0,1.642367994E0
9.236784042E0,2.382071786E-1,-4.192263588E-2,1.703282810E0,1.720369872E0
9.246783042E0,4.108180627E-3,1.362918543E-1,1.800268822E0,1.805425207E0
9.256782042E0,-1.712057251E-1,2.695782215E-1,1.827206944E0,1.854904050E0
9.266781042E0,-4.515926709E-1,4.365190606E-1,1.607785499E0,1.726110959E0
9.276780042E0,-2.618247952E-2,2.281771572E-1,1.920672932E0,1.934356443E0
9.286778042E0,4.756079896E-1,-2.157554602E-1,2.400263899E0,2.456424264E0
9.296777042E0,2.651327661E-1,1.419328277E-1,2.014968640E0,2.037287150E0
9.306776042E0,-1.113384230E-1,2.895130241E-1,1.775014113E0,1.801912633E0
9.316775042E0,-3.156040130E-1,1.818489732E-1,1.717285722E0,1.755490015E0
9.326774042E0,-4.292968722E-1,2.189452077E-1,1.560380952E0,1.633101811E0
9.336773042E0,9.423126066E-3,2.408002725E-1,1.640105399E0,1.657715080E0
9.346772042E0,1.052700473E0,4.941628859E-1,1.939691586E0,2.261587649E0
9.356770042E0,1.260867563E0,-2.926762399E-1,1.739158986E0,2.167976101E0
9.366769042E0,5.172726536E-2,-1.724385557E-1,1.635839270E0,1.645715918E0
9.376768042E0,-1.656747306E0,3.264723424E-1,1.085980559E0,2.007672682E0
9.386767042E0,-5.050234312E-1,9.049012072E-2,1.213385541E0,1.317399559E0
9.396766042E0,5.638198706E-2,5.943283578E-2,1.278456280E0,1.281078316E0
9.406764042E0,1.021227981E0,-8.955204461E-2,1.834452229E0,2.101461667E0
9.416763042E0,8.816127706E-1,-6.779625817E-1,1.611464567E0,1.957981714E0
9.426762042E0,-9.513183054E-1,-3.505380568E-1,7.373409104E-1,1.253616794E0
9.436761042E0,-8.388509861E-1,-3.919087520E-1,1.271170650E0,1.572621463E0
9.446760042E0,-1.314240564E-1,3.999951955E-1,1.106102582E0,1.183524973E0
9.456759042E0,1.194016347E0,-6.439984448E-2,1.092564524E0,1.619728253E0
9.466757042E0,-6.507145202E-2,-5.394732524E-1,1.612620562E0,1.701708189E0
9.476756042E0,-8.022059740E-1,4.525386773E-1,9.555654305E-1,1.327189124E0
9.486755042E0,-2.211236792E-1,1.953376775E-1,4.815872061E-1,5.647820171E-1
9.496754042E0,-4.874956714E-1,-3.425191487E-1,1.359747196E0,1.484548360E0
9.506753042E0,1.374220023E-1,3.783839229E-1,1.532721868E0,1.584706763E0
9.516752042E0,9.535214632E-1,1.026432113E-1,8.146475333E-1,1.258328023E0
9.526750042E0,2.060200106E-1,-2.232958468E-1,1.210777098E0,1.248313447E0
9.536749042E0,-6.352917214E-1,-9.513456412E-3,1.413505327E0,1.549736554E0
9.546747292E0,3.499010392E-1,1.914480731E-2,8.005867338E-1,8.739201218E-1
9.556746292E0,3.287410621E-1,6.412783932E-2,1.064875619E0,1.116307820E0
9.566745292E0,-2.800250945E-1,4.137526341E-1,1.557697080E0,1.635856195E0
9.576744292E0,4.102889993E-1,3.838821329E-1,6.948866165E-1,8.936274194E-1
9.586742292E0,1.119671357E-1,1.412150637E-1,5.456662577E-1,5.746564178E-1
9.596741292E0,-4.418258473E-1,3.127898578E-1,1.274293647E0,1.384511421E0
9.606740292E0,-1.395332583E-1,4.553212941E-1,2.784929413E-1,5.516750215E-1
9.616739292E0,5.567411765E-1,2.394880843E-1,2.013804460E-1,6.386465096E-1
9.626738292E0,6.188939726E-3,6.642137311E-2,9.262053913E-1,9.286046137E-1
9.636737292E0,-9.149260757E-2,-2.156690858E-1,3.864699644E-1,4.519326114E-1
9.646735292E0,4.595062560E-1,-3.439207263E-1,9.646151662E-2,5.820071215E-1
9.656734292E0,-4.121057658E-1,2.227772536E-1,5.972176498E-1,7.590321391E-1
9.666733292E0,-1.866404193E-1,3.597651458E-1,3.784978706E-1,5.545504885E-1
9.676732292E0,2.144070009E-1,2.213378883E-1,-6.099172175E-2,3.141350235E-1
9.686731292E0,-6.986955841E-2,-2.789168279E-1,7.684276325E-1,8.204616861E-1
9.696730292E0,-1.294209374E-1,2.427849820E-1,3.350577360E-1,4.335412472E-1
9.706728292E0,9.838258278E-2,-4.373478669E-1,-2.254826689E-1,5.017915137E-1
9.716727292E0,-7.858318881E-2,-3.493246133E-1,2.042952830E-1,4.122372687E-1
9.726726292E0,-5.629620293E-1,1.521425413E-2,5.561813056E-2,5.659073214E-1
9.736725292E0,3.354319578E-1,-8.618472448E-2,-3.451026678E-1,4.889153878E-1
9.746724292E0,5.192142947E-1,-2.139789116E-1,7.987822831E-2,5.672309845E-1
9.756723292E0,-2.584439169E-1,-1.553964254E-1,1.955589581E-1,3.594226110E-1
9.766721292E0,-3.368815922E-1,-1.946410000E-1,-5.726798093E-1,6.923413104E-1
9.776720292E0,-8.302551040E-2,-3.241546523E-1,-2.944090623E-1,4.456973973E-1
9.786719292E0,2.037270432E-1,-1.414736020E-1,-1.763988018E-2,2.486577036E-1
9.796718292E0,5.289070413E-1,2.427034864E-2,-3.882773387E-1,6.565752051E-1
9.806717292E0,-5.671038131E-2,-3.233385637E-1,-5.629979897E-1,6.517136108E-1
9.816716292E0,-5.093310750E-1,2.160334222E-1,-4.958316082E-1,7.429250077E-1
9.826714292E0,7.788747065E-3,-1.774067339E-1,-5.225106990E-1,5.518616171E-1
9.836713292E0,6.219512989E-1,-2.287668124E-1,-5.397295797E-1,8.546728566E-1
9.846712292E0,1.764668305E-1,9.467256099E-2,-4.832922542E-1,5.231394069E-1
9.856711292E0,5.121084658E-2,-2.354696767E-1,-6.506530148E-1,6.938428245E-1
9.866710292E0,1.350010997E-1,-8.189919049E-2,-9.587433922E-1,9.716592337E-1
9.876708292E0,-3.312668765E-1,2.962788922E-1,-9.337781203E-1,1.034147235E0
9.886707292E0,-3.178349085E-2,-8.650694260E-2,-9.071680266E-1,9.118374141E-1
9.896706292E0,1.187269190E-1,1.362058819E-1,-1.106884940E0,1.121535730E0
9.906705292E0,1.198870979E-1,1.996843880E-1,-1.070842702E0,1.095879037E0
9.916704292E0,2.568259740E-2,4.347981519E-1,-1.101155838E0,1.184167728E0
9.926703292E0,-2.200892885E-1,4.416214141E-1,-1.511236859E0,1.589750173E0
9.936702292E0,1.942817434E-1,4.919331964E-1,-1.476569302E0,1.568438896E0
9.946700292E0,1.261317781E-1,4.396978263E-2,-1.491690202E0,1.497658915E0
9.956699292E0,4.437183718E-1,1.376690380E-3,-1.658580261E0,1.716908959E0
9.966698292E0,-1.951793276E-2,-9.010383904E-2,-1.913907119E0,1.916126330E0
9.976697292E0,-2.720251533E-1,3.617319664E-2,-1.978525284E0,1.997465515E0
9.986696292E0,-9.406302530E-2,9.029774733E-2,-2.072627449E0,2.076724844E0
9.996694292E0,4.172075163E-2,4.504373342E-2,-2.139491529E0,2.140372296E0
1.000669329E1,5.868113967E-2,4.119610472E-1,-2.275228209E0,2.312967527E0
1.001669229E1,-2.471858523E-1,3.966844289E-2,-2.469951600E0,2.482606561E0
1.002669129E1,8.280169909E-2,1.733050765E-1,-2.540290681E0,2.547541464E0
1.003669029E1,1.897262508E-2,3.447280806E-3,-2.735774209E0,2.735842168E0
1.004668929E1,-1.760367861E-1,-1.368399759E-1,-2.959986863E0,2.968372679E0
1.005668729E1,1.602268834E-1,-8.518612968E-2,-3.037500477E0,3.042916115E0
1.006668629E1,-8.166733012E-4,-3.367821530E-1,-3.291200640E0,3.308386999E0
1.007668529E1,-4.437765881E-1,-3.461222029E-1,-3.492799187E0,3.537850251E0
1.008668429E1,1.857281257E-2,-3.242534702E-1,-3.595008516E0,3.609649775E0
1.009668329E1,2.916346315E-1,-2.617805757E-1,-3.738088129E0,3.758574556E0
1.010668229E1,2.809104360E-1,-1.469792306E-1,-3.849310942E0,3.862344922E0
1.011668029E1,-1.405680145E-1,-6.363697287E-1,-4.047996991E0,4.100122612E0
1.012667929E1,-1.944434920E-1,1.376330411E-2,-4.170644678E0,4.175197568E0
1.013667829E1,2.832303188E-1,-5.420863000E-1,-4.031461650E0,4.077592427E0
1.014667729E1,4.028002875E-1,-3.004188671E-1,-4.085672940E0,4.116457572E0
1.015667629E1,-5.923640588E-2,-4.537986426E-1,-4.276096289E0,4.300516437E0
1.016667529E1,1.160447281E-1,-3.758072377E-1,-4.126122224E0,4.144825939E0
1.017667329E1,1.969255985E-1,-2.293714145E-1,-4.094996325E0,4.106140017E0
1.018667229E1,8.217488671E-2,-2.697837876E-1,-4.094859501E0,4.104559700E0
1.019667129E1,1.742161458E-1,-1.121318718E-1,-4.134536367E0,4.139724120E0
1.020667029E1,6.810323333E-2,-3.076260354E-1,-4.017664559E0,4.030000042E0
1.021666929E1,1.509984696E-1,2.129472618E-1,-4.015159612E0,4.023636885E0
1.022666829E1,-9.991574099E-2,-1.543719750E-1,-3.749526452E0,3.754032829E0
1.023666629E1,-8.614625162E-2,8.209876327E-2,-3.575813861E0,3.577793476E0
1.024666529E1,-6.070579290E-3,1.447886809E-1,-3.322777943E0,3.325936541E0
1.025666429E1,-9.035474855E-2,1.025907691E-1,-3.022891209E0,3.025980851E0
1.026666329E1,6.323350769E-2,2.041537438E-1,-2.902288293E0,2.910146829E0
1.027666229E1,1.522406101E-1,-1.023648838E-1,-2.377176168E0,2.384244599E0
1.028666029E1,1.875899706E-1,-3.901505308E-1,-2.164126434E0,2.207000375E0
1.029665929E1,7.291397519E-2,-3.276794270E-2,-2.142535005E0,2.144025754E0
1.030665829E1,-4.829292883E-1,1.888155470E-1,-1.997174978E0,2.063390390E0
1.031665729E1,-3.237840850E-1,3.408882506E-1,-2.003587035E0,2.058009218E0
1.032665629E1,1.451447489E-1,7.152568175E-2,-1.749405647E0,1.756873086E0
1.033665529E1,3.673761740E-1,4.795546774E-1,-1.442970616E0,1.564321623E0
1.034665329E1,8.685269577E-2,-7.488392042E-2,-1.295210892E0,1.300277758E0
1.035665229E1,5.074330688E-2,3.070461378E-1,-1.381875399E0,1.416485733E0
1.036665129E1,-3.873311862E-1,6.088018611E-2,-1.103007066E0,1.170622242E0
1.037665029E1,-5.329128957E-1,-8.143495811E-2,-1.022440036E0,1.155859608E0
1.038664929E1,3.213257328E-1,-3.870573172E-1,-7.333285511E-1,8.892886804E-1
1.039664829E1,3.931121821E-1,3.546683472E-2,-5.804355562E-1,7.019262917E-1
1.040664629E1,5.472943601E-2,1.316553595E-1,-6.041822684E-1,6.207774628E-1
1.041664529E1,1.118916883E-1,-6.856145404E-2,-8.456056166E-1,8.557273407E-1
1.042664429E1,-5.539791711E-1,-9.880785808E-2,-9.307855153E-1,1.087666121E0
1.043664329E1,-3.317977306E-1,-2.665049432E-2,-7.165821254E-1,7.901201968E-1
1.044664229E1,4.972163019E-1,-1.168255598E-1,-5.565683913E-1,7.554075963E-1
1.045664129E1,5.151573137E-1,-3.127131131E-2,-3.455125576E-1,6.210828288E-1
1.046663929E1,9.665198053E-2,-5.588268053E-2,-2.311673319E-1,2.567154352E-1
1.047663829E1,-2.273441665E-1,-1.665267101E-1,-2.739964324E-1,3.930528720E-1
1.048663729E1,-1.553927527E-1,-2.220272385E-1,-9.182642877E-2,2.861382450E-1
1.049663629E1,2.899848031E-2,-2.648306478E-1,2.242290258E-2,2.673555132E-1
1.050663529E1,5.619450158E-1,-2.996676460E-1,1.152877969E-1,6.472048941E-1
1.051663429E1,4.689067881E-1,-3.220626282E-2,2.916591167E-3,4.700205589E-1
1.052663229E1,-1.920356086E-1,-1.754880980E-2,-9.615921557E-2,2.154813923E-1
1.053663129E1,-2.661734061E-1,-7.416299528E-2,-1.365786785E-1,3.082242161E-1
1.054663029E1,-1.961130366E-1,-8.611848649E-2,1.893503845E-2,2.150238417E-1
1.055662958E1,2.266438894E-1,1.558821646E-1,4.662511289E-2,2.789992885E-1
1.056662858E1,2.922474563E-1,-7.913850071E-2,6.965904951E-2,3.106828949E-1
1.057662658E1,2.667298783E-3,1.543999137E-1,-2.170018673E-2,1.559401999E-1
1.058662558E1,-2.528330201E-1,2.184625566E-1,1.926716030E-2,3.346963522E-1
1.059662458E1,-2.478613336E-1,1.695705330E-2,2.464665717E-1,3.499550733E-1
1.060662358E1,5.896158675E-3,-6.132791838E-2,4.063423115E-1,4.109865598E-1
1.061662258E1,2.595954712E-1,5.184854027E-3,4.939587450E-1,5.580429492E-1
1.062662158E1,1.373804688E-1,-1.875357376E-2,5.261909366E-1,5.441525443E-1
1.063661958E1,-1.371481059E-1,1.741974347E-1,3.983924371E-1,4.559285944E-1
1.064661858E1,-2.189525898E-1,2.046541741E-1,4.701114607E-1,5.575198230E-1
1.065661758E1,-1.623276601E-1,2.720334673E-1,5.322410506E-1,6.193811528E-1
1.066661658E1,-6.586214175E-2,3.058720535E-1,4.871941012E-1,5.790109041E-1
1.067661558E1,9.828023823E-2,1.703890701E-1,4.104178208E-1,4.551200150E-1
1.068661458E1,1.625095816E-1,1.443664023E-1,3.001241308E-1,3.705745757E-1
1.069661258E1,1.009170219E-1,1.133736743E-2,2.730585390E-1,2.913309921E-1
1.070661158E1,-7.780177239E-2,7.709040379E-2,1.620029569E-1,1.955530725E-1
1.071661058E1,-1.031093805E-1,9.601838904E-2,3.453657925E-1,3.729994719E-1
1.072660958E1,-1.538316192E-1,1.999329860E-1,4.182560134E-1,4.884418683E-1
1.073660858E1,1.251520314E-1,8.737561958E-2,4.616534632E-1,4.862318891E-1
1.074660758E1,2.392732539E-1,7.859604355E-2,3.649498719E-1,4.434156482E-1
1.075660558E1,1.234765300E-1,3.832301684E-3,3.025138879E-1,3.267656536E-1
1.076660458E1,3.885857611E-2,-3.833675779E-2,2.571406639E-1,2.628707229E-1
1.077660358E1,-1.645068442E-3,-1.410824963E-1,3.846625900E-1,4.097222049E-1
1.078660258E1,-3.559538210E-2,-1.217493539E-1,4.415384567E-1,4.593975894E-1
1.079660158E1,4.522472301E-2,-1.728130151E-1,3.884007150E-1,4.275099170E-1
1.080660058E1,2.717957963E-1,-1.236025741E-1,3.616064340E-1,4.689453745E-1
1.081659858E1,1.757056509E-1,-8.362327857E-2,3.403529745E-1,3.920528992E-1
1.082659758E1,2.827782012E-2,-1.441591185E-1,3.806110543E-1,4.079782607E-1
1.083659658E1,-9.800201126E-2,-1.564165088E-1,4.052722710E-1,4.453269946E-1
1.084659558E1,-2.222925194E-1,-3.680977570E-2,4.431078494E-1,4.971051095E-1
1.085659458E1,3.187256953E-2,-1.397409075E-1,5.167237097E-1,5.362338800E-1
1.086659258E1,1.768930377E-1,-1.021635386E-1,4.893014377E-1,5.302305464E-1
1.087659158E1,9.145586148E-2,-5.854246929E-2,3.904840779E-1,4.053013822E-1
1.088659058E1,-1.030789659E-1,-1.717370178E-1,2.045490521E-1,2.862851571E-1
1.089658958E1,-2.683492829E-1,-1.012217532E-1,4.108078301E-2,2.897323104E-1
1.090658858E1,5.930629838E-3,-4.187728342E-2,3.449038625E-2,5.457532391E-2
1.091658758E1,1.796091425E-1,6.360277763E-2,9.720645189E-2,2.139014999E-1
1.092658558E1,4.991171404E-2,1.327275744E-1,1.947859561E-1,2.409343415E-1
1.093658458E1,-1.476876482E-1,2.136838830E-1,2.579230213E-1,3.660556354E-1
1.094658358E1,-2.573444028E-1,2.070865610E-1,3.044411302E-1,4.492164146E-1
1.095658258E1,-7.002700383E-2,1.878593628E-1,3.593523324E-1,4.114960756E-1
1.096658158E1,2.341612708E-1,1.256206675E-1,2.893003500E-1,3.928189727E-1
1.097658058E1,1.671612426E-1,6.546054767E-2,2.271953183E-1,2.895611801E-1
1.098657858E1,5.268615391E-3,6.840292141E-2,1.396437889E-1,1.555863289E-1
1.099657758E1,-1.074222411E-1,9.602918811E-2,2.363567358E-1,2.768133838E-1
1.100657658E1,2.928877629E-2,1.983645983E-1,4.275279433E-1,4.722144519E-1
1.101657558E1,1.626489828E-1,2.474900537E-1,5.362218350E-1,6.125682612E-1
1.102657458E1,1.684586484E-1,2.073218931E-1,5.955120170E-1,6.526831130E-1
1.103657358E1,-6.366031788E-2,1.813740697E-1,6.416067874E-1,6.697823967E-1
1.104657158E1,-6.901175360E-2,1.166808594E-1,6.370950758E-1,6.513579513E-1
1.105657058E1,-3.625300200E-2,8.447625943E-2,6.414202613E-1,6.479741277E-1
1.106656958E1,6.436505355E-2,1.494126225E-2,7.258452845E-1,7.288466769E-1
1.107656858E1,2.295689955E-1,-2.295185633E-2,7.499592018E-1,7.846448342E-1
1.108656758E1,6.588894758E-2,-7.763898226E-2,7.808132046E-1,7.874251873E-1
1.109656558E1,6.473324541E-3,-8.470612809E-2,8.383153081E-1,8.426087988E-1
1.110656458E1,-4.415534036E-2,-6.460773127E-2,9.023937750E-1,9.057805353E-1
1.111656358E1,-1.390536770E-1,-7.118608642E-2,9.330881488E-1,9.460744566E-1
1.112656258E1,-5.395509107E-2,-2.521745140E-2,9.949166071E-1,9.966976105E-1
1.113656158E1,2.161444279E-2,-7.013863083E-2,9.612465852E-1,9.640444022E-1
1.114656058E1,2.132000808E-2,-7.708477585E-2,9.569015193E-1,9.602380554E-1
1.115655858E1,-6.311336568E-2,-1.818619102E-1,9.856598800E-1,1.004282057E0
1.116655758E1,2.847557478E-2,-4.303104870E-1,1.548302944E0,1.607239864E0
1.117655658E1,5.506782717E-1,9.349686134E-1,1.219739710E0,1.632537236E0
1.118655558E1,-1.882520216E-1,-9.099473543E-3,9.782830328E-1,9.962727118E-1
1.119655458E1,-5.471945737E-1,-5.815993348E-1,1.094508138E0,1.354853406E0
1.120655258E1,-4.242185654E-1,9.627192065E-1,1.287706575E0,1.662822265E0
1.121655158E1,5.370515184E-1,-1.223172099E-1,2.006691906E0,2.080912838E0
1.122655058E1,7.397129796E-1,1.595458838E-1,2.125486279E0,2.256174218E0
1.123654958E1,-3.776243331E-1,6.956479970E-2,1.612075601E0,1.657174445E0
1.124654858E1,-7.673637316E-1,5.706044863E-1,9.758079064E-1,1.366249482E0
1.125654758E1,-4.373090194E-1,6.973683575E-2,2.049466043E0,2.096762616E0
1.126654558E1,1.229923806E0,1.731976522E-1,2.167190375E0,2.497883927E0
1.127654458E1,6.215802931E-1,-2.299409150E-1,2.301102723E0,2.394641649E0
1.128654358E1,5.441552276E-2,5.795328923E-2,2.410563769E0,2.411874234E0
1.129654258E1,-5.496524143E-1,3.152074622E-1,1.877462009E0,1.981498704E0
1.130654158E1,-7.316772243E-1,2.505735098E-1,2.201365596E0,2.333270051E0
1.131654058E1,4.691034373E-1,-2.896316313E-1,2.605194774E0,2.662890221E0
1.132653858E1,9.920627274E-1,3.657303656E-1,2.243396552E0,2.480075653E0
1.133653758E1,-6.515702236E-1,-6.588576816E-1,2.278985045E0,2.460164636E0
1.134653658E1,-3.644051672E-1,2.962009963E-1,1.923473164E0,1.979968477E0
1.135653558E1,1.696588990E-1,-5.558776159E-1,1.914684214E0,2.000949701E0
1.136653458E1,-2.354414273E-1,3.567258362E-3,1.818391682E0,1.833574024E0
1.137653358E1,1.546004549E-1,1.969769992E-1,1.611497896E0,1.630836199E0
1.138653158E1,-1.181019704E-2,-2.647545061E-1,1.693952408E0,1.714558016E0
1.139653058E1,-2.315882949E-1,1.100690838E-2,1.617573153E0,1.634104402E0
1.140652958E1,-2.671179872E-2,-3.043658473E-4,1.622710517E0,1.622930385E0
1.141652858E1,3.139993909E-1,-2.140904107E-1,1.950380296E0,1.987061554E0
1.142652758E1,2.994123054E-1,2.072924561E-1,1.917189746E0,1.951469808E0
1.143652558E1,4.869492673E-2,6.985257408E-2,1.900995882E0,1.902901974E0
1.144652458E1,-4.742314454E-1,8.258165192E-2,1.819818987E0,1.882407060E0
1.145652358E1,-3.312077465E-1,2.673369472E-1,1.728094300E0,1.779740859E0
1.146652258E1,6.171003757E-1,-8.084853720E-3,2.290575981E0,2.372259801E0
1.147652158E1,3.369278949E-1,6.821124237E-3,2.244387655E0,2.269546844E0
1.148652058E1,-2.296608151E-2,2.722934491E-1,1.923808209E0,1.943118419E0
1.149651858E1,-2.569936978E-1,-1.681036676E-1,2.044264945E0,2.067201918E0
1.150651758E1,-6.805550909E-1,5.942248987E-1,1.774880796E0,1.991597425E0
1.151651658E1,6.569349526E-2,4.997895154E-1,1.896687654E0,1.962531337E0
1.152651558E1,3.482420379E-1,-5.667204002E-1,2.098815958E0,2.201697744E0
1.153651458E1,4.552547455E-1,4.708748878E-1,2.161153709E0,2.258221734E0
1.154651258E1,6.314829183E-1,4.866385426E-1,1.907624871E0,2.067515512E0
1.155651142E1,1.660243429E-1,-7.786414757E-1,2.023269932E0,2.174274097E0
1.156651042E1,-9.868924731E-1,4.893659033E-1,1.720619804E0,2.043029185E0
1.157650942E1,-1.010797352E0,7.973008910E-1,1.317384118E0,1.841982876E0
1.158650842E1,3.381514248E-1,-1.299916804E-1,1.622981243E0,1.662922830E0
1.159650742E1,6.401712960E-1,3.345480050E-1,2.135927652E0,2.254756880E0
1.160650542E1,4.766582226E-1,-1.246131556E-1,1.972302677E0,2.032906626E0
1.161650442E1,-3.917360399E-1,-5.696914436E-1,1.058944203E0,1.264661335E0
1.162650342E1,-5.887079776E-1,-5.088961152E-1,1.608541544E0,1.786885066E0
1.163650242E1,-2.358144614E-1,-2.610433149E-1,1.732594317E0,1.767946589E0
1.164650142E1,1.142969058E0,3.054704777E-1,1.332282824E0,1.781759805E0
1.165650042E1,4.337070980E-1,1.753744427E-3,1.643472810E0,1.699737568E0
1.166649842E1,-1.219200378E0,3.584949113E-1,1.369483395E0,1.868275389E0
1.167649742E1,-6.872040695E-2,-6.075275335E-3,1.085384143E0,1.087574430E0
1.168649642E1,1.757776082E-1,2.591543536E-1,1.177385988E0,1.218317082E0
1.169649542E1,-2.621663092E-2,2.677757990E-2,2.042763380E0,2.043107089E0
1.170649442E1,6.773231155E-1,-6.616159594E-1,1.608113528E0,1.866154173E0
1.171649242E1,1.684222860E-1,-4.200324706E-1,8.416505599E-1,9.555987692E-1
1.172649142E1,-4.901808955E-1,-1.003567490E-1,1.765727565E0,1.835250016E0
1.173649042E1,-5.215796030E-1,4.931779224E-1,1.258147146E0,1.448517859E0
1.174648942E1,9.959366539E-1,2.198659249E-1,8.542068708E-1,1.330375970E0
1.175648842E1,2.536883947E-1,-1.648466406E-1,1.726018538E0,1.752333362E0
1.176648742E1,-7.828062281E-1,5.355900068E-1,1.284221635E0,1.596517289E0
1.177648542E1,1.252320652E-1,2.208012418E-1,2.111528975E-1,3.301845009E-1
1.178648442E1,-3.610416295E-1,2.325340820E-2,8.607271010E-1,9.336717419E-1
1.179648342E1,-2.251994809E-1,5.970357649E-1,1.441794156E0,1.576685416E0
1.180648242E1,7.675460185E-1,-4.643591892E-1,5.551557040E-1,1.054966446E0
1.181648142E1,4.713410570E-1,-3.445065076E-1,7.009039861E-1,9.122025672E-1
1.182648042E1,-4.587557659E-1,1.337321808E-1,1.179075834E0,1.272226776E0
1.183647842E1,-1.942128559E-1,6.734274812E-2,3.974247229E-1,4.474372464E-1
1.184647742E1,3.696953990E-1,-5.674234914E-2,3.482373601E-1,5.110417216E-1
1.185647642E1,-2.917579347E-1,5.311854820E-1,1.120952756E0,1.274290308E0
1.186647542E1,3.339913501E-1,-3.764662189E-2,6.019696820E-1,6.894454207E-1
1.187647442E1,1.365326956E-1,-1.502314154E-3,1.081097549E-1,1.741584136E-1
1.188647242E1,-9.412112470E-1,3.510676318E-1,7.707361132E-1,1.266160041E0
1.189647142E1,-1.074008257E-1,-1.331890841E-1,6.091722822E-1,6.327441338E-1
1.190647042E1,1.140338030E0,-2.929405706E-2,-6.262309492E-2,1.142431887E0
1.191646942E1,-8.896682055E-2,-2.665094565E-1,7.328636974E-1,7.848767958E-1
1.192646842E1,-6.029896191E-1,-1.123666010E-1,4.678947812E-1,7.714585278E-1
1.193646742E1,1.945843368E-1,-2.707602361E-1,-3.410084474E-1,4.769286433E-1
1.194646542E1,2.624283741E-1,-5.674181923E-2,2.757447499E-1,3.848680977E-1
1.195646442E1,-4.432865549E-3,6.265485261E-2,5.086159605E-1,5.124797324E-1
1.196646342E1,2.923690784E-1,-2.684159046E-1,-5.543721771E-1,6.818029676E-1
1.197646242E1,-1.791836296E-1,-2.583835078E-1,-2.698308760E-1,4.143398507E-1
1.198646142E1,-1.692673731E-1,-7.743675996E-2,1.601926589E-1,2.455800956E-1
1.199645942E1,8.556698442E-2,-3.971099965E-1,-6.210006148E-1,7.420645671E-1
1.200645842E1,5.472360159E-1,-5.122171144E-1,-2.210048711E-1,7.814581130E-1
1.201645742E1,-3.475317474E-1,2.418358144E-1,-9.223631859E-2,4.333248378E-1
1.202645642E1,4.492396782E-1,9.376224088E-2,-4.175175101E-1,6.204260774E-1
1.203645542E1,1.665981375E-1,-7.363983393E-3,-6.033151263E-1,6.259379436E-1
1.204645442E1,-8.212284283E-1,5.549367258E-1,-3.052509695E-1,1.037086812E0
1.205645242E1,-4.568025400E-1,6.689753381E-1,-9.113505399E-1,1.219326195E0
1.206645142E1,2.127198782E-1,4.541539706E-1,-1.003782156E0,1.122089208E0
1.207645042E1,5.904994183E-1,-5.419098968E-2,-4.490398496E-1,7.438165183E-1
1.208644942E1,3.493466500E-1,-3.123497451E-1,-1.036696717E0,1.137693073E0
1.209644842E1,-1.522017444E-2,-2.830322261E-1,-1.456220992E0,1.483549282E0
1.210644642E1,-2.300081032E-1,1.166624955E-1,-1.442857180E0,1.465725318E0
1.211644542E1,-3.783842153E-1,1.120894613E-1,-1.555221369E0,1.604509947E0
1.212644442E1,3.040201306E-1,3.297356004E-1,-1.376929824E0,1.448133124E0
1.213644342E1,-3.880376760E-3,6.162906826E-1,-1.634692047E0,1.747010976E0
1.214644242E1,3.976928908E-4,1.959577382E-1,-1.603700050E0,1.615627879E0
1.215644142E1,-7.540821467E-2,-7.355720546E-2,-1.665991023E0,1.669318169E0
1.216643942E1,6.456998932E-2,4.980236562E-1,-2.003991662E0,2.065957267E0
1.217643842E1,2.847256711E-1,-4.508343967E-2,-1.968504326E0,1.989500064E0
1.218643742E1,-1.885776384E-1,-1.525049773E-1,-2.259768755E0,2.272745943E0
1.219643642E1,-4.890508845E-1,-4.279833683E-1,-2.536197630E0,2.618136541E0
1.220643542E1,4.732517079E-3,-2.659727369E-1,-2.588226154E0,2.601860588E0
1.221643442E1,6.151347611E-1,1.095357812E-1,-2.593990924E0,2.668178738E0
1.222643242E1,2.471660266E-1,-2.274431855E-1,-2.729251640E0,2.749842898E0
1.223643142E1,-1.267455073E-1,-1.996578197E-1,-3.006815459E0,3.016101270E0
1.224643042E1,-6.300654801E-1,-1.338186465E-2,-3.534389262E0,3.590134961E0
1.225642942E1,-2.435664806E-1,-2.995027911E-1,-3.393712270E0,3.415597975E0
1.226642842E1,9.869852977E-1,-3.650121082E-1,-3.378769126E0,3.538849336E0
1.227642642E1,1.346427385E-1,-2.525470912E-1,-3.960489315E0,3.970816581E0
1.228642542E1,-3.944885436E-1,-4.690773075E-1,-4.188323734E0,4.232931660E0
1.229642442E1,3.482033001E-1,-4.431278395E-1,-4.341005645E0,4.377435074E0
1.230642342E1,1.549584873E-1,-4.337759855E-1,-4.466910231E0,4.490596926E0
1.231642242E1,-1.522372022E-1,3.882428767E-2,-4.541901357E0,4.544617852E0
1.232642142E1,4.752641002E-1,-5.345118899E-1,-4.509689046E0,4.566056747E0
1.233641942E1,2.664676855E-1,-3.075319684E-1,-4.499530093E0,4.517892429E0
1.234641842E1,-2.608531159E-1,1.663370410E-1,-4.737424062E0,4.747515045E0
1.235641742E1,-1.468050841E-1,-3.278106970E-1,-4.731042411E0,4.744657404E0
1.236641642E1,-1.593709789E-1,-1.271811066E-1,-4.582178732E0,4.586712993E0
1.237641542E1,1.143936114E-1,2.067235768E-1,-4.670250664E0,4.676223027E0
1.238641342E1,1.078487041E-1,-4.185590819E-1,-4.347577915E0,4.369010961E0
1.239641242E1,3.734024607E-1,2.356168620E-1,-4.379806014E0,4.402004705E0
1.240641142E1,-2.212645606E-1,-7.159467889E-2,-4.214597613E0,4.221008984E0
1.241641042E1,-1.266500606E-1,-2.893052470E-2,-4.038885275E0,4.040974075E0
1.242640942E1,-1.338485495E-1,-2.408133009E-1,-3.715411457E0,3.725612537E0
1.243640842E1,1.103104642E-1,-6.454556806E-2,-3.477541462E0,3.479889244E0
1.244640642E1,2.465256651E-1,9.874721149E-2,-3.266444698E0,3.277222434E0
1.245640542E1,4.203073628E-2,-4.150013801E-2,-3.142335207E0,3.142890293E0
1.246640442E1,1.737967726E-1,2.979137737E-1,-3.151884879E0,3.170699643E0
1.247640342E1,-8.495430585E-2,-3.864121500E-2,-2.813282561E0,2.814830216E0
1.248640242E1,3.508541353E-2,2.972694105E-1,-2.715971444E0,2.732416691E0
1.249640042E1,-1.105265553E-1,-7.964636793E-2,-2.296240178E0,2.300277944E0
1.250639942E1,5.276911128E-3,3.035010258E-1,-2.040711592E0,2.063163716E0
1.251639842E1,-2.005751199E-2,-1.234569784E-1,-1.816296040E0,1.820597494E0
1.252639742E1,1.052450761E-1,-9.956194790E-2,-1.778680317E0,1.784570754E0
1.253639642E1,-2.703301186E-1,-1.577344712E-1,-1.604694076E0,1.634931685E0
1.254639542E1,5.725374296E-2,-7.996759934E-2,-1.547472639E0,1.550594846E0
1.255639379E1,8.881915094E-2,1.376088665E-1,-1.407476263E0,1.416973702E0
1.256639279E1,1.872599135E-2,-7.997388510E-2,-1.048939033E0,1.052149979E0
1.257639179E1,6.615393609E-2,-9.388366196E-2,-9.136145818E-1,9.208051310E-1
1.258639079E1,-8.632383339E-2,2.432156660E-2,-8.226050091E-1,8.274795126E-1
1.259638979E1,-9.651003024E-2,-1.126198951E-1,-6.061638898E-1,6.240449407E-1
1.260638779E1,6.110234376E-2,-1.572493898E-1,-4.719153267E-1,5.011635887E-1
1.261638679E1,2.611429185E-1,1.294792816E-2,-5.231176400E-1,5.848207743E-1
1.262638579E1,9.859787908E-2,-2.533884508E-1,-2.786923313E-1,3.893541630E-1
1.263638479E1,9.439079829E-2,-1.276646348E-2,-1.945690244E-1,2.166326630E-1
1.264638379E1,-3.736722548E-2,-3.079801574E-1,-1.028583705E-2,3.104092224E-1
1.265638279E1,1.681682976E-1,-2.163760142E-1,1.873319256E-1,3.319524156E-1
1.266638079E1,1.946161676E-1,-1.386806977E-1,1.934884590E-1,3.074826375E-1
1.267637979E1,1.907972414E-1,6.050815701E-2,2.195512533E-2,2.013624889E-1
1.268637879E1,-1.404831659E-1,-6.535208182E-2,1.074215376E-1,1.885359415E-1
1.269637779E1,-5.413174094E-2,3.341977933E-2,9.842735052E-2,1.171967165E-1
1.270637679E1,5.348639105E-2,-5.580308530E-3,2.448006999E-1,2.506378195E-1
1.271637479E1,1.197078077E-1,7.291253166E-2,3.634734499E-1,3.895627617E-1
1.272637379E1,-5.848343982E-2,2.032626281E-1,3.917231029E-1,4.451774906E-1
1.273637279E1,-1.114679022E-1,5.098609423E-2,4.132519662E-1,4.310474018E-1
1.274637179E1,-3.113722734E-2,4.093299463E-2,5.229708749E-1,5.254936469E-1
1.275637079E1,3.711599621E-2,1.397685539E-3,6.542584080E-1,6.553118457E-1
1.276636979E1,1.540956027E-1,1.502872563E-1,6.197019482E-1,6.560199835E-1
1.277636779E1,-1.704523845E-1,8.397632249E-2,6.102885157E-1,6.391855055E-1
1.278636679E1,-1.459524230E-1,2.046038332E-1,5.872463930E-1,6.387669093E-1
1.279636579E1,-1.817820774E-2,2.246724275E-1,6.037179995E-1,6.444249916E-1
1.280636479E1,1.028879812E-1,2.452874989E-1,6.824636221E-1,7.324673981E-1
1.281636379E1,-1.598309903E-2,2.116889775E-1,7.064260966E-1,7.376350809E-1
1.282636179E1,-1.907836832E-3,1.950289628E-1,7.211072856E-1,7.470178402E-1
1.283636079E1,4.159087035E-2,1.415424164E-1,6.977739716E-1,7.131988303E-1
1.284635979E1,-9.351763540E-2,4.825813059E-2,7.217551571E-1,7.293866616E-1
1.285635879E1,-5.357913338E-2,9.674583748E-4,7.172966552E-1,7.192955936E-1
1.286635779E1,3.132806584E-2,3.769592123E-2,7.152390200E-1,7.169165125E-1
1.287635679E1,6.902497379E-2,6.623100970E-2,8.335217607E-1,8.389931580E-1
1.288635479E1,8.300498120E-2,1.494136640E-1,7.947670001E-1,8.129384075E-1
1.289635379E1,1.848422726E-2,1.681421679E-3,6.852018732E-1,6.854532084E-1
1.290635279E1,-1.377021113E-2,-2.884133639E-2,5.986782843E-1,5.995307577E-1
1.291635179E1,-9.597930405E-3,-6.045801714E-3,5.468818939E-1,5.469995227E-1
1.292635079E1,1.211203945E-1,-1.120745143E-1,6.229296112E-1,6.444161289E-1
1.293634879E1,1.610137907E-1,-1.394596199E-1,8.133465278E-1,8.407776167E-1
1.294634779E1,7.969682758E-2,-1.101223848E-1,9.296675277E-1,9.395532108E-1
1.295634679E1,-6.577642523E-3,-1.331371718E-1,8.841604024E-1,8.941523299E-1
1.296634579E1,1.960956045E-2,-9.897472300E-2,7.714301777E-1,7.780006746E-1
1.297634479E1,3.156206410E-2,-6.546820387E-2,6.937370539E-1,6.975337623E-1
1.298634379E1,1.245522258E-1,-1.575525862E-1,6.691857648E-1,6.986742175E-1
1.299634179E1,9.288964444E-2,-1.351591573E-1,6.735220599E-1,6.932015934E-1
1.300634079E1,-4.757005035E-2,-7.834733589E-2,7.152746880E-1,7.211234943E-1
1.301633979E1,-5.455800296E-2,-5.668310953E-2,7.706484050E-1,7.746538031E-1
1.302633879E1,1.619887956E-2,-2.780029446E-2,7.887513846E-1,7.894073770E-1
1.303633779E1,8.154600953E-2,-2.802338401E-2,7.601549917E-1,7.650298512E-1
1.304633579E1,-4.032331277E-3,1.983797645E-2,6.564025819E-1,6.567146675E-1
1.305633479E1,-8.348428843E-2,5.683422351E-2,5.713600928E-1,5.802172963E-1
1.306633379E1,-6.048115019E-2,7.246346550E-2,5.434969407E-1,5.516319860E-1
1.307633279E1,-5.493726798E-2,9.895656008E-2,5.349471420E-1,5.467896752E-1
1.308633179E1,5.150827800E-2,1.136480366E-1,5.844847530E-1,5.976549217E-1
1.309633079E1,3.912227640E-2,1.434830707E-1,6.564739180E-1,6.731091658E-1
1.310632879E1,-4.629173024E-2,1.720352623E-1,6.919343573E-1,7.145013720E-1
1.311632779E1,-5.427877100E-2,1.939734673E-1,6.515090472E-1,6.819354291E-1
1.312632679E1,-1.087040330E-2,1.825827440E-1,6.101914519E-1,6.370150956E-1
1.313632579E1,1.250506096E-1,1.530591472E-1,5.554094732E-1,5.895289988E-1
1.314632479E1,1.158293587E-1,1.366545461E-1,4.910474163E-1,5.227030423E-1
1.315632279E1,-5.257009582E-2,1.602407705E-1,4.909000665E-1,5.190602998E-1
1.316632179E1,-5.417057924E-2,1.595752477E-1,5.585511822E-1,5.834193470E-1
1.317632079E1,3.275071168E-2,1.795371486E-1,6.447683769E-1,6.700988410E-1
1.318631979E1,1.175949528E-1,1.380058925E-1,7.354715556E-1,7.574909956E-1
1.319631879E1,6.928649051E-2,8.686524902E-2,6.845633572E-1,6.935222991E-1
1.320631679E1,-1.324365109E-1,1.384035945E-2,6.752727163E-1,6.882762718E-1
1.321631579E1,-6.523464415E-3,-1.737439832E-2,7.354475820E-1,7.356817051E-1
1.322631479E1,2.188158563E-1,-3.864472333E-2,8.073092777E-1,8.373303192E-1
1.323631379E1,1.468717332E-1,-6.503147168E-2,8.667438859E-1,8.815017652E-1
1.324631279E1,-1.397614276E-1,-6.516760217E-2,7.830661368E-1,7.981056620E-1
1.325631179E1,-1.300371699E-1,-9.270215895E-2,7.543253177E-1,7.710447723E-1
1.326630979E1,4.659993332E-2,-9.710474689E-2,8.387480021E-1,8.456353213E-1
1.327630879E1,1.431148971E-1,-1.015069328E-1,8.486315507E-1,8.665800828E-1
1.328630779E1,6.466801241E-2,-8.508610575E-2,8.288515896E-1,8.357132012E-1
1.329630679E1,-1.380655706E-1,-1.573168886E-1,7.436395311E-1,7.725350850E-1
1.330630579E1,-9.026173213E-3,-3.957511036E-1,1.177519305E0,1.242276990E0
1.331630379E1,4.569573085E-1,7.161614183E-1,6.795359212E-1,1.087872340E0
1.332630279E1,3.088587016E-1,-3.028997128E-1,6.186640674E-1,7.549087109E-1
1.333630179E1,-3.655728196E-1,-2.469204435E-1,6.235032231E-1,7.637862666E-1
1.334630079E1,-1.147604511E0,6.657626586E-1,4.636052638E-1,1.405405946E0
1.335629979E1,-3.651894981E-1,3.746110436E-1,9.791957831E-1,1.110189707E0
1.336629879E1,1.508899142E0,-5.399353286E-1,2.100757234E0,2.642250506E0
1.337629679E1,1.160887192E0,3.745926614E-1,2.169045696E0,2.488521241E0
1.338629579E1,-6.954102346E-1,2.687262273E-1,7.836081737E-1,1.081596482E0
1.339629479E1,-1.492141461E0,-1.180344168E-1,1.062650753E0,1.835659251E0
1.340629379E1,-4.414823965E-1,-1.575905748E-1,1.738112919E0,1.800216103E0
1.341629279E1,8.308699022E-1,7.515854587E-1,1.378835431E0,1.776629574E0
1.342629079E1,9.359984542E-1,-6.711800308E-1,3.004777120E0,3.217959179E0
1.343628979E1,6.239519238E-1,1.876976872E-1,1.345084718E0,1.494590018E0
1.344628879E1,-1.045555468E0,4.452650334E-1,1.131536801E0,1.603690344E0
1.345628779E1,-1.183663632E0,5.101318511E-1,1.522612617E0,1.994904329E0
1.346628679E1,5.131870213E-1,5.220001275E-2,1.858266769E0,1.928533418E0
1.347628579E1,6.912574690E-1,5.750067088E-1,1.779652124E0,1.993898515E0
1.348628379E1,4.192015813E-1,3.599971706E-2,2.195097966E0,2.235057275E0
1.349628279E1,5.426724102E-2,-3.565544397E-2,1.961920361E0,1.962994587E0
1.350628179E1,-2.058981144E-1,-7.202947419E-1,1.623466562E0,1.787977133E0
1.351628079E1,-4.520116970E-3,7.196758872E-1,1.263751702E0,1.454311583E0
1.352627979E1,-1.389500808E-1,-1.385415340E-1,1.561611207E0,1.573890226E0
1.353627779E1,1.343121881E-2,-2.286532119E-1,1.576110547E0,1.592666678E0
1.354627679E1,-7.218049681E-3,1.533179413E-1,1.523400237E0,1.531112920E0
1.355627567E1,1.324936949E-1,-1.031763494E-1,1.622522237E0,1.631189243E0
1.356627467E1,9.287756628E-2,-3.710825779E-1,1.556687851E0,1.602998935E0
1.357627367E1,-4.296835558E-2,-1.926363918E-1,1.594270830E0,1.606441576E0
1.358627167E1,-1.882672243E-1,4.250231422E-2,1.552202452E0,1.564155825E0
1.359627067E1,-6.042415811E-2,-1.749837573E-1,1.526779928E0,1.537962074E0
1.360626967E1,2.544953104E-1,-1.886662054E-1,1.697901033E0,1.727203149E0
1.361626867E1,1.720026093E-1,-1.223721372E-1,1.728302461E0,1.741145954E0
1.362626767E1,-1.693123419E-2,6.936659737E-2,1.488339162E0,1.490050957E0
1.363626667E1,-8.572094891E-2,9.791946502E-2,1.457509133E0,1.463307615E0
1.364626467E1,-1.898136301E-1,-1.131599951E-1,1.864647835E0,1.877696980E0
1.365626367E1,-4.213438732E-2,9.994881431E-2,1.649401302E0,1.652963922E0
1.366626267E1,1.989798533E-1,1.842040307E-1,1.495263435E0,1.519650239E0
1.367626167E1,1.328532164E-2,8.446966304E-2,1.942695885E0,1.944576799E0
1.368626067E1,2.050842916E-1,3.629557521E-1,1.777154778E0,1.825397368E0
1.369625867E1,1.252405253E-1,-2.583464328E-3,1.478390125E0,1.483687712E0
1.370625767E1,-5.525111546E-1,4.206950332E-1,1.744399846E0,1.877547259E0
1.371625667E1,-5.982686868E-1,5.954508040E-1,1.667977906E0,1.869394923E0
1.372625567E1,4.663006841E-1,8.254974805E-2,1.429098097E0,1.505513919E0
1.373625467E1,1.960175259E-1,6.036522548E-1,1.747695336E0,1.859370298E0
1.374625367E1,-1.414269796E-1,-2.116286781E-1,2.062155671E0,2.077805163E0
1.375625167E1,3.253372882E-1,-4.104618577E-1,1.396194060E0,1.491201241E0
1.376625067E1,2.714470099E-1,-1.265542120E-1,1.546150584E0,1.574890814E0
1.377624967E1,-5.128231052E-2,-2.988282782E-1,2.304401722E0,2.324262359E0
1.378624867E1,2.363248685E-1,3.219934483E-1,1.439126657E0,1.493524274E0
1.379624767E1,2.200059840E-1,1.193426582E-1,1.349936153E0,1.372943160E0
1.380624567E1,-6.203525971E-1,4.702137870E-1,1.922643444E0,2.074245926E0
1.381624467E1,-1.596082297E-1,7.162521232E-2,1.651387017E0,1.660627603E0
1.382624367E1,5.817864457E-1,-3.743354570E-2,1.164712733E0,1.302471685E0
1.383624267E1,-5.466958062E-1,7.610343033E-2,1.939147795E0,2.016175143E0
1.384624167E1,-3.155836209E-1,2.177973993E-1,1.778587346E0,1.819450927E0
1.385623967E1,7.672630133E-1,5.003762104E-1,5.132001776E-1,1.049973002E0
1.386623867E1,-9.588640641E-2,-6.952721673E-1,1.797550451E0,1.929711174E0
1.387623767E1,-6.409377929E-1,-3.284664256E-1,2.090860822E0,2.211422715E0
1.388623667E1,8.695172203E-1,-2.511527313E-1,7.903967911E-1,1.201609328E0
1.389623567E1,5.076461632E-1,-1.739140823E-1,1.250017762E0,1.360329056E0
1.390623467E1,-8.351203164E-1,4.714761277E-1,1.901080667E0,2.129277667E0
1.391623267E1,1.664971451E-1,-2.080254411E-1,8.785441518E-1,9.180608423E-1
1.392623167E1,3.928155821E-1,-4.916322475E-2,8.745200980E-1,9.599513039E-1
1.393623067E1,-9.269820477E-1,-1.608388128E-2,2.150058033E0,2.341432030E0
1.394622967E1,3.436251495E-1,8.242154785E-2,1.081521472E0,1.137787436E0
1.395622867E1,8.874751890E-1,3.730197604E-1,4.883056569E-1,1.079443545E0
1.396622667E1,-1.119524354E0,-2.418225120E-1,1.905561973E0,2.223281210E0
1.397622567E1,-2.331017736E-1,2.924743831E-1,1.207022016E0,1.263637546E0
1.398622467E1,1.077377185E0,-8.978167573E-2,2.662857091E-1,1.113422843E0
1.399622367E1,-1.799865437E-1,-3.783725940E-2,1.623691680E0,1.634075116E0
1.400622267E1,-4.226133220E-1,2.627298346E-2,1.424357759E0,1.485963430E0
1.401622167E1,9.945400465E-1,-7.932844386E-3,1.978574985E-1,1.014061351E0
1.402621967E1,-2.355817605E-1,1.224474201E-1,1.008765153E0,1.043119969E0
1.403621867E1,-9.230119345E-1,3.013010657E-1,1.609500487E0,1.879687523E0
1.404621767E1,8.376373234E-1,3.499708768E-1,1.510604775E-1,9.202908063E-1
1.405621667E1,2.802666210E-1,-2.145152657E-1,6.880266631E-1,7.732702420E-1
1.406621567E1,-9.719072288E-1,4.825996515E-1,1.516544961E0,1.864782750E0
1.407621367E1,2.655404998E-1,-5.751270153E-2,7.273117661E-2,2.812637408E-1
1.408621267E1,6.661569071E-1,-1.902850254E-2,7.759138227E-2,6.709303476E-1
1.409621167E1,-4.128460233E-1,-3.711889241E-2,1.356604902E0,1.418519126E0
1.410621067E1,8.008849053E-2,-2.120562558E-1,3.233475173E-1,3.948868684E-1
1.411620967E1,6.790279444E-1,-3.862906376E-1,9.290640950E-3,7.812718617E-1
1.412620867E1,-1.485911106E0,3.425287235E-1,4.260889435E-1,1.583290728E0
1.413620667E1,-1.613218659E-1,3.514491260E-1,1.151831317E-1,4.034952124E-1
1.414620567E1,2.174939543E0,-1.261706054E0,6.885564208E-2,2.515353908E0
1.415620467E1,2.514766488E-1,6.565949919E-2,2.782572985E-1,3.807608158E-1
1.416620367E1,-1.529350217E0,3.674021941E-1,-3.948443466E-1,1.621665353E0
1.417620267E1,-1.320070329E-1,-4.626835234E-1,-7.274532688E-1,8.721755315E-1
1.418620067E1,6.584875529E-1,-3.754376572E-1,1.277248245E-1,7.686825889E-1
1.419619967E1,-4.942805246E-1,6.136901334E-2,-3.825716257E-2,4.995427942E-1
1.420619867E1,5.890541693E-1,-3.311011445E-2,-3.047235507E-1,6.640312767E-1
1.421619767E1,-2.438295871E-1,2.417021325E-1,-6.999239928E-1,7.795937301E-1
1.422619667E1,-2.264377933E-1,3.808279860E-1,-1.511505246E-1,4.681351410E-1
1.423619467E1,-6.920444311E-1,7.155973812E-1,-1.134256341E0,1.509152926E0
1.424619367E1,7.575134390E-1,-4.011307978E-1,-8.511043382E-1,1.207936721E0
1.425619267E1,5.242745116E-1,6.589458284E-1,-8.553090709E-1,1.200261211E0
1.426619167E1,1.974508247E-1,-1.276792894E-1,-1.106519489E0,1.131226860E0
1.427619067E1,-4.982516246E-1,-1.080625752E-1,-1.742415301E0,1.815473294E0
1.428618867E1,-5.932623373E-1,-1.879986361E-1,-1.527762845E0,1.649655418E0
1.429618767E1,1.184817836E-1,1.409873877E-1,-1.400497026E0,1.412553467E0
1.430618667E1,9.629150151E-1,1.703249335E-1,-1.531747722E0,1.817269103E0
1.431618567E1,-2.891752378E-2,3.564831036E-1,-1.763864057E0,1.799759106E0
1.432618467E1,-1.253936310E-2,-1.575861894E-1,-1.694704944E0,1.702062129E0
1.433618367E1,-3.331975906E-1,4.207022692E-1,-2.268943622E0,2.331548025E0
1.434618167E1,-4.073369229E-1,-2.941355953E-2,-2.403379880E0,2.437831695E0
1.435618067E1,1.629229432E-1,1.907329769E-1,-2.231539568E0,2.245593863E0
1.436617967E1,4.028008723E-1,-3.538431589E-1,-2.664146402E0,2.717559489E0
1.437617867E1,-3.873382028E-2,1.243284876E-1,-2.920840924E0,2.923742394E0
1.438617767E1,9.241533475E-3,-3.123696257E-1,-2.856157270E0,2.873202837E0
1.439617567E1,1.276454486E-2,-3.540372499E-1,-3.261787975E0,3.280970299E0
1.440617467E1,-4.962316308E-2,-1.076692403E-1,-3.244230541E0,3.246395990E0
1.441617367E1,2.840929659E-1,-3.181823062E-1,-3.293582211E0,3.321089064E0
1.442617267E1,2.410129467E-1,-2.779454043E-1,-3.733026779E0,3.751110479E0
1.443617167E1,-5.703450892E-2,-2.663999674E-1,-3.934790803E0,3.944211016E0
1.444617067E1,2.125369517E-1,6.763329992E-2,-4.359306260E0,4.365008281E0
1.445616867E1,-2.676248677E-2,-5.712367165E-1,-4.553192915E0,4.588964299E0
1.446616767E1,-5.631277248E-1,-1.683654036E-1,-4.962071164E0,4.996759948E0
1.447616667E1,-2.386175435E-1,-2.224797947E-1,-5.033246981E0,5.043809152E0
1.448616567E1,2.591684417E-1,-2.131053193E-1,-4.851714908E0,4.863303374E0
1.449616467E1,7.388032260E-1,-3.806743870E-1,-4.854723301E0,4.925350904E0
1.450616267E1,3.260549974E-1,-1.710557806E-1,-4.965211703E0,4.978845167E0
1.451616167E1,-1.860184400E-1,-2.481944787E-1,-5.153394983E0,5.162720525E0
1.452616067E1,-2.421053711E-1,-3.135148029E-1,-5.094733377E0,5.110109072E0
1.453615967E1,-3.590741328E-2,-2.398349703E-1,-4.898354055E0,4.904353433E0
1.454615867E1,3.178464568E-1,-4.761203153E-2,-4.880983146E0,4.891552898E0
1.455615646E1,2.549295758E-1,-1.972463000E-1,-4.688919654E0,4.699985395E0
1.456615546E1,7.251049904E-3,-4.666978927E-2,-4.595210422E0,4.595453130E0
1.457615446E1,-2.527341656E-1,-9.263164518E-2,-4.520982358E0,4.528988481E0
1.458615346E1,-1.887256460E-1,1.031796020E-2,-4.416372162E0,4.420414788E0
1.459615246E1,7.404034993E-2,5.633757563E-2,-4.225382218E0,4.226406367E0
1.460615146E1,1.916321690E-1,-1.720168618E-2,-3.989624822E0,3.994261509E0
1.461614946E1,2.490416855E-1,-2.013861470E-2,-3.748625396E0,3.756942865E0
1.462614846E1,8.178810253E-2,-2.026895279E-2,-3.464224429E0,3.465249055E0
1.463614746E1,-1.746225273E-2,1.394454587E-1,-3.306311599E0,3.309296958E0
1.464614646E1,-1.877194316E-1,-2.112162301E-2,-3.041522192E0,3.047382804E0
1.465614546E1,6.209971430E-3,1.445566195E-1,-2.813542762E0,2.817260736E0
1.466614346E1,-7.457596402E-2,-1.678223617E-1,-2.482090420E0,2.488875001E0
1.467614246E1,2.239561071E-1,-1.749328317E-1,-2.283092714E0,2.300710798E0
1.468614146E1,9.360171653E-2,1.124892829E-2,-1.925586932E0,1.927893372E0
1.469614046E1,-3.293404017E-2,7.855619112E-2,-1.797108986E0,1.799126576E0
1.470613946E1,-1.648861275E-1,-9.385915847E-2,-1.697827358E0,1.708395362E0
1.471613846E1,-7.808304174E-2,-3.693338949E-3,-1.559492176E0,1.561450111E0
1.472613646E1,1.366625860E-2,4.853046466E-2,-1.514417744E0,1.515256769E0
1.473613546E1,1.509319392E-1,-8.551545583E-2,-1.305438257E0,1.316913963E0
1.474613446E1,1.068441160E-1,3.353177179E-3,-1.052917478E0,1.058329875E0
1.475613346E1,-1.446394033E-1,-4.136928828E-2,-7.646327895E-1,7.792915230E-1
1.476613246E1,-7.089851305E-2,-6.067301195E-2,-5.703572953E-1,5.779405314E-1
1.477613046E1,9.601752109E-2,-1.115762402E-1,-4.408970171E-1,4.648212575E-1
1.478612946E1,1.048684057E-1,-5.594062278E-2,-4.054289764E-1,4.224918824E-1
1.479612846E1,2.094956869E-1,-1.525022364E-1,-3.660620123E-1,4.484938927E-1
1.480612746E1,2.077990442E-1,-1.272757767E-1,-3.386648834E-1,4.172211276E-1
1.481612646E1,-9.118920104E-2,-1.160136921E-1,-1.522995025E-1,2.120608064E-1
1.482612446E1,9.048529677E-2,-8.485141313E-2,1.400758982E-2,1.248341452E-1
1.483612346E1,1.352840501E-1,-7.182832997E-2,1.753755391E-1,2.328468658E-1
1.484612246E1,8.976936003E-2,3.838779302E-2,2.841974849E-1,3.005002014E-1
1.485612146E1,7.249809198E-2,-3.062817240E-2,3.109841645E-1,3.207884176E-1
1.486612046E1,-1.427935744E-3,2.410171129E-2,3.245789409E-1,3.254756832E-1
1.487611846E1,-1.273266931E-1,4.261792464E-2,4.416086233E-1,4.615696593E-1
1.488611746E1,9.739996732E-2,3.320292072E-2,4.932155639E-1,5.038360647E-1
1.489611646E1,6.955135111E-2,1.314343530E-1,5.818014657E-1,6.005042257E-1
1.490611546E1,-4.359839307E-2,2.540766863E-2,7.024418038E-1,7.042519842E-1
1.491611446E1,-7.096747365E-3,-6.306200154E-2,7.861283237E-1,7.886855654E-1
1.492611346E1,5.466074950E-2,-1.354936911E-2,8.427317101E-1,8.446112231E-1
1.493611146E1,8.354333617E-2,1.075950355E-1,9.220883667E-1,9.320960985E-1
1.494611046E1,-8.912868792E-2,1.393979866E-1,9.346598804E-1,9.491916633E-1
1.495610946E1,-1.420442720E-1,2.484124337E-1,8.309191650E-1,8.788128192E-1
1.496610846E1,-2.337065950E-1,1.193090915E-1,8.256484848E-1,8.663422259E-1
1.497610746E1,-1.553896646E-2,2.623244215E-1,7.602169722E-1,8.043540306E-1
1.498610546E1,9.856749183E-2,9.893885398E-2,8.311653328E-1,8.428168589E-1
1.499610446E1,5.736881434E-2,8.759631542E-2,8.067777658E-1,8.135445032E-1
1.500610346E1,-6.584373216E-2,1.392223874E-2,6.997748888E-1,7.030036420E-1
1.501610246E1,3.060500281E-2,3.935762683E-2,6.138822144E-1,6.159034520E-1
1.502610146E1,9.102632867E-2,1.312902374E-1,6.044670278E-1,6.252226057E-1
1.503610046E1,8.727140210E-2,1.917523293E-1,6.170625150E-1,6.520363493E-1
1.504609846E1,-5.257377774E-2,2.332125418E-2,7.181059098E-1,7.204054280E-1
1.505609746E1,-1.182311390E-1,8.149688378E-2,7.736392558E-1,7.868532534E-1
1.506609646E1,1.102491872E-1,7.172355518E-2,6.901147038E-1,7.025364446E-1
1.507609546E1,1.561306530E-1,-5.165560042E-2,6.094348222E-1,6.312336211E-1
1.508609446E1,1.426612994E-1,-2.146105388E-2,4.354947746E-1,4.587684839E-1
1.509609246E1,3.796536824E-2,-9.286502218E-2,3.057216704E-1,3.217623677E-1
1.510609146E1,6.799894276E-2,-1.243074742E-1,3.492857659E-1,3.769306973E-1
1.511609046E1,8.835840862E-2,-8.163593788E-2,4.037806463E-1,4.213198845E-1
1.512608946E1,1.340437369E-1,-8.632545965E-2,4.404608148E-1,4.684287969E-1
1.513608846E1,7.982458010E-2,-1.158480515E-1,4.120187885E-1,4.353759486E-1
1.514608646E1,-3.645818445E-2,-8.103027597E-2,3.353729010E-1,3.469439256E-1
1.515608546E1,-1.007802336E-2,-6.558896715E-2,2.783251262E-1,2.861264668E-1
1.516608446E1,7.465615310E-3,-5.854621517E-2,2.979203153E-1,3.037102385E-1
1.517608346E1,6.799189869E-2,-5.574461315E-2,3.534320265E-1,3.642040054E-1
1.518608246E1,-3.081483562E-2,-3.385557963E-2,4.243645996E-1,4.268267421E-1
1.519608046E1,-1.071690841E-1,-6.094587592E-2,5.279263902E-1,5.421308752E-1
1.520607946E1,-2.759767930E-2,3.399143603E-2,5.969235349E-1,5.985271557E-1
1.521607846E1,3.449010302E-2,-6.362821301E-2,7.011197484E-1,7.048453860E-1
1.522607746E1,8.700189114E-2,-9.662998952E-2,7.700005335E-1,7.809017259E-1
1.523607646E1,3.036883011E-2,-6.742552277E-3,6.644933742E-1,6.652211454E-1
1.524607546E1,-8.758057362E-2,7.279434482E-2,5.856220365E-1,5.965924430E-1
1.525607346E1,-8.350668143E-2,1.828668273E-1,4.959596622E-1,5.351538367E-1
1.526607246E1,-3.914649666E-2,8.571281763E-2,5.226065934E-1,5.310336964E-1
1.527607146E1,8.454291768E-2,1.625777930E-1,5.773792166E-1,6.057605165E-1
1.528607046E1,-5.741045748E-2,2.073496309E-1,5.875329065E-1,6.256874190E-1
1.529606946E1,-5.970235588E-2,2.582724290E-1,6.026280785E-1,6.583537194E-1
1.530606746E1,3.188273820E-2,1.478370720E-1,5.539733970E-1,5.742463177E-1
1.531606646E1,1.195486264E-1,3.977482567E-2,5.074395007E-1,5.228467822E-1
1.532606546E1,2.032056361E-1,6.350419722E-2,5.368088955E-1,5.774851547E-1
1.533606446E1,7.709852594E-2,1.292114426E-1,5.263552433E-1,5.474391489E-1
1.534606346E1,-2.354800737E-2,2.220848153E-1,5.763588774E-1,6.181146572E-1
1.535606146E1,-2.691948451E-3,2.301329595E-1,5.905857378E-1,6.338453592E-1
1.536606046E1,5.007718110E-2,8.685180042E-2,6.810047418E-1,6.883446939E-1
1.537605946E1,1.236098739E-1,7.940489620E-2,7.600403863E-1,7.741097644E-1
1.538605846E1,-2.003711069E-2,8.892732443E-2,7.574910003E-1,7.629562047E-1
1.539605746E1,-1.105662981E-1,-5.366150603E-2,8.456260818E-1,8.545103474E-1
1.540605646E1,1.187268002E-3,-3.974973746E-3,9.305896336E-1,9.305988804E-1
1.541605446E1,-7.283036001E-2,-4.872081345E-1,1.342509604E0,1.430037784E0
1.542605346E1,6.993774243E-1,7.351386297E-1,1.047945006E0,1.458679650E0
1.543605246E1,4.013323806E-1,-1.779998425E-1,4.483773601E-1,6.275299839E-1
1.544605146E1,-9.602633028E-1,-6.274349640E-1,3.838872492E-1,1.209607236E0
1.545605046E1,-6.537507235E-1,5.390175350E-1,3.496746057E-1,9.166254640E-1
1.546604846E1,3.059910991E-1,-2.621392658E-2,1.022637087E0,1.067756683E0
1.547604746E1,4.971998566E-1,-2.357472915E-1,1.851526099E0,1.931562419E0
1.548604646E1,3.675713249E-1,2.823192495E-1,9.589907295E-1,1.065117860E0
1.549604546E1,-5.837771668E-1,-2.623698105E-1,1.134104898E0,1.302239462E0
1.550604446E1,-8.808278549E-1,1.534991501E-1,1.025774703E0,1.360747383E0
1.551604346E1,2.590764942E-1,3.460004347E-1,1.049347753E0,1.134886619E0
1.552604146E1,1.718904524E-1,-9.208472952E-2,1.623889900E0,1.635556277E0
1.553604046E1,3.901215140E-1,-4.163943330E-1,1.855129738E0,1.940898086E0
1.554603946E1,6.434143080E-1,6.556586699E-1,1.354623281E0,1.636726763E0
1.555603892E1,-3.223192113E-1,-9.053434760E-1,1.564707307E0,1.836258544E0
1.556603792E1,2.536054190E-1,9.777454544E-2,1.047751463E0,1.082431845E0
1.557603592E1,9.564511741E-2,2.708853300E-1,1.273689630E0,1.305684542E0
1.558603492E1,-3.798370657E-1,1.418030560E-1,9.802792722E-1,1.060816551E0
1.559603392E1,1.001857544E-1,-8.859569594E-2,1.264927577E0,1.271978050E0
1.560603292E1,1.194113904E-1,7.465637237E-1,1.508503870E0,1.687364928E0
1.561603192E1,-1.358804570E-1,2.238738806E-1,1.580625182E0,1.602173205E0
1.562602992E1,8.769565414E-2,-3.230707612E-1,1.914290112E0,1.943340391E0
1.563602892E1,9.629298890E-2,3.218763943E-1,1.919257321E0,1.948441792E0
1.564602792E1,-1.266560540E-1,-5.056076411E-2,1.905813988E0,1.910687076E0
1.565602692E1,1.754545861E-1,-3.438417888E-1,1.876944530E0,1.916228654E0
1.566602592E1,-3.365204170E-2,3.570429014E-1,1.837096925E0,1.871773812E0
1.567602392E1,-2.012326759E-1,4.079068071E-1,1.864968263E0,1.919632562E0
1.568602292E1,-9.084627097E-3,-4.751791694E-1,2.256128279E0,2.305643638E0
1.569602192E1,-1.760431266E-2,2.919449908E-1,1.807212975E0,1.830726776E0
1.570602092E1,-1.077397998E-1,-1.563590781E-1,1.781159536E0,1.791252444E0
1.571601992E1,-8.874818950E-2,-1.126902627E-1,1.698695084E0,1.704740545E0
1.572601892E1,4.828825288E-2,1.280783253E-2,1.623539652E0,1.624308098E0
1.573601692E1,2.575172246E-1,2.023257397E-1,1.679552470E0,1.711183019E0
1.574601592E1,2.538803478E-2,-3.513378462E-1,1.749772267E0,1.784876977E0
1.575601492E1,1.552962553E-1,3.139187358E-1,1.582009803E0,1.620313833E0
1.576601392E1,-6.410832424E-4,1.002397316E-2,1.601773977E0,1.601805470E0
1.577601292E1,-2.014360676E-1,1.144061646E-1,1.572865927E0,1.589834106E0
1.578601092E1,4.943913111E-2,7.288031716E-2,1.684396303E0,1.686696972E0
1.579600992E1,3.749011386E-1,1.815387054E-1,1.797136468E0,1.844778212E0
1.580600892E1,8.661740930E-2,-2.034831047E-4,1.723496634E0,1.725671830E0
1.581600792E1,4.470541717E-2,3.520271599E-1,1.559747699E0,1.599604507E0
1.582600692E1,4.567023517E-2,6.032610761E-2,1.624848259E0,1.626609011E0
1.583600492E1,-2.353594201E-1,1.417658714E-1,1.547004862E0,1.571214709E0
1.584600392E1,-7.889045086E-3,7.045640873E-2,1.577149597E0,1.578742283E0
1.585600292E1,-1.155384414E-1,1.839732667E-1,1.702764162E0,1.716566656E0
1.586600192E1,-4.878628034E-1,-3.432436187E-1,1.790588756E0,1.887335262E0
1.587600092E1,2.493154448E-1,3.192584863E-1,1.725808623E0,1.772709671E0
1.588599992E1,4.538174999E-1,-4.548724473E-2,1.780645566E0,1.838128952E0
1.589599792E1,1.569195703E-1,-1.813210062E-1,2.046962265E0,2.060959867E0
1.590599692E1,-4.308450687E-1,1.304580507E-1,1.819215555E0,1.874084312E0
1.591599592E1,-5.400861868E-1,4.036955693E-1,1.439205594E0,1.589331917E0
1.592599492E1,-2.599318688E-1,-2.393645801E-1,1.934996272E0,1.966995310E0
1.593599392E1,5.746027027E-1,-2.242671607E-1,2.273046613E0,2.355250502E0
1.594599192E1,8.904134879E-1,3.887292554E-1,1.785932034E0,2.033101041E0
1.595599092E1,-2.365807207E-1,-1.677395505E-1,1.717993235E0,1.742299558E0
1.596598992E1,-5.758383656E-1,-4.931638160E-1,2.161090559E0,2.290221120E0
1.597598892E1,-5.862431569E-1,6.933110842E-1,9.335991955E-1,1.302293652E0
1.598598792E1,5.520952713E-1,3.192503002E-1,1.837532542E0,1.945059327E0
1.599598592E1,1.063033746E0,-5.054231249E-1,2.656264941E0,2.905380649E0
1.600598492E1,4.406912317E-1,3.402680437E-1,1.454887242E0,1.557783037E0
1.601598392E1,-8.176992682E-1,2.102527734E-1,1.152736466E0,1.428859574E0
1.602598292E1,-1.169192723E0,-2.097626489E-1,2.089088531E0,2.403185986E0
1.603598192E1,1.159432789E-1,3.341335105E-1,1.231078046E0,1.280875170E0
1.604597992E1,1.431600121E0,-3.554529704E-1,1.516662490E0,2.115677393E0
1.605597892E1,4.438204422E-1,-1.967882803E-1,2.377615879E0,2.426676632E0
1.606597792E1,-3.744988501E-1,3.225452062E-1,1.424250755E0,1.507572556E0
1.607597692E1,-1.524800353E-1,2.418924045E-1,8.509891480E-1,8.977441877E-1
