"Time (s)","Linear Acceleration x (m/s^2)","Linear Acceleration y (m/s^2)","Linear Acceleration z (m/s^2)","Absolute acceleration (m/s^2)"
1.657749992E-3,6.104438324E-3,-3.453062240E-2,-1.825910032E-2,3.953508309E-2
1.165674999E-2,7.322979793E-3,-4.331591774E-2,1.843334734E-2,4.764119076E-2
2.165575000E-2,1.330617975E-2,-3.032773515E-2,-4.338750958E-2,5.458298203E-2
3.165374999E-2,1.691274237E-2,-3.262870587E-2,-1.917886734E-3,3.680151615E-2
4.165274999E-2,5.026942659E-3,-4.474735267E-2,-3.529671729E-2,5.721410643E-2
5.165174999E-2,8.175375927E-3,-4.536445320E-2,-4.428505719E-2,6.392133193E-2
6.164974999E-2,2.862460569E-2,-4.037396427E-2,-3.036283672E-2,5.806312854E-2
7.164874999E-2,2.024004562E-2,-3.423796926E-2,-1.898298562E-2,4.407098511E-2
8.164774999E-2,1.719176419E-2,-2.582685918E-2,-3.570894599E-3,3.123034901E-2
9.164574998E-2,1.804995272E-2,-2.637943933E-2,-1.809303939E-2,3.672919393E-2
1.016447500E-1,5.132631082E-3,-1.489008084E-2,-5.087486923E-2,5.325702515E-2
1.116437500E-1,2.700353824E-3,-4.918860532E-3,-4.818339586E-2,4.850903768E-2
1.216417500E-1,3.919315562E-3,-9.759459738E-3,-3.381561756E-2,3.541333195E-2
1.316407500E-1,2.329548988E-2,-1.607198585E-2,-1.136406362E-2,3.049804125E-2
1.416397500E-1,2.850835573E-2,-8.507223688E-3,-5.978193283E-3,3.034531259E-2
1.516377500E-1,7.061883342E-3,-1.635457082E-2,-2.394376338E-2,2.984369259E-2
1.616367500E-1,1.993900537E-3,-9.781130981E-3,-4.550186276E-2,4.658396374E-2
1.716357500E-1,9.096897114E-3,-9.102031700E-3,-3.352734983E-2,3.591216653E-2
1.816337500E-1,9.900468998E-3,-2.307053654E-2,-2.170369506E-2,3.318613146E-2
1.916327500E-1,2.002797442E-2,-2.094922151E-2,-2.126047611E-2,3.594436654E-2
2.016317500E-1,3.096170124E-2,-1.522479739E-2,-1.707386971E-2,3.849595337E-2
2.116297500E-1,1.062369648E-2,-3.387299336E-2,-2.845839858E-2,4.549860499E-2
2.216287500E-1,8.928807937E-3,-4.874620864E-2,-2.187618792E-2,5.417087839E-2
2.316277500E-1,1.325540034E-2,-3.728217591E-2,-2.426945329E-2,4.641845152E-2
2.416257500E-1,1.195503440E-2,-3.818736143E-2,-8.401279449E-3,4.088739313E-2
2.516247500E-1,2.061362788E-2,-3.989703247E-2,1.016129136E-2,4.604287889E-2
2.616237500E-1,1.210344404E-2,-2.903495232E-2,-1.528754532E-2,3.497471738E-2
2.716217500E-1,4.992316179E-3,-3.194417965E-2,-3.668952405E-2,4.890270963E-2
2.816207500E-1,7.821199112E-3,-3.264425581E-2,-4.626726329E-2,5.716186006E-2
2.916197500E-1,1.897130946E-2,-3.352550430E-2,-4.312613904E-2,5.782502823E-2
3.016177500E-1,1.686545301E-2,-3.309624558E-2,-1.992438734E-2,4.215194168E-2
3.116167500E-1,2.293676320E-2,-1.781109396E-2,4.350328445E-4,2.904340593E-2
3.216157500E-1,1.388757572E-2,-1.441512248E-2,-6.001582146E-3,2.089687784E-2
3.316137500E-1,4.481653254E-3,-3.413275592E-3,-2.217322648E-2,2.287766681E-2
3.416127500E-1,3.868079334E-3,5.356597714E-4,-2.172591448E-2,2.207406462E-2
3.516117500E-1,-2.022661529E-3,-1.870093055E-2,-3.116332054E-2,3.640011690E-2
3.616097500E-1,8.865018468E-3,-7.502836492E-3,-3.700936675E-2,3.878884292E-2
3.716087500E-1,8.663106803E-3,-8.408917375E-3,-2.144700229E-2,2.461164802E-2
3.816077500E-1,2.014448019E-2,-9.778682459E-3,-8.577865362E-3,2.397920947E-2
3.916057500E-1,2.469416214E-2,-1.330488240E-2,-2.279887855E-2,3.614706631E-2
4.016047500E-1,2.028269375E-2,-2.142871147E-2,-2.729012489E-2,4.019114651E-2
4.116037500E-1,2.629991719E-2,-9.695670269E-3,-2.759067178E-2,3.933111790E-2
4.216015000E-1,1.296585353E-2,-1.002444824E-2,-2.280355632E-2,2.808211355E-2
4.316005000E-1,1.469611773E-2,-2.557610499E-2,-1.906777024E-2,3.512396454E-2
4.415995000E-1,1.449672768E-2,-3.515936254E-2,-1.406255364E-3,3.805671349E-2
4.515975000E-1,6.619596295E-3,-4.760410124E-2,-2.311287403E-2,5.333080214E-2
4.615965000E-1,-8.348307330E-3,-4.448647549E-2,-5.185603201E-2,6.883159735E-2
4.715955000E-1,-1.600675285E-5,-4.550325148E-2,-3.509323418E-2,5.746373845E-2
4.815934999E-1,1.265772354E-2,-6.047409698E-2,-2.072428644E-2,6.516770995E-2
4.915925000E-1,1.663907440E-2,-5.934699135E-2,3.226493597E-3,6.171980590E-2
5.015915000E-1,2.444196442E-2,-4.091746297E-2,-1.098984182E-2,4.891242198E-2
5.115894999E-1,1.362509055E-2,-3.441985421E-2,-3.329638481E-2,4.978974491E-2
5.215884999E-1,1.878507564E-2,-2.006643813E-2,-3.374720514E-2,4.352487634E-2
5.315875000E-1,8.738736883E-3,-2.412879121E-2,-3.254969537E-2,4.144932757E-2
5.415855000E-1,1.847181106E-2,-1.057754003E-2,-2.880981624E-2,3.582035272E-2
5.515844999E-1,1.219453270E-2,1.450029083E-2,-2.417122006E-2,3.071177203E-2
5.615834999E-1,5.264924336E-3,1.496424912E-2,-1.579391420E-2,2.238517156E-2
5.715815000E-1,1.577092733E-2,7.266115621E-3,-3.046516299E-2,3.506629067E-2
5.815805000E-1,6.050735302E-3,2.613436790E-2,-4.947972357E-2,5.628374213E-2
5.915794999E-1,2.093895234E-2,1.840032885E-2,-3.422199905E-2,4.413793205E-2
6.015775000E-1,1.118424347E-2,7.742243428E-3,-2.046174645E-2,2.457056579E-2
6.115765000E-1,3.137641501E-2,-1.288152572E-2,-1.508230805E-2,3.711992915E-2
6.215755000E-1,9.929412715E-3,-3.059537318E-2,-2.152593970E-2,3.870447231E-2
6.315735000E-1,1.189007549E-2,-2.510012336E-2,-3.485466778E-2,4.456722960E-2
6.415725000E-1,6.880948562E-3,-3.250730306E-2,-2.393499255E-2,4.095065413E-2
6.515715000E-1,9.405666646E-3,-4.439993670E-2,-1.989982903E-2,4.955627245E-2
6.615695000E-1,3.381061088E-3,-4.948918875E-2,-2.095232785E-2,5.384804007E-2
6.715685000E-1,8.109119665E-3,-4.176030256E-2,-6.133729219E-3,4.298026670E-2
6.815675000E-1,1.418479700E-2,-4.201778105E-2,-1.975423336E-2,4.854824534E-2
6.915655000E-1,4.302673638E-3,-4.636608124E-2,-4.565038204E-2,6.520953819E-2
7.015645000E-1,4.788339715E-3,-5.162623644E-2,-4.445462644E-2,6.829648818E-2
7.115635000E-1,2.335122116E-3,-3.792390782E-2,-2.933255732E-2,4.800077602E-2
7.215615000E-1,2.543290302E-2,-3.874366919E-2,-1.750773311E-2,4.954215555E-2
7.315605000E-1,3.231567884E-2,-1.665473398E-2,5.995150208E-3,3.684596435E-2
7.415595000E-1,2.157611612E-2,-9.120011888E-3,-1.990158319E-2,3.073721551E-2
7.515585000E-1,3.621838465E-3,4.979817756E-3,-3.397290766E-2,3.452643558E-2
7.615565000E-1,4.427511692E-3,-2.785302904E-3,-4.265368402E-2,4.297321878E-2
7.715555000E-1,6.543600764E-3,-5.425905492E-3,-4.040542960E-2,4.128992495E-2
7.815545000E-1,1.140515858E-2,-5.668784212E-3,-2.514068842E-2,2.818274243E-2
7.915525000E-1,2.287869304E-2,-9.573280737E-3,-4.432189465E-4,2.480481289E-2
8.015515000E-1,3.196325619E-3,7.745971028E-3,-3.113408446E-2,3.224201886E-2
8.115505000E-1,1.045365214E-2,-8.226959333E-3,-3.637962162E-2,3.873549500E-2
8.215485000E-1,1.103473747E-2,-5.721920785E-3,-2.665336311E-2,2.940931100E-2
8.315475000E-1,4.047588855E-3,-3.683088049E-3,-3.563585579E-2,3.605360358E-2
8.415465000E-1,1.013454035E-2,-3.617306873E-3,-7.642895579E-3,1.319877532E-2
8.515445000E-1,1.856786985E-2,-9.486632310E-3,2.812510729E-4,2.085284358E-2
8.615435000E-1,2.068675462E-2,-2.209313789E-2,-1.693879902E-2,3.468387912E-2
8.715425000E-1,1.391553272E-2,-2.537168998E-2,-3.909799218E-2,4.864172793E-2
8.815405000E-1,1.509833308E-2,-3.677257279E-2,-3.535928249E-2,5.320207355E-2
8.915395000E-1,1.087112507E-2,-3.208155267E-2,-2.727843046E-2,4.349161012E-2
9.015385000E-1,2.476875069E-2,-3.767660715E-2,-2.882092595E-3,4.518101586E-2
9.115365000E-1,1.117300585E-2,-4.151630921E-2,-6.774584055E-3,4.352395868E-2
9.215355000E-1,-4.658330530E-3,-3.482742341E-2,-2.922555327E-2,4.570319933E-2
9.315345000E-1,-4.286082163E-3,-3.232865235E-2,-4.418799341E-2,5.491894959E-2
9.415325000E-1,-5.899456870E-3,-2.733030623E-2,-3.265552998E-2,4.298991589E-2
9.515315000E-1,1.424604658E-2,-3.241541041E-2,-2.277373552E-2,4.209930765E-2
9.615305000E-1,2.522070391E-2,-3.044202995E-2,3.874949813E-3,3.972173623E-2
9.715285000E-1,2.042560335E-2,-2.477637034E-2,-7.347611189E-3,3.294026699E-2
9.815275000E-1,1.662129521E-2,-4.368436541E-3,-3.488507330E-2,3.888854628E-2
9.915265000E-1,4.117408264E-3,-4.526146911E-3,-4.985569954E-2,5.022977039E-2
1.001524500E0,7.283803448E-3,5.794846527E-3,-3.638312995E-2,3.755484235E-2
1.011523500E0,2.075909564E-2,7.531414758E-3,-2.051086307E-2,3.013897417E-2
1.021522500E0,1.930032497E-2,1.775804875E-2,-2.125989139E-2,3.376142505E-2
1.031520500E0,1.368789330E-2,1.927790456E-2,-2.425600469E-2,3.387255217E-2
1.041519500E0,2.687033135E-3,1.003758620E-2,-3.698246956E-2,3.841453291E-2
1.051518500E0,1.757490300E-3,-4.303733446E-3,-2.830578625E-2,2.868498613E-2
1.061516500E0,1.569209956E-3,-1.907705270E-2,-2.367186785E-2,3.044262943E-2
1.071515500E0,1.093118694E-2,-1.272924230E-2,-1.424791038E-2,2.201198327E-2
1.081514500E0,9.678366166E-3,-2.294628320E-2,8.659726381E-4,2.491892038E-2
1.091512500E0,5.439408906E-3,-3.476169705E-2,-2.803272128E-2,4.498662261E-2
1.101511500E0,1.800902221E-2,-3.549396945E-2,-3.881030917E-2,5.559124793E-2
1.111510500E0,1.132771952E-2,-4.002473932E-2,-3.297420323E-2,5.308102359E-2
1.121508500E0,7.145754341E-3,-5.440536322E-2,-3.716490269E-2,6.627394167E-2
1.131507500E0,1.291421531E-2,-4.841719313E-2,-7.374508381E-3,5.064962903E-2
1.141506500E0,1.478031764E-2,-3.787075298E-2,-8.718198538E-3,4.157714163E-2
1.151504500E0,1.323462445E-2,-3.256957591E-2,-1.620204985E-2,3.870967552E-2
1.161503500E0,1.615024718E-2,-1.166291116E-2,-1.575707674E-2,2.539959543E-2
1.171502500E0,1.734622205E-2,-1.819553012E-2,-3.746369541E-2,4.511648489E-2
1.181500500E0,1.895215983E-2,-1.047439149E-2,-3.866062045E-2,4.431185860E-2
1.191499500E0,2.513802063E-2,-2.017289400E-3,-2.638673007E-2,3.649998715E-2
1.201498500E0,1.628672484E-2,-5.289336462E-3,-1.336498082E-2,2.172227425E-2
1.211497500E0,1.062179614E-2,-3.741304390E-3,-9.922724962E-3,1.500934317E-2
1.221495500E0,5.482751392E-3,-2.184665948E-3,-2.384669960E-2,2.456620463E-2
1.231494500E0,-3.207965232E-3,-3.164056297E-3,-3.702456951E-2,3.729773506E-2
1.241493500E0,-8.917186595E-4,2.731727790E-3,-3.792621017E-2,3.803491707E-2
1.251491500E0,7.678289507E-3,-1.393386008E-2,-3.358699143E-2,3.716442627E-2
1.261490500E0,8.943480793E-3,-1.164250072E-2,-1.023847461E-2,1.789860425E-2
1.271489500E0,2.316887939E-2,2.868808452E-3,1.137868166E-3,2.337352730E-2
1.281487500E0,1.677348727E-2,-7.933666650E-3,-1.937124074E-2,2.682420380E-2
1.291486500E0,4.289097134E-3,-1.249281378E-2,-4.796178639E-2,4.974735877E-2
1.301485500E0,1.052297819E-2,-1.091903569E-2,-3.344198048E-2,3.671953797E-2
1.311483500E0,1.601757020E-2,-1.453597711E-2,-1.368306935E-2,2.559460046E-2
1.321482500E0,9.514954761E-3,-2.035032045E-2,2.630662322E-3,2.261836181E-2
1.331481500E0,6.763309892E-3,-1.746035239E-2,-7.397312522E-3,2.013272209E-2
1.341479500E0,7.058448102E-3,-2.030695969E-2,-4.347638726E-2,4.850144896E-2
1.351478500E0,1.347920252E-2,-2.536233444E-2,-4.168480039E-2,5.062172944E-2
1.361477500E0,1.574320788E-2,-2.978500390E-2,-1.684115052E-2,3.766456428E-2
1.371475500E0,3.699169720E-2,-3.148698220E-2,-1.774162173E-2,5.171634994E-2
1.381474500E0,2.749583725E-2,-2.697337026E-2,-5.166015029E-3,3.886221147E-2
1.391473500E0,1.283399882E-2,-2.419258067E-2,-1.399589539E-2,3.075512271E-2
1.401471500E0,-2.739603259E-4,-2.537815847E-2,-3.824429870E-2,4.589937215E-2
1.411470500E0,-7.224198394E-3,-2.035092345E-2,-4.303433776E-2,4.814876274E-2
1.421469667E0,-5.291054081E-3,-1.420213765E-2,-2.732520819E-2,3.124680735E-2
1.431467667E0,-2.696936857E-3,-1.018263370E-2,-2.523132026E-2,2.734189130E-2
1.441466667E0,1.320745317E-2,-4.825487807E-3,-2.433143377E-2,2.810232769E-2
1.451465667E0,2.567581829E-2,-6.314006187E-3,-3.660532415E-2,4.515599711E-2
1.461463667E0,3.073066313E-2,2.744536847E-4,-3.046925604E-2,4.327614291E-2
1.471462667E0,2.621496812E-2,7.931656670E-3,-3.107268870E-2,4.142037800E-2
1.481461667E0,1.304751355E-2,5.135956686E-3,-2.224631667E-2,2.629665885E-2
1.491459667E0,1.505857201E-2,-2.843902968E-3,4.240400791E-3,1.590060923E-2
1.501458667E0,8.609093148E-3,8.690460809E-3,-1.761473715E-2,2.144573521E-2
1.511457667E0,1.078043841E-3,-3.895396795E-3,-4.441369593E-2,4.459722728E-2
1.521455667E0,-3.130727168E-3,-1.788261272E-2,-5.639464080E-2,5.924478713E-2
1.531454667E0,-1.325965784E-3,-2.170031464E-2,-5.475332737E-2,5.891170256E-2
1.541453667E0,1.520416768E-2,-3.339997189E-2,-1.763227880E-2,4.071390540E-2
1.551451667E0,1.967982754E-2,-3.738137757E-2,2.124878168E-3,4.229867739E-2
1.561450667E0,1.620221430E-2,-3.208930023E-2,-1.194410741E-2,3.788002956E-2
1.571449667E0,4.863640890E-3,-2.725672267E-2,-5.949541926E-3,2.831926875E-2
1.581447667E0,-2.349539157E-3,-3.257176861E-2,-3.438981414E-2,4.742467460E-2
1.591446667E0,-4.850155748E-3,-2.684211854E-2,-4.591935396E-2,5.340983436E-2
1.601445667E0,1.204361971E-3,-1.370061100E-2,-3.289409637E-2,3.565359457E-2
1.611443667E0,1.506657539E-2,-1.663847141E-2,-1.283814669E-2,2.585843064E-2
1.621442667E0,1.886918418E-2,-2.137400346E-2,-1.074952126E-2,3.047041750E-2
1.631441667E0,2.197252080E-2,-1.641349979E-3,-2.332395852E-2,3.208570929E-2
1.641440667E0,1.142778000E-2,7.737784926E-3,-3.919096291E-2,4.154995843E-2
1.651438667E0,1.451050518E-2,-7.870589811E-3,-3.604808450E-2,3.964801812E-2
1.661437667E0,1.659222359E-2,1.227637544E-2,-3.141007304E-2,3.758462407E-2
1.671436667E0,1.352778923E-2,5.843414962E-3,-1.689611435E-2,2.241930552E-2
1.681434667E0,1.185725799E-2,5.813320074E-3,-1.615117908E-2,2.086264228E-2
1.691433667E0,-1.448245682E-3,2.408157494E-3,-3.755374253E-2,3.765873359E-2
1.701432667E0,-7.740233447E-3,-1.664766250E-2,-4.174795032E-2,4.560643854E-2
1.711430667E0,-6.276236828E-3,-1.992120791E-2,-2.767838001E-2,3.467475153E-2
1.721429667E0,1.579829961E-2,-2.315055203E-2,-2.304153800E-2,3.628287204E-2
1.731428667E0,2.207947003E-2,-2.923708325E-2,-1.241890132E-2,3.868512820E-2
1.741426667E0,1.133663652E-2,-3.028813854E-2,-1.840177238E-2,3.720908344E-2
1.751425667E0,1.061403031E-2,-2.518123521E-2,-3.322387934E-2,4.301834962E-2
1.761424667E0,1.100336351E-2,-1.897066992E-2,-3.576449454E-2,4.195306181E-2
1.771422667E0,1.159058841E-2,-3.379390977E-2,-3.292099357E-2,4.858149745E-2
1.781421667E0,6.399722714E-3,-1.913088363E-2,-2.438698232E-2,3.164920324E-2
1.791420667E0,1.063546401E-2,-1.210211014E-2,-9.267252088E-3,1.858645006E-2
1.801418667E0,9.027954787E-3,-2.872389872E-3,-2.034597158E-2,2.244355477E-2
1.811417667E0,8.445572108E-4,-4.993814528E-3,-2.873029411E-2,2.917329704E-2
1.821416667E0,8.551443256E-3,1.879002750E-3,-3.381795645E-2,3.493296454E-2
1.831414667E0,1.579623481E-2,-9.146068543E-3,-3.082710564E-2,3.582571767E-2
1.841413667E0,6.212703176E-3,-5.194593295E-3,-1.047119379E-2,1.323734791E-2
1.851412667E0,5.691277720E-3,-1.128225742E-2,-3.516924798E-2,3.737052285E-2
1.861410667E0,2.271515373E-3,-1.941805501E-2,-3.322154045E-2,3.854726180E-2
1.871409667E0,1.128490694E-2,-1.448178073E-2,-3.890854239E-2,4.302261927E-2
1.881408667E0,2.648489021E-2,-1.386122670E-2,-3.591710687E-2,4.672923689E-2
1.891406667E0,1.395829048E-2,-1.880020531E-2,-1.241480827E-2,2.650300091E-2
1.901405667E0,1.016518341E-2,-9.006082546E-3,-3.436408639E-3,1.400890363E-2
1.911404667E0,1.737220561E-2,-2.275681514E-3,-1.346496820E-2,2.209700484E-2
1.921402667E0,1.192870365E-2,-2.422757261E-4,-3.397583127E-2,3.600985669E-2
1.931401667E0,4.827808421E-3,-1.544817930E-2,-4.310976684E-2,4.604786613E-2
1.941400667E0,5.888676066E-3,-1.693309799E-2,-5.074739993E-2,5.382104526E-2
1.951398667E0,1.178378407E-3,-1.507423159E-2,-3.652638674E-2,3.953223952E-2
1.961397667E0,1.380955193E-2,-9.224713594E-3,-1.198386848E-2,2.047955491E-2
1.971396667E0,1.910818912E-2,-2.601981729E-2,-2.106167078E-3,3.235103898E-2
1.981394667E0,1.427654346E-2,-2.090982590E-2,-1.812052131E-2,3.113508961E-2
1.991393667E0,1.160343401E-3,-2.886965884E-2,-3.338701665E-2,4.415310271E-2
2.001392667E0,8.412224706E-3,-3.115020085E-2,-3.697720706E-2,4.907559862E-2
2.011390667E0,1.488079838E-3,-2.558047213E-2,-3.652989507E-2,4.462071458E-2
2.021389667E0,1.421655469E-2,-2.358322771E-2,-1.781997442E-2,3.279985587E-2
2.031388667E0,1.320703290E-2,-2.696284527E-2,-1.661895633E-2,3.431632924E-2
2.041387667E0,9.803514853E-3,-1.963546179E-2,-1.766209960E-2,2.817108492E-2
2.051385667E0,1.362242276E-2,-1.388461556E-2,-3.248128295E-2,3.786009368E-2
2.061384667E0,1.290672356E-2,-6.091483086E-3,-3.188545167E-2,3.493381897E-2
2.071383667E0,7.827576231E-3,1.914122589E-3,-3.922136843E-2,4.004061134E-2
2.081381667E0,1.724247051E-2,5.582300238E-3,-1.991386235E-2,2.692632130E-2
2.091380667E0,2.210927255E-2,9.008421432E-3,4.783022404E-3,2.434848851E-2
2.101379667E0,2.021643749E-2,6.605763976E-3,-1.752293587E-2,2.755709970E-2
2.111377667E0,2.696808949E-3,-6.361989900E-3,-4.985336065E-2,5.032996386E-2
2.121376667E0,-1.124273390E-3,-9.219834823E-3,-4.610938847E-2,4.703557218E-2
2.131375667E0,6.729176771E-3,-8.779100943E-3,-3.832674444E-2,3.989102371E-2
2.141373667E0,8.838358819E-3,-2.299974868E-2,-7.644065022E-3,2.579799907E-2
2.151372667E0,1.165850747E-2,-2.766758094E-2,6.721959114E-3,3.076687449E-2
2.161371667E0,7.754175402E-3,-2.492805077E-2,-2.246851087E-2,3.444370671E-2
2.171369667E0,7.173144892E-3,-1.265171187E-2,-4.717065811E-2,4.936183554E-2
2.181368667E0,8.773820177E-3,-2.137301674E-2,-3.669244766E-2,4.336036762E-2
2.191367667E0,2.162832079E-2,-3.655746834E-2,-3.055754900E-2,5.232586887E-2
2.201365667E0,2.640153084E-2,-3.217814136E-2,-2.022727311E-2,4.627759922E-2
2.211364667E0,2.436642570E-2,-2.500834035E-2,-6.749441028E-3,3.556254691E-2
2.221363667E0,1.253520610E-2,-1.808905598E-2,-2.141659677E-2,3.070856485E-2
2.231361667E0,4.504165035E-3,-1.550911825E-2,-4.252212167E-2,4.548572394E-2
2.241360667E0,3.766812868E-3,-1.373836208E-2,-4.312029183E-2,4.541245467E-2
2.251359667E0,6.679183077E-3,-3.663865328E-3,-2.770176888E-2,2.873018264E-2
2.261357667E0,9.668681715E-3,-4.225910660E-3,-2.396072030E-2,2.618124986E-2
2.271356667E0,1.113861691E-2,-5.138715841E-3,-2.067107677E-2,2.403681764E-2
2.281355667E0,-1.284980457E-3,-1.272651969E-2,-3.234796643E-2,3.478514640E-2
2.291353667E0,9.282546211E-3,-5.660835654E-3,-3.699416399E-2,3.855877194E-2
2.301352667E0,1.785783514E-2,-1.031092526E-2,-3.070957661E-2,3.699047920E-2
2.311351667E0,1.820135906E-2,-7.445424143E-3,-1.229727924E-2,2.319368209E-2
2.321349667E0,8.565805480E-3,-1.996166334E-3,-1.519106627E-3,8.925546958E-3
2.331348667E0,8.378201220E-3,-1.090889443E-3,-1.663532853E-2,1.865793265E-2
2.341347667E0,2.439421825E-3,1.590844654E-3,-4.328225970E-2,4.338012875E-2
2.351345667E0,4.728953931E-3,1.827163529E-3,-4.747471333E-2,4.774463255E-2
2.361344667E0,7.929427419E-3,-2.090571458E-2,-3.415124774E-2,4.081951057E-2
2.371343667E0,2.008500304E-2,-1.793554829E-2,-2.562132955E-2,3.716912385E-2
2.381341667E0,2.486658191E-2,-1.147220057E-2,-1.260308862E-2,3.014624561E-2
2.391340667E0,2.783696746E-2,-2.035346333E-2,-1.290538967E-2,3.681995803E-2
2.401339667E0,1.161872813E-2,-2.391827317E-2,-1.964722931E-2,3.306194572E-2
2.411338667E0,1.965651177E-3,-2.487533446E-2,-2.129029691E-2,3.280126205E-2
2.421337000E0,4.502337780E-3,-2.076324351E-2,-4.059487939E-2,4.581841943E-2
2.431336000E0,3.578733522E-3,-1.475173937E-2,-3.700001121E-2,3.999277406E-2
2.441335000E0,1.619070260E-2,-2.874498524E-2,-4.817520976E-3,3.334098882E-2
2.451333000E0,1.898517832E-2,-3.298741428E-2,-1.394853294E-2,4.053600952E-2
2.461332000E0,1.479575794E-2,-2.160650337E-2,-3.026109517E-2,4.001861219E-2
2.471331000E0,2.416745592E-3,-1.494135361E-2,-4.477797747E-2,4.726681683E-2
2.481329000E0,1.664409935E-3,-2.008765256E-2,-3.683570445E-2,4.198991745E-2
2.491328000E0,9.978127331E-3,-1.173481364E-3,-2.635690928E-2,2.820685644E-2
2.501327000E0,1.886944000E-2,5.760494135E-3,-1.063900888E-2,2.241489613E-2
2.511325000E0,1.304935908E-2,2.298065387E-3,-1.213472664E-2,1.796714968E-2
2.521324000E0,4.257851075E-3,7.286909781E-4,-2.949978769E-2,2.981438847E-2
2.531323000E0,7.488291543E-3,-1.884996146E-4,-3.324317515E-2,3.407665970E-2
2.541321000E0,-2.254046816E-3,1.045208070E-3,-3.653749645E-2,3.662187643E-2
2.551320000E0,1.109436080E-2,-7.404146455E-3,-2.935009897E-2,3.223871176E-2
2.561319000E0,1.339315709E-2,-1.403083250E-2,-3.758005500E-3,1.975761936E-2
2.571317000E0,1.090290103E-2,-4.964304361E-3,-2.172182143E-2,2.480635190E-2
2.581316000E0,7.386294175E-3,-9.445793163E-3,-2.591544449E-2,2.855504532E-2
2.591315000E0,5.152749158E-3,-6.659247726E-3,-3.535168111E-2,3.634058010E-2
2.601313000E0,1.457621327E-2,-1.076775726E-2,-2.517460227E-2,3.101888439E-2
2.611312000E0,1.572208481E-2,-2.458935080E-2,-6.762889624E-3,2.995925232E-2
2.621311000E0,1.384476313E-2,-3.757135727E-2,-1.065771997E-2,4.143514629E-2
2.631309000E0,1.208692566E-2,-4.215170056E-2,-3.894947290E-2,5.865084033E-2
2.641308000E0,8.591551501E-3,-3.299178142E-2,-5.466561913E-2,6.442516833E-2
2.651307000E0,1.057262471E-2,-2.743807772E-2,-3.580425560E-2,4.633112584E-2
2.661305000E0,1.300862957E-2,-3.034799941E-2,-6.758211851E-3,3.370309984E-2
2.671304000E0,2.182107791E-2,-3.449270686E-2,-8.398940563E-3,4.167071478E-2
2.681303000E0,1.001604287E-2,-2.148080651E-2,-2.187034070E-2,3.224992970E-2
2.691301000E0,3.619992938E-3,-1.179935228E-2,-2.650835216E-2,2.924075576E-2
2.701300000E0,1.902592611E-3,-1.825888105E-2,-3.803204477E-2,4.223083027E-2
2.711299000E0,6.635493413E-4,-1.028073901E-2,-2.441212535E-2,2.649690088E-2
2.721297000E0,1.781703254E-2,3.941151258E-3,-1.737090826E-2,2.519380431E-2
2.731296000E0,1.650166484E-2,1.035302522E-2,-2.185689211E-2,2.927821385E-2
2.741295000E0,1.741143677E-2,2.027372193E-2,-3.083880007E-2,4.080702784E-2
2.751293000E0,1.631298250E-2,1.466123544E-2,-3.114110112E-2,3.808980706E-2
2.761292000E0,6.624182705E-3,1.207181426E-2,-3.848111093E-2,4.087058104E-2
2.771291000E0,1.162059193E-2,-4.500821158E-3,-4.162808239E-2,4.345334040E-2
2.781289000E0,2.122676326E-2,-3.713694569E-3,-3.130014539E-2,3.800086982E-2
2.791288000E0,2.209459970E-2,-8.983716946E-3,-1.154474258E-2,2.649829405E-2
2.801287000E0,6.706116814E-3,-1.574695375E-2,-8.706504107E-3,1.920265005E-2
2.811285000E0,1.740990188E-3,-1.304935908E-2,-3.101129293E-2,3.369001497E-2
2.821284000E0,-3.902084548E-3,-2.329178056E-2,-4.208942771E-2,4.826233760E-2
2.831283000E0,4.858086035E-3,-3.139156295E-2,-3.505522728E-2,4.730644971E-2
2.841281000E0,8.950278182E-3,-2.906703891E-2,-2.637386620E-2,4.025644109E-2
2.851280000E0,1.180200180E-2,-3.555845328E-2,-1.020982325E-2,3.883209158E-2
2.861279000E0,1.270267401E-2,-3.278588634E-2,-2.233636379E-2,4.165555686E-2
2.871278000E0,1.065708043E-2,-1.335527809E-2,-2.428757966E-2,2.969551047E-2
2.881276000E0,6.317752060E-3,-2.118014999E-2,-3.132587314E-2,3.833827164E-2
2.891275000E0,1.406785268E-3,-1.330234252E-2,-5.288280308E-2,5.454834757E-2
2.901274000E0,2.511196397E-3,-3.382018570E-2,-6.630742550E-3,3.455543105E-2
2.911272000E0,7.770474516E-3,-5.074597467E-2,-6.779846549E-3,5.178320711E-2
2.921271000E0,5.093058223E-2,-2.197036464E-2,-1.411400914E-2,5.723483539E-2
2.931270000E0,4.505782155E-2,1.889728736E-3,-1.486829996E-2,4.748520508E-2
2.941268000E0,4.715211147E-2,-1.910102628E-3,-5.079593182E-2,6.933395126E-2
2.951267000E0,2.694287337E-2,-1.368729031E-2,-4.240693152E-2,5.207310421E-2
2.961266000E0,-3.269726448E-3,-2.746674735E-3,-1.141025662E-2,1.218315597E-2
2.971264000E0,-4.061658718E-3,4.123242689E-2,7.902511954E-3,4.217890224E-2
2.981263000E0,-6.678945534E-2,4.817102535E-2,-1.754574001E-2,8.419698344E-2
2.991262000E0,-6.281482877E-2,6.789021196E-2,-7.009817541E-2,1.160540296E-1
3.001260000E0,-5.981255762E-2,2.664850261E-3,-6.517014205E-2,8.849740613E-2
3.011259000E0,-1.194138480E-2,-3.093557149E-2,-4.705839157E-3,3.349255405E-2
3.021258000E0,8.219758121E-2,-3.357447473E-2,-2.461970150E-2,9.214020519E-2
3.031256000E0,1.029911754E-1,-1.204111638E-2,-2.612360537E-2,1.069327520E-1
3.041255000E0,1.021021063E-1,-2.025216032E-2,3.299934626E-2,1.091968267E-1
3.051254000E0,4.499224138E-2,-2.688346932E-2,-1.579332948E-2,5.473985717E-2
3.061252000E0,-1.556366181E-2,-2.779607350E-2,-6.997479916E-2,7.688512072E-2
3.071251000E0,-7.079467015E-2,6.389252543E-3,-4.123573422E-2,8.217720881E-2
3.081250000E0,-6.044411173E-2,-1.802742267E-2,-1.490104437E-2,6.481141670E-2
3.091248000E0,-5.026862260E-2,-5.832184654E-2,-1.438999772E-3,7.700936905E-2
3.101247000E0,-5.292150434E-3,-8.645539574E-2,-3.407698810E-2,9.307944686E-2
3.111246000E0,2.534685759E-2,-5.566008434E-2,-5.069594443E-2,7.943920291E-2
3.121244000E0,6.739508070E-2,-2.958586967E-2,-7.141204476E-3,7.394874839E-2
3.131243000E0,1.076825245E-1,-1.309860360E-2,-8.035828471E-3,1.087734987E-1
3.141242000E0,5.941430742E-2,-6.650513448E-3,-1.012211502E-2,6.063618118E-2
3.151240000E0,3.387346845E-3,2.134520592E-2,-1.310653389E-2,2.527594044E-2
3.161239000E0,-4.880036848E-2,3.213768594E-2,-3.436116278E-2,6.778640224E-2
3.171238000E0,-4.492220270E-2,8.620623127E-4,-5.621630073E-2,7.196540776E-2
3.181236000E0,-3.616468163E-2,-2.357085720E-2,-7.627575874E-2,8.764394376E-2
3.191235000E0,1.347691845E-3,-2.273081331E-2,-4.110241771E-2,4.698845484E-2
3.201234000E0,6.217728127E-2,9.883091804E-3,1.787318408E-2,6.544570665E-2
3.211232000E0,7.093328571E-2,5.188934287E-2,2.235624433E-2,9.068537140E-2
3.221231000E0,2.682757359E-2,3.284695320E-2,-1.057702839E-2,4.370943341E-2
3.231230000E0,1.522139870E-3,4.723801073E-2,-4.500660360E-2,6.526362643E-2
3.241228000E0,-2.603562305E-2,2.640465545E-2,-4.545508504E-2,5.866194893E-2
3.251227000E0,-3.067648502E-2,-9.166478980E-3,-3.318587244E-2,4.611261432E-2
3.261226000E0,-1.203219937E-2,-4.155776963E-2,-3.588436246E-2,5.620951438E-2
3.271224000E0,8.441479057E-3,-5.507631294E-2,-1.478117645E-2,5.764669976E-2
3.281223000E0,3.982008677E-2,-4.336835995E-2,-2.961614728E-3,5.895104000E-2
3.291222000E0,4.085398413E-2,-3.626980361E-2,-3.739177465E-2,6.620189941E-2
3.301220000E0,2.768398969E-2,-2.251558095E-2,-3.065519750E-2,4.704355221E-2
3.311219000E0,1.045288470E-2,-1.413637474E-2,-1.014842749E-2,2.030001157E-2
3.321218000E0,-2.081681862E-2,-1.089506211E-2,-3.260992169E-3,2.372080070E-2
3.331216000E0,-3.060630016E-2,-3.327191787E-2,-7.155822515E-3,4.577086326E-2
3.341215000E0,-3.199877802E-2,-5.152098656E-2,-3.335310280E-2,6.921534019E-2
3.351214000E0,-7.469525635E-3,-8.103446038E-2,-5.895338237E-2,1.004882027E-1
3.361213000E0,4.487672232E-2,-5.929087635E-2,-3.380392313E-2,8.168251614E-2
3.371211000E0,7.083581993E-2,-2.263674622E-2,-8.500682116E-3,7.484916340E-2
3.381210000E0,6.457588222E-2,1.229870450E-3,-5.496967435E-3,6.482109068E-2
3.391209000E0,3.376472851E-2,1.955160907E-2,-1.536999106E-2,4.193517538E-2
3.401207000E0,-1.209849218E-2,2.067569973E-2,-3.557036698E-2,4.288483507E-2
3.411206000E0,-3.716599904E-2,3.141104149E-2,-6.850247025E-2,8.402709946E-2
3.421204375E0,-2.844244665E-2,1.670481903E-2,-4.994282305E-2,5.985239615E-2
3.431202375E0,-6.068733763E-3,7.972824723E-3,-1.148451626E-2,1.524104909E-2
3.441201375E0,1.200232375E-2,1.328779757E-3,-2.257551491E-2,2.560225195E-2
3.451200375E0,1.664793659E-2,1.255134076E-2,-2.243635118E-2,3.062808845E-2
3.461198375E0,3.484350326E-2,8.982273415E-3,-2.513601065E-2,4.389270994E-2
3.471197375E0,3.340826763E-2,2.009848818E-2,-3.816185296E-2,5.455628831E-2
3.481196375E0,2.478060957E-2,5.477525443E-3,-2.828999877E-2,3.800534076E-2
3.491194375E0,-2.329950985E-3,1.004387196E-3,-1.916015625E-2,1.932741713E-2
3.501193375E0,-9.465235155E-3,-1.871934928E-2,-3.098498046E-2,3.741755909E-2
3.511192375E0,-4.290156942E-3,-3.520011032E-2,-2.365198731E-2,4.262475474E-2
3.521190375E0,-2.509369142E-3,-4.236877844E-2,-1.227973759E-2,4.418373315E-2
3.531189375E0,1.989432899E-2,-4.401645072E-2,-2.231005132E-2,5.320686657E-2
3.541188375E0,1.428661164E-2,-3.369048715E-2,-1.827021003E-2,4.090179422E-2
3.551186375E0,1.400828417E-2,-4.169349812E-2,-5.701035261E-3,4.435179381E-2
3.561185375E0,3.738618325E-3,-3.338851500E-2,-2.007115245E-2,3.913593440E-2
3.571184375E0,5.332002863E-3,-2.149646608E-2,-2.501029551E-2,3.340723260E-2
3.581182375E0,5.414265878E-3,-2.228668073E-2,-2.410923958E-2,3.327560437E-2
3.591181375E0,4.437598139E-3,-1.015345244E-2,-4.521359503E-2,4.655162778E-2
3.601180375E0,8.399708010E-4,-2.103418887E-2,-4.685783207E-2,5.136924254E-2
3.611178375E0,7.057461385E-3,-2.352939678E-2,-2.739420533E-2,3.679514587E-2
3.621177375E0,1.765062444E-2,8.687135205E-4,1.062965333E-2,2.062252982E-2
3.631176375E0,-8.448605351E-3,1.481008362E-3,-1.451980591E-2,1.686407666E-2
3.641174375E0,-2.079416066E-5,2.372789148E-2,-2.499567747E-2,3.446443324E-2
3.651173375E0,-1.599800030E-2,1.000694314E-2,-2.215159178E-2,2.909927736E-2
3.661172375E0,-4.127640892E-3,2.309268286E-2,-5.582863033E-2,6.055695984E-2
3.671170375E0,2.435982931E-2,3.471316516E-2,-4.654909909E-2,6.297002260E-2
3.681169375E0,2.474766416E-2,5.833767056E-3,-1.137751222E-2,2.785547530E-2
3.691168375E0,6.220693761E-2,6.802559327E-3,-1.137517333E-2,6.360324260E-2
3.701166375E0,1.711821718E-2,1.913629230E-3,-2.305264771E-2,2.877707252E-2
3.711165375E0,-1.443491165E-2,-1.036254521E-3,-2.724100828E-2,3.084660484E-2
3.721164375E0,-2.916128872E-2,-9.077619575E-4,-5.852302730E-2,6.539227413E-2
3.731162375E0,-3.932427943E-2,-2.877082262E-2,-4.610178709E-2,6.707856558E-2
3.741161375E0,4.497897550E-3,-3.461109471E-2,3.594283462E-3,3.508671875E-2
3.751160375E0,2.127838321E-2,-4.118499136E-2,-8.530502915E-3,4.713536448E-2
3.761158375E0,4.954343995E-2,-3.762752708E-2,-2.709892094E-2,6.785819591E-2
3.771157375E0,3.154306065E-2,-3.538725777E-2,-5.554445565E-2,7.302334723E-2
3.781156375E0,3.891325671E-2,-3.765729306E-2,-2.994242191E-2,6.187779811E-2
3.791154375E0,2.654891722E-3,-5.035784746E-2,-1.391988158E-2,5.231371095E-2
3.801153375E0,-6.336865146E-3,-3.138038015E-2,-2.385663986E-3,3.210257795E-2
3.811152375E0,-3.383129541E-2,-1.400442867E-2,-6.127297282E-3,3.712444401E-2
3.821150375E0,-5.107409483E-2,-8.040487971E-3,-3.532010615E-2,6.261567302E-2
3.831149375E0,-2.798066279E-2,-1.800010521E-2,-5.762781858E-2,6.654236810E-2
3.841148375E0,-3.827368096E-4,-9.451037385E-3,-4.446164310E-2,4.545664200E-2
3.851146375E0,7.949134363E-2,1.018970517E-2,-1.916249514E-2,8.240087999E-2
3.861145375E0,6.945662621E-2,2.423279855E-2,-6.737746596E-3,7.387048585E-2
3.871144375E0,6.288254684E-2,1.521292023E-2,-9.430974126E-3,6.538035570E-2
3.881142375E0,2.275144301E-2,1.492722893E-2,-3.352793455E-2,4.318069844E-2
3.891141375E0,-8.218133692E-3,2.913084665E-2,-4.729520380E-2,5.615140471E-2
3.901140375E0,-1.644253487E-2,4.024938203E-2,-3.471842766E-2,5.563936490E-2
3.911139375E0,-3.277488627E-2,1.651085593E-2,-2.229309440E-2,4.293930124E-2
3.921137375E0,-2.719861597E-2,2.995473761E-3,-1.136406362E-2,2.962903163E-2
3.931136375E0,-2.409202684E-2,-1.014287263E-2,-2.693695307E-2,3.753535750E-2
3.941135375E0,4.994636793E-3,-3.375447761E-2,-5.912353635E-2,6.826348736E-2
3.951133375E0,2.135675417E-2,-3.080397259E-2,-3.712046385E-2,5.275343129E-2
3.961132375E0,4.728285156E-2,-2.884862714E-2,-7.938179970E-3,5.595467845E-2
3.971131375E0,4.715730088E-2,-2.742746137E-2,-8.089038134E-3,5.514987943E-2
3.981129375E0,3.183514735E-2,-2.323067715E-2,-1.153304815E-2,4.106278324E-2
3.991128375E0,7.093823757E-3,-3.576230183E-2,-4.147313118E-2,5.522033301E-2
4.001127375E0,-1.396748157E-2,-2.306799665E-2,-4.806118906E-2,5.510989842E-2
4.011125375E0,-1.335169667E-2,-2.898492208E-2,-3.817939460E-2,4.976002094E-2
4.021124375E0,-2.319389451E-2,-2.725323262E-2,-2.784502566E-2,4.534358703E-2
4.031123375E0,-6.234465782E-3,-3.137727382E-2,-1.123016238E-2,3.390454870E-2
4.041121375E0,4.598085936E-3,-1.946123304E-2,-5.090001225E-3,2.063468192E-2
4.051120375E0,2.607953198E-2,-1.409533460E-2,-2.245506227E-2,3.718938380E-2
4.061119375E0,2.452526897E-2,-6.393382140E-4,-3.981603026E-2,4.676765803E-2
4.071117375E0,1.192830166E-2,-3.079801574E-3,-3.592353880E-2,3.797723263E-2
4.081116375E0,2.211659985E-2,-6.548022721E-3,-3.817179322E-2,4.459939897E-2
4.091115375E0,1.262499740E-2,-3.286555465E-3,-5.382946730E-3,1.411269364E-2
4.101113375E0,5.638561416E-3,5.714081861E-3,-1.016889274E-2,1.295571248E-2
4.111112375E0,-8.967417832E-3,1.150262436E-2,-3.172114491E-2,3.491355015E-2
4.121111375E0,-1.036965324E-2,1.009021115E-2,-4.864298701E-2,5.074920940E-2
4.131109375E0,-2.077051599E-2,1.179708648E-2,-4.834360957E-2,5.392300224E-2
4.141108375E0,2.250300944E-3,7.019746844E-3,-4.145909786E-2,4.210935164E-2
4.151107375E0,3.129610715E-2,1.170619883E-2,-1.810824215E-2,3.800512923E-2
4.161105375E0,4.501486279E-2,1.009348193E-2,-7.482681870E-3,4.673549805E-2
4.171104375E0,4.905035522E-2,-2.127756095E-2,-1.197158933E-2,5.479042706E-2
4.181103375E0,2.833918847E-2,-3.763717499E-2,-3.786481440E-2,6.044345054E-2
4.191101375E0,1.104275912E-2,-3.645996602E-2,-3.981252193E-2,5.510270914E-2
4.201100375E0,-2.352091832E-2,-5.358361015E-2,-3.711286247E-2,6.929503183E-2
4.211099375E0,-2.026140623E-2,-5.800406864E-2,-1.450869620E-2,6.313080727E-2
4.221097375E0,-2.886456080E-2,-5.671722438E-2,5.250214934E-3,6.385586244E-2
4.231096375E0,-2.380154813E-2,-5.629978800E-2,-1.959752798E-2,6.418911843E-2
4.241095375E0,-8.579107895E-3,-5.885831030E-2,-2.468402088E-2,6.439877849E-2
4.251093375E0,1.267082496E-2,-2.606363486E-2,-3.111712754E-2,4.252221177E-2
4.261092375E0,3.620321844E-2,-7.670998760E-3,-2.542018533E-2,4.489658193E-2
4.271091375E0,3.314622100E-2,5.798976123E-3,-1.448706150E-2,3.663570720E-2
4.281089375E0,4.103457173E-2,1.122621551E-2,-2.136397183E-2,4.760549637E-2
4.291088375E0,2.447529355E-2,3.263983386E-2,-2.405018270E-2,4.735831539E-2
4.301087375E0,1.954358742E-3,7.253929658E-2,-2.419636309E-2,7.649335300E-2
4.311085375E0,-1.517303126E-2,7.054958045E-2,-3.901613116E-2,8.203488691E-2
4.321084375E0,-2.227668565E-2,6.072589271E-2,-5.010303676E-2,8.181808517E-2
4.331083375E0,5.438367371E-3,5.272613425E-2,-2.451503634E-2,5.840041164E-2
4.341081375E0,1.646707490E-2,5.778640604E-2,4.666078091E-3,6.026778213E-2
4.351080375E0,2.087180072E-2,3.156390963E-2,-2.498456776E-2,4.534469189E-2
4.361079375E0,1.489079347E-2,2.073404398E-3,-4.071240842E-2,4.339971124E-2
4.371077375E0,1.100378377E-2,-1.891634563E-2,-3.443542242E-2,4.080085424E-2
4.381076375E0,2.075443614E-2,-2.162945369E-2,-1.348543346E-2,3.286999851E-2
4.391075375E0,9.069506563E-3,-4.468436720E-2,-5.855401754E-3,4.596992877E-2
4.401073375E0,1.149635687E-3,-6.216310177E-2,-8.703580499E-3,6.277997449E-2
4.411072375E0,-4.480556902E-3,-7.447143590E-2,-1.813923240E-2,7.677956699E-2
4.421071375E0,-2.178864414E-2,-7.621578824E-2,-3.550253928E-2,8.685632784E-2
4.431070000E0,-8.013334963E-3,-8.153328270E-2,-4.777116716E-2,9.483656540E-2
4.441069000E0,1.355446715E-2,-9.287516344E-2,-1.707503915E-2,9.539956251E-2
4.451068000E0,2.379740026E-2,-7.562976932E-2,2.538861036E-3,7.932606181E-2
4.461066000E0,2.687700083E-2,-4.837432573E-2,1.047236323E-3,5.534930232E-2
4.471065000E0,2.412458852E-2,-3.763512846E-2,-2.124936640E-2,4.949681038E-2
4.481064000E0,3.624232169E-3,-2.060456470E-2,-4.578954577E-2,5.034248352E-2
4.491063000E0,-9.463882986E-3,-7.675018720E-3,-4.638011456E-2,4.795399900E-2
4.501061000E0,-8.150634896E-3,1.113613185E-2,-3.424772680E-2,3.692361131E-2
4.511060000E0,2.016302682E-3,2.702259650E-2,-1.253993869E-2,2.985860447E-2
4.521058000E0,-1.479564831E-3,3.322057201E-2,-1.987760961E-2,3.874164272E-2
4.531057000E0,7.110250778E-3,4.550334284E-2,-1.434146583E-2,4.823678594E-2
4.541056000E0,1.009764807E-2,6.683457026E-2,-3.858577609E-2,7.783112742E-2
4.551055000E0,1.045180662E-2,7.636542214E-2,-5.805349588E-2,9.649417778E-2
4.561053000E0,1.234230280E-2,5.784398284E-2,-3.665034771E-2,6.958093687E-2
4.571052000E0,8.277702201E-3,4.398438239E-2,-4.020545483E-3,4.493674481E-2
4.581051000E0,8.797775488E-3,3.387191528E-2,1.663532853E-3,3.503533702E-2
4.591049000E0,-6.414395571E-4,2.031478034E-2,-2.199605584E-2,2.994875987E-2
4.601048000E0,2.073623668E-3,-1.107353009E-3,-4.041770875E-2,4.048601396E-2
4.611047000E0,-4.974299446E-3,-2.477518262E-2,-3.488682747E-2,4.307718723E-2
4.621045000E0,1.048796799E-2,-4.040835321E-2,-1.453033090E-2,4.420365367E-2
4.631044000E0,3.583575748E-3,-5.964647843E-2,-1.958232522E-3,5.978611108E-2
4.641043000E0,9.621337540E-3,-5.943787901E-2,-1.872746229E-2,6.305671606E-2
4.651041000E0,1.375166450E-2,-5.999493593E-2,-2.456415296E-2,6.627139824E-2
4.661040000E0,1.256652525E-2,-7.175470987E-2,-3.788761854E-2,8.211045965E-2
4.671039000E0,1.496083215E-3,-7.336042838E-2,-2.815492809E-2,7.859192511E-2
4.681037000E0,5.426873937E-3,-6.907834791E-2,-1.288083136E-2,7.047825854E-2
4.691036000E0,1.688383520E-3,-5.748887412E-2,-1.901222169E-2,6.057463050E-2
4.701035000E0,-1.918818634E-3,-5.159530101E-2,1.354799867E-3,5.164874088E-2
4.711033000E0,-4.924744293E-3,-2.953238592E-2,-2.019102037E-2,3.611221715E-2
4.721032000E0,4.745983947E-3,-1.951153737E-2,-4.009377301E-2,4.484122086E-2
4.731031000E0,2.843829878E-3,8.671420813E-4,-4.517500341E-2,4.527273171E-2
4.741029000E0,2.433443047E-2,1.229565298E-2,-2.196857393E-2,3.501379484E-2
4.751028000E0,2.756543739E-2,2.539604729E-2,-1.493320405E-2,4.034616636E-2
4.761027000E0,3.190065444E-2,4.893556707E-2,-2.825257659E-2,6.488874757E-2
4.771025000E0,1.566712098E-2,4.506054416E-2,-3.274206877E-2,5.786151041E-2
4.781024000E0,1.909664087E-3,4.858424077E-2,-3.783265471E-2,6.160669631E-2
4.791023000E0,-4.978922401E-3,5.063348886E-2,-3.319522798E-2,6.074918125E-2
4.801021000E0,-1.073932517E-3,4.605508246E-2,-1.269255102E-2,4.778414802E-2
4.811020000E0,-8.074091189E-4,3.642205048E-2,-2.003080666E-2,4.157464235E-2
4.821019000E0,6.671928875E-3,2.243410366E-2,-2.303042829E-2,3.283602091E-2
4.831017000E0,-9.602224454E-5,1.166552413E-2,-3.770810902E-2,3.947144740E-2
4.841016000E0,3.269379269E-3,-9.149814416E-3,-4.744723141E-2,4.843188736E-2
4.851015000E0,1.119093122E-2,-3.308354616E-2,-4.162106574E-2,5.433296496E-2
4.861013000E0,2.728966808E-2,-6.353646655E-2,-4.209995270E-3,6.927721577E-2
4.871012000E0,3.250620671E-2,-6.516250413E-2,5.365405083E-3,7.301775805E-2
4.881011000E0,8.914756346E-3,-7.088126376E-2,1.286387444E-4,7.143978570E-2
4.891009000E0,1.109180264E-3,-6.916773722E-2,-3.698890150E-2,7.844478941E-2
4.901008000E0,-9.420156777E-3,-7.604309438E-2,-5.449312627E-2,9.402548786E-2
4.911007000E0,1.930275522E-3,-6.606624613E-2,-3.308296144E-2,7.391182029E-2
4.921005000E0,1.113757538E-2,-5.076812100E-2,-8.974891305E-3,5.274463355E-2
4.931004000E0,2.413175136E-2,-4.713210303E-2,5.554270148E-3,5.324121032E-2
4.941003000E0,2.028870542E-2,-1.803570013E-2,-1.180260479E-2,2.960100550E-2
4.951001000E0,1.195086826E-2,-2.205332201E-3,-3.604633033E-2,3.803977751E-2
4.961000000E0,5.705128312E-3,2.129844647E-2,-4.307760715E-2,4.839269107E-2
4.970999000E0,2.512694746E-3,2.011020089E-2,-1.897889256E-2,2.776566544E-2
4.980997000E0,5.072057582E-3,3.258819563E-2,-2.900920630E-2,4.392323204E-2
4.990996000E0,-8.800023012E-3,4.236287640E-2,-2.092601538E-2,4.806195816E-2
5.000995000E0,3.716325816E-3,3.276545763E-2,-3.514702857E-2,4.819439706E-2
5.010993000E0,-1.088830126E-2,2.541468529E-2,-4.653214216E-2,5.412671787E-2
5.020992000E0,6.312016306E-2,6.117611004E-2,-1.824682117E-2,8.977537473E-2
5.030991000E0,1.399637047E-2,3.669787461E-2,-2.858119011E-2,4.857485785E-2
5.040989000E0,-1.408035111E-2,-1.247293325E-2,-4.485399127E-3,1.933776503E-2
5.050988000E0,3.405838665E-2,-2.090673784E-2,-4.026158810E-2,5.672795487E-2
5.060987000E0,-2.090339396E-2,4.084700402E-3,-3.531893671E-2,4.124395648E-2
5.070986000E0,2.723435707E-2,4.039594615E-2,-2.768832028E-2,5.603736031E-2
5.080984000E0,-3.305622870E-2,-4.835309302E-2,-3.757830083E-2,6.959069302E-2
5.090983000E0,1.256155511E-2,-6.885924177E-2,-4.162106574E-2,8.143525623E-2
5.100981000E0,2.747164439E-2,-4.594294382E-2,1.151667595E-2,5.475471813E-2
5.110980000E0,-4.597263671E-3,-8.394847512E-3,-2.156862438E-2,2.359690352E-2
5.120979000E0,4.058172315E-2,-5.081665289E-2,-2.441563368E-2,6.946460705E-2
5.130977000E0,2.104016399E-2,-8.181060517E-2,-2.366894424E-2,8.772617934E-2
5.140976000E0,2.694579698E-3,-8.063244604E-2,-1.931861579E-2,8.295818844E-2
5.150975000E0,3.370371647E-4,-3.551666396E-2,-3.263389528E-2,4.823399355E-2
5.160974000E0,2.023069007E-2,-4.044650629E-2,-2.500035524E-2,5.167415654E-2
5.170972000E0,-3.008228000E-3,-5.297615753E-2,-1.406781614E-2,5.489468238E-2
5.180971000E0,-5.057786722E-3,-2.424162420E-2,-8.521147370E-3,2.618869036E-2
5.190970000E0,-3.641956542E-3,5.657985136E-3,-3.320984602E-2,3.388466491E-2
5.200968000E0,1.789595168E-2,2.160474921E-2,-5.266411722E-2,5.967025655E-2
5.210967000E0,2.138538726E-2,4.945958722E-3,-1.494022071E-2,2.655197715E-2
5.220966000E0,1.257991903E-2,4.626139781E-2,6.016784906E-3,4.831741912E-2
5.230964000E0,3.700291654E-2,5.386350906E-2,-5.960651636E-3,6.562029266E-2
5.240963000E0,-1.930165887E-3,4.980499322E-2,-4.054634750E-2,6.425160842E-2
5.250962000E0,-6.508608833E-3,3.760470467E-2,-5.447441518E-2,6.651268835E-2
5.260960000E0,-1.422658632E-2,4.316531539E-2,-5.283777952E-2,6.969556052E-2
5.270959000E0,1.070963228E-2,3.979923779E-2,-4.267005622E-2,5.932460915E-2
5.280958000E0,1.342962909E-2,1.604770163E-2,-2.707260847E-3,2.110006935E-2
5.290956000E0,1.150814267E-2,-3.975832555E-3,8.066233993E-3,1.460509237E-2
5.300955000E0,3.016065096E-2,-1.578888925E-2,-3.910617828E-3,3.426728501E-2
5.310954000E0,1.443361429E-2,-1.847012999E-2,-1.828482807E-2,2.972893978E-2
5.320952000E0,1.182962989E-2,-3.928638216E-2,-6.034852803E-2,7.297468603E-2
5.330951000E0,7.153940443E-3,-4.791780436E-2,-1.559043109E-2,5.089554382E-2
5.340950000E0,1.175283037E-2,-7.907876775E-2,1.324394345E-3,7.995833009E-2
5.350948000E0,-6.579762138E-4,-4.831435522E-2,-1.230254173E-2,4.986042906E-2
5.360947000E0,-2.130621230E-2,-5.961590845E-2,-3.625039816E-2,7.295274217E-2
5.370946000E0,-1.516384017E-2,-4.762094853E-2,-3.280463398E-2,5.978160920E-2
5.380944000E0,-8.399525285E-4,-5.583601244E-2,-3.085985005E-2,6.380200742E-2
5.390943000E0,2.563671503E-2,-2.337267313E-2,-1.903444111E-2,3.957060722E-2
5.400942000E0,2.628272273E-2,-1.588134835E-2,-7.677394152E-4,3.071788018E-2
5.410940000E0,1.556353390E-2,-2.728201188E-3,1.482853889E-3,1.587027173E-2
5.420939000E0,2.322219869E-2,1.607929487E-3,-2.500737190E-2,3.416466887E-2
5.430938000E0,-1.110258345E-3,1.327104164E-2,-5.568420410E-2,5.725455271E-2
5.440936000E0,-9.793190863E-3,3.260953797E-2,-4.460431516E-2,5.611446770E-2
5.450935000E0,-2.033204790E-3,3.320763504E-2,-1.257151365E-2,3.556576869E-2
5.460934000E0,2.230950315E-3,3.495686615E-2,-8.530502915E-3,3.605175599E-2
5.470932000E0,8.689236548E-3,4.044919236E-2,-1.916424930E-2,4.559504847E-2
5.480931000E0,6.890249290E-3,4.771719005E-2,-4.850908577E-2,6.839252272E-2
5.490930000E0,1.407079456E-2,3.437735226E-2,-4.356935799E-2,5.725450693E-2
5.500928000E0,2.977491746E-2,1.622598689E-2,-3.593815684E-2,4.941031752E-2
5.510927000E0,1.749117818E-2,1.203466617E-2,-2.935594618E-2,3.622907783E-2
5.520926000E0,1.279688727E-2,6.969278064E-3,-2.441797256E-2,2.843533972E-2
5.530924000E0,5.938212946E-3,-1.125062764E-2,-9.902259707E-3,1.612122026E-2
5.540923000E0,-2.207013275E-3,-2.621730700E-2,-2.292693257E-2,3.489788434E-2
5.550922000E0,-8.490613941E-3,-3.182376355E-2,-2.397299945E-2,4.073753987E-2
5.560920000E0,-1.415406257E-2,-3.151351394E-2,-2.396949112E-2,4.204730137E-2
5.570919000E0,3.816971015E-3,-3.254679004E-2,-1.109626114E-2,3.459754068E-2
5.580918000E0,1.500212811E-2,-4.418115947E-2,-1.947707534E-2,5.056080660E-2
5.590916000E0,2.266201716E-2,-5.057399344E-2,-3.160244644E-2,6.379663357E-2
5.600915000E0,2.045160519E-2,-4.159581307E-2,-3.070372939E-2,5.559855051E-2
5.610914000E0,2.003590470E-2,-4.136007892E-2,-1.857251108E-2,4.956845542E-2
5.620912000E0,1.601400705E-2,-6.292221654E-2,-1.496828735E-2,6.663109921E-2
5.630911000E0,2.244307548E-3,6.679000352E-3,3.300753236E-3,7.780805485E-3
5.640910000E0,-2.667594798E-2,7.151512021E-2,-3.966809571E-2,8.602079072E-2
5.650908000E0,2.799869779E-2,-9.629837930E-2,-1.256975949E-2,1.010707860E-1
5.660907000E0,-1.287220672E-2,3.344567154E-2,-2.154640496E-2,4.181571734E-2
5.670906000E0,3.450456575E-2,-9.844883904E-3,-4.444994867E-2,5.712516725E-2
5.680904000E0,1.721343543E-2,9.793538041E-2,-6.990229368E-2,1.215482281E-1
5.690903000E0,3.489499530E-2,-5.630585449E-2,-2.836484313E-3,6.630275703E-2
5.700902000E0,1.016671831E-2,5.040002050E-2,4.821087778E-2,7.048271393E-2
5.710900000E0,7.551532835E-3,-2.519377017E-2,-6.061457634E-2,6.607479526E-2
5.720899000E0,-1.258335426E-2,1.082727095E-1,-5.986671746E-2,1.243597374E-1
5.730898000E0,-6.481894366E-3,-6.682541572E-2,-1.706860721E-2,6.927473199E-2
5.740896000E0,-1.723048372E-2,1.207281925E-2,-8.086699247E-3,2.253968142E-2
5.750895000E0,3.158857757E-2,-2.108198985E-2,-5.554620981E-2,6.728796292E-2
5.760894000E0,1.651533270E-2,4.024609298E-2,-1.798311174E-2,4.707331008E-2
5.770892000E0,1.111206690E-2,-1.470921915E-2,-2.008635521E-2,2.726354387E-2
5.780891000E0,3.379972044E-2,-4.966528131E-2,-3.729646504E-2,7.071129736E-2
5.790890000E0,6.712000575E-3,-2.193195574E-2,-2.008284688E-2,3.048577329E-2
5.800888000E0,1.663415909E-2,6.889189482E-3,-2.336956680E-2,2.950072597E-2
5.810887000E0,-1.823335430E-2,-4.669473130E-2,-2.862212062E-3,5.021001293E-2
5.820886000E0,1.095872367E-2,-5.017939774E-2,2.979741096E-3,5.144846392E-2
5.830884000E0,-7.959339581E-3,-1.799588425E-2,-2.650659800E-2,3.301215948E-2
5.840883000E0,-1.735866565E-2,-2.522430360E-2,-4.401842415E-2,5.362098871E-2
5.850882000E0,1.151525069E-2,-1.121594634E-2,-2.245857060E-2,2.761857788E-2
5.860880000E0,2.964057768E-2,-3.672212228E-2,-2.379992187E-2,5.285370745E-2
5.870879000E0,2.159236042E-2,-3.576084003E-2,-2.079620719E-2,4.666422550E-2
5.880878000E0,1.008483902E-2,1.815914948E-2,-6.422581673E-3,2.174185464E-2
5.890877000E0,3.147548877E-2,-7.576164231E-4,-1.539981186E-2,3.504903110E-2
5.900875000E0,8.542325255E-3,3.475182988E-3,-3.186732531E-2,3.317490979E-2
5.910874000E0,3.679543175E-4,1.594849996E-2,-2.572599471E-2,3.027072588E-2
5.920873000E0,-1.619927242E-2,1.920927286E-2,-2.168264508E-2,3.318960212E-2
5.930871000E0,8.795802053E-3,2.590168526E-2,-2.527751327E-2,3.724535018E-2
5.940870000E0,-2.628670614E-3,2.215312667E-2,-2.737432480E-2,3.531323532E-2
5.950869000E0,-5.070595779E-3,3.729006965E-3,-3.276019514E-2,3.335935880E-2
5.960867000E0,1.911929883E-2,7.926302813E-3,-3.679652810E-2,4.221798603E-2
5.970866000E0,1.722867474E-2,1.776342088E-2,-2.976232767E-2,3.870610421E-2
5.980865000E0,1.398699665E-2,-7.055414859E-3,-2.138677597E-2,2.651054772E-2
5.990863000E0,1.460910385E-2,8.712899499E-3,-8.517639041E-3,1.902342524E-2
6.000862000E0,2.799074924E-2,6.138681080E-3,-9.417525530E-3,3.016380671E-2
6.010861000E0,8.771810196E-3,2.043857686E-3,-1.765742183E-2,1.982187060E-2
6.020859000E0,-5.682086628E-3,-2.782733783E-2,-4.415641844E-2,5.250177263E-2
6.030858000E0,-3.910672646E-3,-3.261167586E-2,-3.562474608E-2,4.845551874E-2
6.040857000E0,7.875084858E-3,-2.969506642E-2,-7.789075971E-3,3.169358982E-2
6.050855000E0,6.227960754E-3,-7.992979344E-3,-1.392982185E-2,1.722542164E-2
6.060854000E0,2.317911202E-2,-3.495171329E-2,-6.750610471E-3,4.247898584E-2
6.070853000E0,9.547991529E-3,-3.810058510E-2,-3.279644787E-2,5.117055521E-2
6.080851000E0,2.422812078E-3,-2.104581021E-2,-5.210103035E-2,5.624334191E-2
6.090850000E0,4.882041346E-3,-1.651334099E-2,-4.685783207E-2,4.992175062E-2
6.100849000E0,9.135580100E-3,-2.708653215E-2,-7.784982920E-3,2.962676167E-2
6.110847000E0,2.221384635E-2,-2.693914577E-2,7.783813477E-3,3.577373753E-2
6.120846000E0,3.219623119E-3,-9.521130882E-3,-1.481625974E-2,1.790361581E-2
6.130845000E0,-3.369750381E-3,9.212269988E-3,-3.248362184E-2,3.393238606E-2
6.140843000E0,1.039327964E-2,6.822129227E-3,-3.981895387E-2,4.171463528E-2
6.150842000E0,1.261809038E-2,6.008525714E-3,-3.562650025E-2,3.826964993E-2
6.160841000E0,1.599306671E-2,2.900633750E-2,-2.260007322E-2,4.009874197E-2
6.170839000E0,2.137190212E-2,2.146417849E-2,-6.881588101E-3,3.106163893E-2
6.180838000E0,1.494721910E-2,2.134575410E-2,-2.020446897E-2,3.297394643E-2
6.190837000E0,-2.277472224E-3,1.855122356E-2,-3.936637938E-2,4.357805182E-2
6.200835000E0,-1.095808413E-2,1.558845766E-2,-4.206136107E-2,4.617615960E-2
6.210834000E0,6.675254479E-3,1.238573665E-2,-4.924583495E-2,5.121638170E-2
6.220833000E0,1.354693886E-2,2.079123706E-3,-8.078513145E-3,1.590926405E-2
6.230831000E0,6.491889451E-3,-4.006146714E-3,-2.541784644E-3,8.040802778E-3
6.240830000E0,1.545568932E-2,-1.559289789E-2,-2.529739380E-2,3.349589422E-2
6.250829000E0,2.033416752E-2,-1.649585417E-2,-3.039148808E-2,4.011526045E-2
6.260827000E0,1.821213987E-2,-3.275646754E-2,-3.219009161E-2,4.940516372E-2
6.270826000E0,1.007168278E-2,-3.477627855E-2,-1.977235973E-2,4.125257026E-2
6.280825000E0,7.168302666E-3,-3.673688650E-2,-2.516232312E-2,4.510128488E-2
6.290823000E0,-1.781043615E-3,-3.092619767E-2,-1.842457652E-2,3.604256982E-2
6.300822000E0,-5.504550543E-3,-2.272778006E-2,-1.901865363E-2,3.014234976E-2
6.310821000E0,-5.404983424E-3,-2.540852744E-2,-3.488331914E-2,4.349313816E-2
6.320819000E0,1.918917306E-2,-2.724212291E-2,-8.686038852E-3,3.443551791E-2
6.330818000E0,1.956858426E-2,-2.318031801E-2,-2.184987545E-2,3.738547432E-2
6.340817000E0,1.612561578E-2,-1.641271407E-2,-2.588854730E-2,3.463566873E-2
6.350815000E0,1.660536155E-2,-8.084177636E-3,-1.406138420E-2,2.321237786E-2
6.360814000E0,1.131640881E-2,-6.986728348E-3,-2.049624503E-2,2.443300108E-2
6.370813000E0,-5.441199616E-4,6.099632643E-3,-2.064125597E-2,2.153051400E-2
6.380811000E0,-6.453772914E-3,1.214422837E-2,-3.516047716E-2,3.775437222E-2
6.390810000E0,-1.210327959E-2,9.801468328E-3,-3.890678823E-2,4.190818928E-2
6.400809000E0,-7.799820229E-4,7.710869461E-3,-1.914553821E-2,2.065472133E-2
6.410807000E0,8.795180786E-3,1.384701066E-2,-9.419279695E-3,1.891607092E-2
6.420806000E0,1.475599688E-2,1.089115178E-2,-3.022776604E-2,3.535639222E-2
6.430804500E0,2.751467625E-2,5.989741534E-5,-2.513601065E-2,3.726768074E-2
6.440802500E0,2.516524673E-2,-2.805055529E-3,-2.678141713E-2,3.685650937E-2
6.450801500E0,2.307652993E-2,-3.535190038E-3,-2.064768791E-2,3.116650154E-2
6.460800500E0,1.944365485E-2,3.273198232E-3,-2.080030024E-2,2.866046110E-2
6.470798500E0,-5.738768075E-3,2.938664407E-3,-3.735786080E-3,7.451530390E-3
6.480797500E0,-1.851332629E-2,-1.830998937E-2,-1.676045895E-2,3.096630338E-2
6.490796500E0,-2.538479140E-2,-1.206242217E-2,-4.908854485E-2,5.656478496E-2
6.500794500E0,-2.031954948E-2,-2.417045262E-2,-5.208290398E-2,6.090750165E-2
6.510793500E0,7.990293279E-3,-3.762580946E-2,-1.855613887E-2,4.270686847E-2
6.520792500E0,3.634753503E-2,-3.650500786E-2,5.397564769E-3,5.179664667E-2
6.530790500E0,5.322855625E-2,-4.114808081E-2,8.835727572E-3,6.785656812E-2
6.540789500E0,2.826142050E-2,-2.084557962E-2,-2.918286860E-2,4.566055079E-2
6.550788500E0,1.623543380E-2,-1.984587019E-2,-4.864240229E-2,5.498664542E-2
6.560787500E0,1.594608799E-3,-1.286107874E-2,-2.918111444E-2,3.192941533E-2
6.570785500E0,2.613486126E-3,-1.673012652E-2,-1.705048084E-2,2.403011319E-2
6.580784500E0,5.611499771E-5,-2.337168641E-3,-3.728769422E-3,4.401048460E-3
6.590782500E0,-1.536977179E-2,-9.358176291E-3,-1.465663075E-2,2.320823504E-2
6.600781500E0,-1.243589479E-2,-4.594833422E-3,-3.276955068E-2,3.534978678E-2
6.610780500E0,-9.575436898E-3,-1.009605836E-2,-4.249639392E-2,4.471647216E-2
6.620779500E0,2.220816359E-2,4.278535601E-3,-4.549250722E-2,5.080429716E-2
6.630777500E0,3.828356640E-2,1.595169766E-2,-1.151550651E-2,4.304294373E-2
6.640776500E0,3.677319406E-2,1.555134611E-2,-1.039050221E-3,3.993985218E-2
6.650775500E0,3.284750137E-2,1.929301595E-2,-2.124761224E-2,4.361925993E-2
6.660773500E0,1.395394161E-2,2.459399203E-2,-4.804774046E-2,5.575089500E-2
6.670772500E0,8.856412098E-3,1.843755003E-2,-3.442957520E-2,4.004715889E-2
6.680771500E0,6.872250829E-3,1.001359435E-2,-2.320642948E-2,2.619233232E-2
6.690769500E0,-4.642926771E-3,-4.223955497E-3,-1.168332160E-2,1.326267592E-2
6.700768500E0,-1.298410781E-3,6.913473699E-3,-8.543951511E-3,1.106711781E-2
6.710767500E0,1.070806084E-2,-1.031786883E-2,-2.441680312E-2,2.858848123E-2
6.720765500E0,2.891301960E-3,-2.145654056E-2,-3.849046648E-2,4.416173422E-2
6.730764500E0,1.027182201E-2,-2.829778288E-2,-3.744264543E-2,4.804400628E-2
6.740763500E0,2.216847561E-2,-2.842282193E-2,-1.962851822E-2,4.104359688E-2
6.750761500E0,1.384765020E-2,-4.001019437E-2,-2.276905775E-2,4.807289320E-2
6.760760500E0,1.576811336E-2,-3.042635210E-2,1.629619002E-3,3.430819084E-2
6.770759500E0,1.064253548E-2,-3.711796051E-2,-6.152440310E-3,3.910062756E-2
6.780757500E0,1.042814367E-4,-1.788877057E-2,-1.932855606E-2,2.633651584E-2
6.790756500E0,-7.414342538E-3,-1.945405193E-2,-2.980559707E-2,3.635665315E-2
6.800755500E0,-3.103226982E-4,-4.853865076E-3,-3.549026012E-2,3.582198864E-2
6.810753500E0,8.333323840E-3,-4.333462883E-3,-3.578846812E-2,3.700050861E-2
6.820752500E0,2.139549198E-2,7.347117830E-3,-2.501380384E-2,3.372591881E-2
6.830751500E0,1.887786364E-2,4.337720387E-3,-1.692944348E-2,2.572538844E-2
6.840749500E0,2.346801929E-2,-1.066861041E-3,-3.444419324E-2,4.169278799E-2
6.850748500E0,6.306788530E-3,-4.653470032E-4,-3.145626605E-2,3.208564793E-2
6.860747500E0,6.243254878E-3,8.243642170E-3,-2.053132832E-2,2.298850387E-2
6.870745500E0,5.809884835E-3,8.276185580E-3,-3.766191602E-3,1.079046842E-2
6.880744500E0,1.805876009E-4,-9.901272990E-3,-9.901090264E-3,1.400354980E-2
6.890743500E0,5.964068603E-3,1.089049397E-2,-2.936120868E-2,3.187873191E-2
6.900741500E0,-8.608636335E-3,-6.286962815E-3,-6.274062395E-2,6.363977070E-2
6.910740500E0,-1.961137857E-3,4.706094973E-3,-6.469008565E-2,6.489068171E-2
6.920739500E0,2.203559764E-3,-1.623212647E-2,-2.547631860E-2,3.028828841E-2
6.930737500E0,2.217209358E-2,-1.257739741E-2,9.547333717E-3,2.722029097E-2
6.940736500E0,2.115888074E-2,-2.018690905E-2,5.498721600E-3,2.975643578E-2
6.950735500E0,5.914897174E-3,-5.189513527E-3,-2.294564366E-2,2.425736223E-2
6.960733500E0,5.429669637E-3,-1.393705778E-2,-4.630000770E-2,4.865607470E-2
6.970732500E0,1.856107246E-3,-1.160242902E-2,-6.396503091E-2,6.503527253E-2
6.980731500E0,1.113152716E-2,-1.710336160E-2,-2.100202918E-2,2.928346128E-2
6.990729500E0,1.708980337E-2,-2.210335225E-2,2.346487641E-3,2.803793081E-2
7.000728500E0,2.249363562E-2,-2.298284657E-2,-1.022736490E-2,3.374572377E-2
7.010727500E0,5.716859289E-3,-2.472908098E-2,-2.713985145E-2,3.715886789E-2
7.020725500E0,-1.376408983E-2,-2.287865650E-2,-3.567444742E-2,4.455950281E-2
7.030724500E0,-8.109960202E-3,-1.807191633E-2,-3.148082435E-2,3.719419197E-2
7.040723500E0,-6.891108099E-3,-9.626746215E-3,1.477240562E-2,1.893107449E-2
7.050721500E0,8.503459543E-3,-1.369099963E-2,4.746769667E-3,1.680131297E-2
7.060720500E0,1.251468603E-3,-3.957011830E-3,-2.354205966E-2,2.390507664E-2
7.070719500E0,1.123080192E-2,-1.608294938E-3,-4.404999912E-2,4.548758014E-2
7.080717500E0,1.562951608E-2,-7.331129350E-4,-3.566860020E-2,3.894956056E-2
7.090716500E0,1.358955044E-2,3.718116526E-3,-2.788654089E-2,3.124355029E-2
7.100715500E0,2.098118020E-2,5.204862468E-3,-1.501155674E-2,2.631819431E-2
7.110713500E0,1.328984410E-2,1.982776210E-2,-2.284507155E-3,2.397872138E-2
7.120712500E0,-2.640547771E-3,2.401186517E-2,-1.486011386E-2,2.836133186E-2
7.130711500E0,-1.047892308E-2,1.406887595E-2,-3.761630774E-2,4.150575511E-2
7.140709500E0,-2.615404744E-3,8.220308125E-3,-2.055296302E-2,2.228986533E-2
7.150708500E0,-3.023832757E-3,-5.069682151E-3,-3.358289838E-2,3.409774634E-2
7.160707500E0,9.709265046E-3,-9.641163256E-3,-1.667275071E-2,2.156855287E-2
7.170705500E0,2.038940543E-2,-1.195143471E-2,-3.578495979E-4,2.363668128E-2
7.180704500E0,2.094291748E-2,-1.412610557E-2,6.835395098E-4,2.527092950E-2
7.190703500E0,1.370921737E-2,-1.506315842E-2,-1.039342582E-2,2.286623456E-2
7.200701500E0,3.182712570E-3,-1.582404563E-2,-2.581253350E-2,3.044366872E-2
7.210700500E0,2.663041279E-4,-2.380944187E-2,-1.024549127E-2,2.592162285E-2
7.220699500E0,-3.012010418E-3,-2.740816556E-2,-1.113953054E-2,2.973834035E-2
7.230697500E0,-1.105554990E-2,-2.493974520E-2,-2.056699634E-2,3.416456370E-2
7.240696500E0,2.327539008E-3,-2.460660009E-2,-2.909516037E-2,3.817630891E-2
7.250695500E0,1.932559591E-3,-2.381061131E-2,-3.418048382E-2,4.170114473E-2
7.260694500E0,1.418854287E-2,-2.081025878E-2,-2.833970010E-2,3.791464389E-2
7.270692500E0,1.633834479E-2,-1.533163698E-2,-1.801176310E-2,2.874759491E-2
7.280691500E0,1.944332594E-2,-6.231304631E-4,-1.336965859E-2,2.360463908E-2
7.290690500E0,2.982746931E-2,4.706643149E-3,-2.742928863E-3,3.032085213E-2
7.300688500E0,1.184200041E-2,-1.860054117E-3,-1.755918860E-2,2.126071211E-2
7.310687500E0,-4.148435052E-3,1.090211531E-2,-4.824946940E-2,4.963946947E-2
7.320686500E0,-3.623647448E-3,5.110320300E-3,-6.231962442E-2,6.263371123E-2
7.330684500E0,-1.182000026E-2,6.191360839E-3,-5.184433758E-2,5.353392097E-2
7.340683500E0,6.462086923E-4,8.496607337E-3,-4.546794891E-3,9.658326237E-3
7.350682500E0,1.339319363E-2,2.185632566E-2,4.580124021E-3,2.603947279E-2
7.360680500E0,1.573522277E-2,5.747557171E-3,-3.014648974E-2,3.448829501E-2
7.370679500E0,1.244850285E-2,1.186297730E-2,-2.206680715E-2,2.797569358E-2
7.380678500E0,2.874929756E-3,-3.396592755E-3,-2.820404470E-2,2.855293682E-2
7.390676500E0,-2.457274105E-3,3.943307418E-3,-4.976155937E-2,4.997800176E-2
7.400675500E0,1.636672206E-4,-2.408113640E-2,-1.803222835E-2,3.008470004E-2
7.410674500E0,1.191485306E-2,-2.289108183E-2,6.514967680E-3,2.661597556E-2
7.420672500E0,4.624800403E-3,-2.291920329E-2,-1.623947203E-2,2.846750972E-2
7.430671542E0,1.126319915E-3,-1.788093165E-2,-4.872543275E-2,5.191497000E-2
7.440670542E0,1.087865336E-2,-1.623700524E-2,-4.109423161E-2,4.550517893E-2
7.450668542E0,1.203145020E-2,-1.832683666E-2,-1.310711861E-2,2.554261721E-2
7.460667542E0,2.589797594E-2,-1.319605110E-2,8.115935326E-4,2.907747593E-2
7.470666542E0,1.744871277E-2,-8.192497306E-4,3.654509783E-4,1.747175727E-2
7.480664542E0,3.479129858E-3,-7.251205221E-3,-3.571070015E-2,3.660516941E-2
7.490663542E0,-1.134993894E-2,-1.185632609E-2,-4.319630563E-2,4.620946226E-2
7.500662542E0,-1.616870245E-2,-2.608653037E-2,-4.319338202E-2,5.298681210E-2
7.510660542E0,-1.185053369E-2,-1.293382175E-2,-3.630419254E-2,4.032013505E-2
7.520659542E0,1.450204499E-2,-1.035618637E-2,-1.893328428E-2,2.600056074E-2
7.530658542E0,1.769893706E-2,-3.483113274E-3,-6.503857970E-3,1.917510416E-2
7.540656542E0,1.913828401E-2,5.740065426E-3,-1.159327447E-2,2.310035236E-2
7.550655542E0,1.518923901E-2,5.987567101E-3,-3.539027274E-2,3.897480399E-2
7.560654542E0,3.668506555E-3,6.709533781E-3,-3.883194387E-2,3.957771657E-2
7.570652542E0,4.591343366E-3,2.067690572E-2,-3.703977227E-2,4.266801605E-2
7.580651542E0,8.737695348E-3,1.957666073E-3,-1.159385920E-2,1.464914153E-2
7.590650542E0,1.897286262E-2,-2.215034924E-3,-1.728086114E-2,2.575857251E-2
7.600648542E0,1.198882034E-2,9.649952352E-3,-3.180066705E-2,3.532896571E-2
7.610647542E0,9.158694874E-3,1.933305111E-2,-4.527440608E-2,5.007414904E-2
7.620646542E0,1.585492624E-2,9.899975639E-3,-3.794082820E-2,4.229532656E-2
7.630644542E0,1.473184057E-2,-6.532143876E-3,-1.428884089E-2,2.153757192E-2
7.640643542E0,8.632829189E-3,-2.305778230E-2,-1.113953054E-2,2.702362309E-2
7.650642542E0,6.776301675E-3,-1.780765872E-2,-1.951683640E-2,2.727522460E-2
7.660640542E0,-1.467987344E-2,-2.306224080E-2,-3.358874559E-2,4.330784531E-2
7.670639542E0,-3.046786733E-2,-3.503200287E-2,-2.116633594E-2,5.102495411E-2
7.680638542E0,-2.444309732E-2,-3.890258554E-2,-2.101606250E-2,5.052277755E-2
7.690636542E0,-5.811401457E-3,-3.905220117E-2,3.531133533E-3,3.963982477E-2
7.700635542E0,1.125060936E-2,-1.936855467E-2,5.927907228E-3,2.317017922E-2
7.710634542E0,1.432737770E-2,-1.088382449E-2,-3.568263352E-2,3.996225372E-2
7.720632542E0,1.778412368E-3,-8.271251991E-4,-4.376933277E-2,4.381325573E-2
7.730631542E0,9.543843661E-3,5.587489642E-3,-6.098353565E-2,6.197819465E-2
7.740630542E0,1.355706185E-2,7.500351425E-3,-3.763560355E-2,4.069997361E-2
7.750628542E0,2.705298375E-2,-2.495555095E-3,8.022964597E-3,2.832771939E-2
7.760627542E0,3.236653134E-2,2.227069225E-2,-3.499558568E-3,3.944392215E-2
7.770626542E0,1.158812162E-2,1.094863722E-2,-3.687721968E-2,4.017569602E-2
7.780624542E0,7.226811368E-3,4.158503227E-3,-3.612819135E-2,3.707783923E-2
7.790623542E0,4.301961008E-3,9.203572255E-3,-3.553762257E-2,3.696126660E-2
7.800622542E0,1.693452325E-2,-1.909865085E-3,-1.892685235E-2,2.546863565E-2
7.810620542E0,2.602367280E-2,1.691124402E-3,1.175816596E-2,2.860674596E-2
7.820619542E0,1.493313096E-2,-9.255119115E-3,-4.565505981E-3,1.815212040E-2
7.830618542E0,-1.728809707E-2,-1.534157725E-2,-2.792279363E-2,3.624809922E-2
7.840616542E0,-2.273359073E-2,-2.169591095E-2,-4.633392155E-2,5.598536403E-2
7.850615542E0,-8.796898406E-3,-6.627544854E-3,-1.564597964E-2,1.913390842E-2
7.860614542E0,-1.473048840E-2,-4.562491011E-3,-1.576994061E-3,1.550130714E-2
7.870612542E0,5.948774479E-3,7.122639567E-5,-1.908998966E-2,1.999551691E-2
7.880611542E0,4.673441928E-3,-3.187209444E-2,-1.804275334E-2,3.692170651E-2
7.890610542E0,1.980868556E-2,6.521436162E-3,-9.208779931E-3,2.279725380E-2
7.900608542E0,2.306640694E-2,4.363703951E-3,-2.148267031E-2,3.182147333E-2
7.910607542E0,3.066245170E-2,3.759138398E-3,-3.375422180E-2,4.575657936E-2
7.920606542E0,3.355408257E-2,-1.633481819E-2,-2.926180601E-2,4.742315925E-2
7.930605542E0,5.428719465E-3,-2.564265361E-2,-1.848304868E-2,3.207241443E-2
7.940603542E0,1.103471920E-2,-2.438709196E-3,-2.207382381E-2,2.479850858E-2
7.950602542E0,-1.979021201E-2,2.609952215E-2,-3.644569516E-2,4.900128818E-2
7.960601542E0,-2.627665624E-2,-7.470439263E-3,-4.483235657E-2,5.249962211E-2
7.970599542E0,-1.260166336E-2,-2.427396661E-2,-1.429351866E-2,3.085987767E-2
7.980598542E0,-1.386758555E-3,-1.300627241E-2,-1.548868954E-2,2.027278286E-2
7.990597542E0,6.740231663E-3,1.333793744E-2,-2.447293639E-2,2.867500504E-2
8.000595542E0,1.395193163E-2,5.179390535E-3,-2.298072696E-2,2.737875626E-2
8.010594542E0,1.879084976E-2,-2.877285087E-2,4.266713262E-3,3.462914703E-2
8.020593542E0,1.045785483E-2,-1.065331629E-2,-1.773635924E-2,2.318271586E-2
8.030591542E0,-3.074484263E-3,2.910528336E-2,-6.623141170E-2,7.240973600E-2
8.040590542E0,1.237614356E-2,2.165956685E-2,-3.868868709E-2,4.603390353E-2
8.050589542E0,2.141762003E-2,1.308946732E-2,1.875202060E-3,2.517071682E-2
8.060587542E0,3.101805378E-2,1.579866506E-2,1.126758456E-3,3.482796380E-2
8.070586542E0,-5.674284250E-3,2.784948416E-2,-3.929504335E-2,4.849630606E-2
8.080585542E0,6.694002114E-3,1.261017837E-2,-4.603688300E-2,4.819980144E-2
8.090583542E0,9.536936637E-3,-3.845004760E-2,3.209361255E-2,5.098391204E-2
8.100582542E0,1.751248397E-2,-4.126465967E-2,2.506233573E-2,5.135737439E-2
8.110581542E0,-7.252475163E-2,-6.423422210E-3,-7.912218332E-2,1.075240431E-1
8.120579542E0,-3.202903736E-3,5.609964877E-3,-3.871792316E-2,3.925312564E-2
8.130578542E0,2.005711913E-2,-9.267577339E-2,1.082553506E-2,9.543730513E-2
8.140577542E0,1.531617841E-2,-4.373054015E-2,-2.898640215E-2,5.465488974E-2
8.150575542E0,4.441541355E-2,-3.936583120E-2,-2.958106399E-2,6.631317346E-2
8.160574542E0,3.292839395E-2,3.538935911E-2,2.130959272E-2,5.282787719E-2
8.170573542E0,9.229610637E-3,-2.708872486E-2,-1.176810622E-2,3.094306144E-2
8.180571542E0,-1.131520282E-2,-4.146118093E-2,-2.164463818E-2,4.812020055E-2
8.190570542E0,-5.341146447E-2,-1.187251557E-2,-5.277579904E-2,7.601990612E-2
8.200569542E0,-1.187938605E-2,6.878116317E-2,-3.661058664E-2,7.881816589E-2
8.210567542E0,7.430641651E-3,1.500258492E-2,-1.954841137E-2,2.573776169E-2
8.220566542E0,6.262916140E-3,-9.836716074E-3,3.607732058E-4,1.166684443E-2
8.230565542E0,2.775205493E-2,5.977553744E-3,-2.837595284E-2,4.013854010E-2
8.240563542E0,2.642205091E-2,5.437943447E-2,-5.292607248E-2,8.035183144E-2
8.250562542E0,4.031304359E-2,5.056144020E-2,-4.484872878E-2,7.869567454E-2
8.260561542E0,1.031088872E-2,-3.201094754E-2,-1.939755321E-2,3.882370743E-2
8.270559542E0,-1.003870083E-2,1.726227796E-2,-1.924494088E-2,2.773318417E-2
8.280558542E0,-6.939110085E-3,2.732604872E-2,-4.577200413E-3,2.856247453E-2
8.290557542E0,-1.647504173E-2,8.449336253E-3,-1.715690017E-2,2.524237522E-2
8.300555542E0,-6.047338435E-2,-6.507099520E-2,-3.990900099E-2,9.738579461E-2
8.310554542E0,-1.505552050E-2,3.115809459E-2,-5.099122882E-2,6.162467828E-2
8.320553542E0,3.080607394E-2,-4.925754765E-2,-4.710399985E-2,7.479376307E-2
8.330551542E0,4.478101071E-2,4.838333409E-3,1.845907509E-2,4.867736480E-2
8.340550542E0,5.100635849E-2,-8.926659085E-2,5.437325835E-3,1.029550259E-1
8.350549542E0,2.381348010E-2,-2.756048553E-4,-1.806438804E-2,2.989113427E-2
8.360547542E0,2.714412723E-2,-2.747314274E-3,-2.240945399E-2,3.530630265E-2
8.370546542E0,-1.432916841E-2,-1.541112257E-2,4.389037013E-2,4.867435009E-2
8.380545542E0,-5.725372469E-2,-6.338124124E-2,1.005662620E-2,8.600178174E-2
8.390543542E0,-3.623779741E-1,-1.137927734E-1,-1.320102489E-1,4.021110508E-1
8.400542542E0,3.431657776E-1,1.850987461E-1,6.151855588E-2,3.947262715E-1
8.410541542E0,-3.652565584E-2,-2.968194673E-2,-1.321880043E-1,1.403168200E-1
8.420539542E0,2.911074685E-2,-2.194333954E-2,1.449875593E-2,3.923212530E-2
8.430538250E0,-2.795645166E-3,-6.434601355E-2,-3.041019917E-2,7.122503286E-2
8.440537250E0,2.783994589E-2,1.741421420E-2,-5.361721337E-2,6.287386590E-2
8.450535250E0,1.653945978E-1,9.865681719E-2,-2.023604393E-2,1.936441014E-1
8.460534250E0,1.012809197E-1,9.500099178E-3,-1.380235255E-2,1.026575935E-1
8.470533250E0,4.895820675E-2,-3.394708855E-2,-2.217907369E-2,6.357060751E-2
8.480531250E0,7.130522344E-2,1.228426918E-2,-8.256268501E-3,7.282516137E-2
8.490530250E0,-3.461385386E-2,1.078813115E-2,-2.276028693E-2,4.280809869E-2
8.500529250E0,-1.036693976E-1,-1.222824555E-2,-1.421575069E-2,1.053516092E-1
8.510528250E0,-1.478785872E-1,-2.424864085E-2,7.412690699E-2,1.671851413E-1
8.520526250E0,-1.932765705E-1,-1.100767765E-1,1.662328327E-1,2.776798230E-1
8.530525250E0,-1.366208333E-1,-1.540895362E-1,2.394809031E-1,3.158479701E-1
8.540524250E0,-1.458153971E-1,-1.579355606E-1,4.336955863E-1,4.840430073E-1
8.550522250E0,-1.531493222E-1,-1.493628846E-1,6.318127012E-1,6.670466817E-1
8.560521250E0,-1.673389066E-1,-2.777359826E-2,7.595427883E-1,7.782537694E-1
8.570520250E0,-1.279037493E-1,8.834489425E-1,5.976585299E-1,1.074261198E0
8.580518250E0,5.775297824E-1,1.208652549E-1,-3.459891057E-1,6.840011116E-1
8.590517250E0,5.583385628E-1,-1.105668828E-1,-3.218879938E0,3.268815541E0
8.600516250E0,-3.405067198E-1,1.587789849E-1,8.665573597E-4,3.757077896E-1
8.610514250E0,7.165110818E-1,-4.330792167E-1,2.764785755E-1,8.816950385E-1
8.620513250E0,-9.934410257E-2,-3.984418826E-1,3.210764587E-2,4.118932938E-1
8.630512250E0,1.948083948E-2,-1.875011660E-1,-1.467183352E-2,1.890805465E-1
8.640510250E0,-1.248472087E-1,-2.506307942E-1,5.545733213E-2,2.854437532E-1
8.650509250E0,1.612990252E-1,3.816300047E-1,-7.636229753E-2,4.212956640E-1
8.660508250E0,1.273535446E-1,4.508628653E-1,-8.410634995E-2,4.759938306E-1
8.670506250E0,-3.665638496E-1,-3.239605247E-1,-3.077565014E-2,4.901699889E-1
8.680505250E0,-2.085427004E-1,-1.831970488E-1,-1.337474567E-1,3.081227008E-1
8.690504250E0,-2.420694838E-1,1.977546606E-1,-4.453356385E-2,3.157337155E-1
8.700502250E0,-2.327574274E-1,-1.253317785E-2,-5.218347609E-2,2.388644296E-1
8.710501250E0,4.228286091E-2,7.467862833E-2,-8.410868883E-2,1.201624292E-1
8.720500250E0,1.081391189E-1,2.991095658E-2,-2.830987930E-2,1.157159610E-1
8.730498250E0,5.197633848E-2,-1.293044499E-1,-2.278075218E-3,1.393785139E-1
8.740497250E0,2.763568803E-1,1.974877900E-1,-3.037043810E-3,3.396818749E-1
8.750496250E0,2.101679888E-1,1.999758717E-2,5.325994849E-2,2.177317366E-1
8.760494250E0,-4.992261361E-3,-1.522791286E-1,-4.702389300E-2,1.594525076E-1
8.770493250E0,4.612256298E-2,4.077467396E-1,-2.289594233E-2,4.109853022E-1
8.780492250E0,-8.047583202E-2,-3.029104753E-1,-5.342250109E-2,3.179387979E-1
8.790490250E0,-6.844323065E-2,2.783086443E-2,-5.221563578E-3,7.406954545E-2
8.800489250E0,1.033288887E-1,2.787234312E-2,-1.644237041E-2,1.082777830E-1
8.810488250E0,-1.935225556E-2,-2.485339461E-1,1.950163364E-2,2.500478872E-1
8.820486250E0,-7.952142024E-2,-8.708740667E-2,2.881215513E-2,1.214002181E-1
8.830485250E0,-6.666564055E-2,-9.560996102E-2,-5.888146162E-3,1.167057948E-1
8.840484250E0,-6.248683652E-2,5.770379584E-2,-6.590747595E-2,1.076017109E-1
8.850482250E0,-1.210394288E-1,2.162756066E-1,-1.003393900E-1,2.673830109E-1
8.860481250E0,9.099780522E-2,1.750489173E-1,-5.022524357E-2,2.035811855E-1
8.870480250E0,3.756039374E-2,1.993154835E-1,-5.623676598E-2,2.104756969E-1
8.880478250E0,8.470640218E-2,9.917170107E-3,-4.997966051E-2,9.885085380E-2
8.890477250E0,1.200727561E-1,-1.220240816E-1,-1.662831187E-2,1.719995466E-1
8.900476250E0,1.362276994E-2,-2.737392098E-1,1.345795155E-2,2.744081837E-1
8.910474250E0,5.380547544E-2,-2.247333847E-1,4.266713262E-2,2.349906543E-1
8.920473250E0,7.190478232E-2,-1.046246134E-1,3.641002715E-2,1.320692906E-1
8.930472250E0,-5.646374758E-2,-1.172570295E-1,1.834330022E-2,1.314299905E-1
8.940470250E0,-4.175807331E-3,1.397543013E-2,-1.812519908E-2,2.326527146E-2
8.950469250E0,-1.033701115E-1,8.070926383E-2,-8.664345682E-2,1.571828675E-1
8.960468250E0,-2.347055735E-1,2.622030004E-1,-1.203222495E-1,3.719066595E-1
8.970466250E0,4.825908076E-3,1.786200859E-1,-6.481463134E-2,1.900772499E-1
8.980465250E0,6.697311273E-2,3.233267231E-2,3.268593550E-3,7.444113937E-2
8.990464250E0,1.483269042E-1,-2.061786711E-2,9.995230436E-3,1.500862138E-1
9.000462250E0,4.653464550E-2,3.330621544E-2,-2.998803020E-2,6.460695918E-2
9.010461250E0,-7.992085816E-2,-2.796460122E-2,-2.791870058E-2,8.915613458E-2
9.020460250E0,1.206026601E-1,-1.243556041E-1,-1.744750679E-2,1.741083955E-1
9.030458250E0,5.089692419E-2,-7.726731861E-2,-2.177620053E-2,9.505229259E-2
9.040457250E0,-5.900333952E-2,-4.341268916E-2,-2.893903971E-2,7.876245091E-2
9.050456250E0,-1.470437692E-2,1.177856177E-1,-7.680317760E-3,1.189481304E-1
9.060454250E0,-4.620005686E-2,-8.313786831E-2,-1.693938375E-3,9.512738737E-2
9.070453250E0,3.367683755E-2,-7.084517548E-2,-1.710953772E-2,8.028639086E-2
9.080452250E0,-7.561304994E-2,-3.620139118E-3,-7.308551788E-2,1.052232467E-1
9.090451250E0,-3.597740628E-2,-5.776928466E-2,-5.646305323E-2,8.842929601E-2
9.100449250E0,4.018637829E-2,1.347635018E-1,-3.401383817E-2,1.446827135E-1
9.110448250E0,1.226901161E-2,-1.552053859E-2,5.796344876E-3,2.061585259E-2
9.120447250E0,6.128971048E-2,9.880425839E-2,-9.475997686E-3,1.166554954E-1
9.130445250E0,-7.203148417E-3,-5.112659186E-5,-5.857799113E-2,5.901922573E-2
9.140444250E0,3.488103507E-2,-1.024022146E-1,-2.355316937E-2,1.107142807E-1
9.150443250E0,-3.488558494E-3,-2.378831880E-2,-2.624932051E-2,3.559608095E-2
9.160441250E0,-5.955438478E-2,-7.345065823E-2,-2.804792404E-2,9.863270240E-2
9.170440250E0,5.122069549E-3,6.949479757E-2,-5.005625904E-2,8.579855217E-2
9.180439250E0,4.070482532E-2,1.690464763E-2,-3.748182178E-2,5.785790248E-2
9.190437250E0,4.371895535E-2,-1.934734024E-3,-2.580610156E-2,5.080398735E-2
9.200436250E0,-3.774969734E-2,1.302958818E-2,-3.119840384E-2,5.067691999E-2
9.210435250E0,2.948361648E-2,-1.783515891E-2,-9.642058611E-4,3.447181787E-2
9.220433250E0,4.324184082E-2,1.471172249E-2,1.459289610E-2,4.795043476E-2
9.230432250E0,6.980042422E-2,-4.573915008E-2,3.899858952E-2,9.211438029E-2
9.240431250E0,-9.281722119E-2,-5.280371949E-2,-4.677480161E-2,1.165810937E-1
9.250429250E0,-4.582799122E-2,-3.087837841E-2,-5.515853941E-2,7.807780416E-2
9.260428250E0,-5.312981140E-3,-3.110042643E-3,-5.502112985E-2,5.536447294E-2
9.270427250E0,5.743173586E-2,4.604704253E-2,-7.734696865E-3,7.401729491E-2
9.280425250E0,-3.860638753E-2,1.295357438E-2,4.814597368E-3,4.100522643E-2
9.290424250E0,-5.352568617E-2,1.897947729E-2,-6.588642597E-3,5.717193236E-2
9.300423250E0,1.577514829E-2,-2.096572163E-2,-1.485777497E-2,3.015245038E-2
9.310421250E0,3.923244160E-3,-2.568363894E-2,-2.019628286E-3,2.605993193E-2
9.320420250E0,-2.898822941E-2,-4.724906562E-2,-9.991137385E-3,5.632596624E-2
9.330419250E0,-5.536582321E-5,-3.158651277E-2,5.226241350E-3,3.201600308E-2
9.340417250E0,1.212160513E-1,3.027495855E-1,-3.004591763E-2,3.274956485E-1
9.350416250E0,1.293601080E-1,2.746987561E-1,1.018918258E-1,3.202739270E-1
9.360415250E0,5.576853191E-2,-1.325141693E-1,-3.300753236E-3,1.438090024E-1
9.370413250E0,7.368131261E-2,2.979280628E-2,6.498361588E-2,1.026616650E-1
9.380412250E0,2.740633830E-2,-2.072389906E-1,2.383705169E-1,3.170482770E-1
9.390411250E0,-1.769702392E-1,-5.038291374E-1,2.928958029E-1,6.090568254E-1
9.400409250E0,-2.475573515E-1,-8.822014390E-1,5.916616255E-1,1.090700463E0
9.410408250E0,-1.431388707E-1,-4.577278619E-1,5.018267584E-1,6.941423682E-1
9.420407250E0,3.941979004E-2,3.688251872E-1,5.479180205E-1,6.616646399E-1
9.430405667E0,4.982410630E-2,1.345761679E0,3.660813081E-1,1.395554536E0
9.440404667E0,2.957919470E-1,8.990198585E-1,7.559607840E-1,1.211282910E0
9.450403667E0,3.534812528E-1,4.970400084E-1,6.989042383E-1,9.276124732E-1
9.460401667E0,-1.917685736E-2,-1.935717453E-1,6.310964173E-1,6.603941704E-1
9.470400667E0,-3.027412898E-1,-4.421503678E-1,5.427976137E-1,7.627440500E-1
9.480399667E0,-4.103999868E-1,5.685479475E-1,1.729787654E-1,7.222164295E-1
9.490397667E0,-1.087721165E-1,-5.934803654E-1,9.523757744E-1,1.127417373E0
9.500396667E0,1.973949472E-1,-4.782683996E-1,8.824249488E-1,1.022926790E0
9.510395667E0,7.094257182E-1,7.883360130E-1,1.123683990E0,1.545129195E0
9.520393667E0,-3.701899273E-1,-5.514362901E-1,9.625627935E-1,1.169465560E0
9.530392667E0,-3.783196036E-1,-5.074723182E-1,1.365559328E0,1.505126624E0
9.540391667E0,-2.460110919E-1,1.592882043E-1,1.019335749E0,1.060631679E0
9.550389667E0,-3.262921751E-1,-2.552823639E-1,1.226496753E0,1.294577133E0
9.560388667E0,-5.332976790E-2,1.690473717E-1,1.271075925E0,1.283376439E0
9.570387667E0,5.268309874E-1,1.437082982E-1,1.452199861E0,1.551479101E0
9.580385667E0,5.317150936E-2,-7.304020196E-1,1.587727211E0,1.748482775E0
9.590384667E0,-2.308513630E-2,-3.049202729E-1,1.312366623E0,1.347521966E0
9.600383667E0,8.664130066E-2,1.022987043E0,1.181971959E0,1.565588362E0
9.610381667E0,-5.216671651E-1,-4.057382210E-1,1.334973713E0,1.489602279E0
9.620380667E0,-2.136889994E-1,-2.375234198E-1,1.457168825E0,1.491784619E0
9.630379667E0,3.872539664E-1,6.047857741E-1,1.413787748E0,1.585726099E0
9.640378667E0,2.874575268E-2,2.902036717E-1,1.346872212E0,1.378081726E0
9.650376667E0,-1.980078268E-1,-1.446093541E-1,1.597638241E0,1.616343687E0
9.660375667E0,1.780805889E-1,3.345378455E-1,1.488817465E0,1.536296101E0
9.670374667E0,3.010549893E-1,3.235707347E-1,1.561251603E0,1.622602445E0
9.680372667E0,-1.517592198E-1,-6.628637552E-2,1.597174557E0,1.605736999E0
9.690371667E0,-1.280801525E-1,2.823414324E-1,1.632799888E0,1.661973731E0
9.700370667E0,2.512971210E-1,4.468039109E-1,1.677410050E0,1.753992148E0
9.710368667E0,-1.421191711E-1,-1.419091099E-1,1.597314305E0,1.609891004E0
9.720367667E0,-3.192452569E-1,2.839567257E-1,1.745932986E0,1.797451236E0
9.730366667E0,5.814911613E-2,-1.505679409E-1,1.750132456E0,1.757559569E0
9.740364667E0,2.091519803E-1,3.094289878E-1,1.817622188E0,1.855597281E0
9.750363667E0,-7.517191406E-2,-3.699387163E-1,1.949793236E0,1.986000789E0
9.760362667E0,5.062102698E-2,-5.028419081E-2,1.923612328E0,1.924935161E0
9.770360667E0,1.857179845E-2,1.516836628E-1,1.862855664E0,1.869113177E0
9.780359667E0,-3.378843532E-1,-2.858380857E-1,1.834121861E0,1.886762372E0
9.790358667E0,-3.062881742E-1,-1.573608889E-1,1.987271549E0,2.016884505E0
9.800356667E0,-1.260326952E-1,6.501312604E-2,1.724707008E0,1.730527437E0
9.810355667E0,-6.048447579E-2,-8.156043570E-2,1.914805836E0,1.917496249E0
9.820354667E0,3.230113389E-2,-2.330080720E-1,1.907033132E0,1.921486792E0
9.830352667E0,2.438795625E-1,-9.164198566E-2,1.916205660E0,1.933835470E0
9.840351667E0,-1.750667330E-2,1.186910043E-1,1.671949920E0,1.676248959E0
9.850350667E0,-3.413343931E-1,-1.028597227E-1,1.600262471E0,1.639490551E0
9.860348667E0,-1.769794486E-1,2.085297086E-1,1.755799577E0,1.776974541E0
9.870347667E0,-4.702824187E-2,3.548388300E-2,1.630656883E0,1.631720758E0
9.880346667E0,-8.143004280E-2,7.508603308E-2,1.660594627E0,1.664284615E0
9.890344667E0,1.254260283E-1,1.614317753E-1,1.747438059E0,1.759355472E0
9.900343667E0,2.883224214E-1,2.917559613E-2,1.678155570E0,1.702993585E0
9.910342667E0,-2.031600643E-1,2.452787829E-1,1.553764828E0,1.586070879E0
9.920340667E0,-1.306872067E-1,2.666549608E-3,1.491352233E0,1.497069717E0
9.930339667E0,1.510752234E-1,3.013865082E-1,1.532809576E0,1.569446637E0
9.940338667E0,-1.526466809E-2,9.926140102E-2,1.479674758E0,1.483078968E0
9.950336667E0,-7.419577623E-2,1.221471655E-1,1.375948076E0,1.383350300E0
9.960335667E0,-1.418273220E-2,1.791216857E-1,1.345998638E0,1.357938902E0
9.970334667E0,6.867609601E-3,9.046163382E-2,1.151531355E0,1.155099534E0
9.980332667E0,3.040747656E-2,1.872509234E-1,1.162145805E0,1.177527238E0
9.990331667E0,2.046677323E-1,-9.889717430E-2,1.065605936E0,1.089580443E0
1.000033067E1,2.516358392E-2,9.277208799E-2,9.596280760E-1,9.644303554E-1
1.001032867E1,-1.118042633E-1,1.492596447E-1,1.020847839E0,1.037742235E0
1.002032767E1,-1.300990499E-1,-7.333016904E-2,9.211475497E-1,9.331751630E-1
1.003032667E1,-2.394904414E-1,6.103548450E-2,1.032189099E0,1.061364846E0
1.004032467E1,5.135675289E-2,2.177026195E-2,1.059238318E0,1.060706027E0
1.005032367E1,1.773872005E-1,-1.578924922E-1,1.219543828E0,1.242450565E0
1.006032267E1,-1.874566175E-2,-2.749888876E-2,1.105192171E0,1.105693141E0
1.007032067E1,5.320891326E-2,-8.981862282E-2,9.852850735E-1,9.908003076E-1
1.008031967E1,-1.006407226E-1,-4.285009565E-2,1.069420075E0,1.074999527E0
1.009031867E1,-2.727984841E-1,-4.950855765E-2,8.487718838E-1,8.929075098E-1
1.010031767E1,-4.574890763E-2,3.003703717E-2,8.779290247E-1,8.796331955E-1
1.011031567E1,-1.828479335E-1,-1.534716682E-1,8.907847130E-1,9.222170703E-1
1.012031467E1,4.140440812E-2,-7.282659587E-2,7.853927439E-1,7.898479603E-1
1.013031367E1,2.435171630E-1,6.637192760E-3,9.037930137E-1,9.360483281E-1
1.014031167E1,-9.837412259E-2,-1.624317040E-1,7.602526402E-1,7.836106198E-1
1.015031067E1,-7.209286166E-2,1.918243049E-2,6.804849243E-1,6.845619611E-1
1.016030967E1,-6.263729269E-2,1.011282891E-1,6.744868505E-1,6.848962496E-1
1.017030767E1,-7.943842633E-2,-7.629790507E-2,7.874854624E-1,7.951510469E-1
1.018030667E1,-4.000261126E-2,-3.309418079E-2,8.714579111E-1,8.730030496E-1
1.019030567E1,-8.070007274E-2,5.624175439E-2,5.741568160E-1,5.825218331E-1
1.020030367E1,1.713987563E-1,1.404720470E-2,5.917996198E-1,6.162804943E-1
1.021030267E1,-4.479011044E-2,1.334792887E-1,6.224793756E-1,6.382032964E-1
1.022030167E1,3.697435655E-2,4.862321611E-2,5.456814605E-1,5.490897709E-1
1.023029967E1,-1.336552899E-2,-5.504912339E-2,5.079265738E-1,5.110757749E-1
1.024029867E1,-8.475796731E-2,2.106123407E-1,3.580636060E-1,4.239705379E-1
1.025029767E1,1.170932526E-1,8.185882643E-3,3.384526294E-1,3.582290062E-1
1.026029567E1,-5.767899999E-2,7.792438120E-2,2.808137012E-1,2.970781227E-1
1.027029467E1,1.221237949E-1,1.377542795E-1,1.995350647E-1,2.714861043E-1
1.028029367E1,1.007607733E-1,-1.583837862E-1,3.921435177E-2,1.917704945E-1
1.029029167E1,-8.309364874E-2,3.243654444E-1,-1.469984168E-1,3.656856991E-1
1.030029067E1,2.757386103E-2,-1.679332578E-1,-3.121126771E-1,3.554943320E-1
1.031028967E1,-6.887727678E-2,1.704506669E-1,-5.585277933E-1,5.880057865E-1
1.032028767E1,8.709652467E-2,-1.641786693E-1,-6.602950734E-1,6.859519108E-1
1.033028667E1,1.835992276E-1,1.887644935E-1,-9.939792985E-1,1.028268232E0
1.034028567E1,3.377971200E-2,-1.277673265E-1,-9.728369361E-1,9.817725108E-1
1.035028367E1,1.839249723E-1,7.249421820E-2,-1.385831040E0,1.399861236E0
1.036028267E1,-2.300588460E-1,-7.203077154E-2,-1.714263881E0,1.731131468E0
1.037028167E1,1.532693546E-1,-1.476002232E-1,-1.631159744E0,1.644980070E0
1.038027967E1,-3.217700846E-2,-4.705071710E-3,-2.049402893E0,2.049660878E0
1.039027867E1,1.477042488E-1,-1.773010455E-1,-1.662423052E0,1.678363074E0
1.040027767E1,1.405924083E-1,3.110700455E-3,-2.053890631E0,2.058699256E0
1.041027567E1,-4.872413540E-2,-1.798899915E-1,-1.870656434E0,1.879917537E0
1.042027467E1,7.353610067E-2,-1.350777713E-1,-1.971686965E0,1.977676175E0
1.043027350E1,-1.503415623E-1,-4.156891588E-2,-2.059704518E0,2.065602397E0
1.044027150E1,1.256674086E-1,-2.582528774E-1,-1.760446944E0,1.783720911E0
1.045027050E1,-7.338136872E-2,1.066494128E-1,-2.153857554E0,2.157744490E0
1.046026950E1,2.414925281E-1,-3.399023735E-1,-1.727073376E0,1.776692070E0
1.047026750E1,-5.188996414E-2,4.042218553E-2,-1.969879006E0,1.970976870E0
1.048026650E1,5.493892165E-2,-1.500466982E-1,-1.821961992E0,1.828955384E0
1.049026550E1,-9.664197631E-2,-1.601001998E-1,-1.777796218E0,1.787604861E0
1.050026350E1,-8.738901336E-2,1.302319462E-1,-1.797127113E0,1.803957610E0
1.051026250E1,1.717176489E-1,-2.932878587E-1,-1.564792092E0,1.601274183E0
1.052026150E1,8.031689739E-2,5.606447412E-2,-1.597131287E0,1.600131988E0
1.053025950E1,9.012772126E-2,-4.685662609E-2,-1.470315705E0,1.473820485E0
1.054025850E1,-5.031786712E-2,-1.369062322E-1,-1.547547483E0,1.554406130E0
1.055025750E1,-1.897112125E-1,1.142763930E-1,-1.524356841E0,1.540361392E0
1.056025550E1,9.687259415E-2,-1.444470756E-1,-1.489776993E0,1.499894911E0
1.057025450E1,3.068496348E-2,6.093606357E-2,-1.568079981E0,1.569563506E0
1.058025350E1,1.514368555E-1,3.397354720E-2,-1.530507528E0,1.538356466E0
1.059025250E1,7.128824824E-2,-4.353529796E-2,-1.736930028E0,1.738937393E0
1.060025050E1,-4.570306180E-2,5.593291176E-2,-1.827957142E0,1.829383659E0
1.061024950E1,-3.463018952E-2,-4.367458960E-2,-1.808642619E0,1.809501269E0
1.062024850E1,1.191704577E-1,-1.370888846E-2,-1.999812657E0,2.003407147E0
1.063024650E1,1.069878387E-1,4.644521965E-2,-1.917633550E0,1.921177240E0
1.064024550E1,1.726270919E-1,1.990693705E-2,-2.129742467E0,2.136819921E0
1.065024450E1,1.131782311E-1,-3.420071153E-2,-2.182124748E0,2.185325472E0
1.066024250E1,1.472931895E-2,-5.903129652E-2,-2.379848930E0,2.380626509E0
1.067024150E1,7.419104364E-2,1.607262539E-2,-2.667992701E0,2.669072440E0
1.068024050E1,1.419669243E-2,-1.095875473E-1,-2.887419993E0,2.889533733E0
1.069023850E1,9.652450209E-2,-3.657804323E-2,-3.225862098E0,3.227513161E0
1.070023750E1,1.127259307E-1,-1.123456607E-1,-3.478227341E0,3.481866470E0
1.071023650E1,1.491360309E-1,-3.878207808E-2,-3.712336991E0,3.715533817E0
1.072023450E1,1.417505407E-1,-1.996370438E-1,-3.923995088E0,3.931626332E0
1.073023350E1,9.671135718E-2,-9.343879849E-2,-4.169938334E0,4.172106136E0
1.074023250E1,1.109834239E-1,-1.679421383E-1,-4.344322186E0,4.348983460E0
1.075023050E1,3.868649438E-2,-5.580895079E-2,-4.563632534E0,4.564137726E0
1.076022950E1,4.628253914E-4,-3.108357183E-1,-4.522630688E0,4.533299835E0
1.077022850E1,9.194213055E-2,-1.531228453E-1,-4.585512230E0,4.588989254E0
1.078022650E1,1.443330366E-1,-1.967299178E-1,-4.574744582E0,4.581246848E0
1.079022550E1,1.078367996E-1,-1.735512078E-1,-4.420569878E0,4.425289464E0
1.080022450E1,1.640475637E-1,-2.026674181E-1,-4.234650639E0,4.242670353E0
1.081022250E1,1.085558244E-1,-2.189804189E-1,-4.011156024E0,4.018595456E0
1.082022150E1,1.435755664E-1,-1.589236669E-1,-3.756076503E0,3.762177744E0
1.083022050E1,4.738099342E-2,-6.782793911E-2,-3.503996605E0,3.504973294E0
1.084021850E1,-2.843248811E-2,-9.920408003E-2,-3.203277227E0,3.204939134E0
1.085021750E1,-1.802305005E-1,-1.718074767E-1,-2.971865482E0,2.982278539E0
1.086021650E1,3.890148919E-2,-1.618580556E-2,-2.880133193E0,2.880441375E0
1.087021450E1,7.083719037E-2,-6.961229006E-2,-2.526587146E0,2.528538389E0
1.088021350E1,1.814584706E-1,-8.742935915E-2,-2.269286853E0,2.278208483E0
1.089021250E1,2.495436689E-1,-4.181374976E-2,-2.005554038E0,2.021451813E0
1.090021050E1,5.680160701E-2,-6.728677930E-2,-1.724894119E0,1.727140311E0
1.091020950E1,9.698392879E-3,1.162451871E-1,-1.698427282E0,1.702428335E0
1.092020850E1,-2.037159518E-1,-1.369425215E-2,-1.400730330E0,1.415532825E0
1.093020650E1,1.572895529E-2,-2.591836810E-2,-1.190435804E0,1.190821803E0
1.094020550E1,1.949078706E-1,-2.535546396E-2,-9.968894577E-1,1.016080985E0
1.095020450E1,1.035305811E-1,1.408539981E-1,-7.876252109E-1,8.067911147E-1
1.096020250E1,2.824314795E-3,-2.946724428E-2,-8.226599729E-1,8.231923993E-1
1.097020150E1,8.628272016E-2,1.810257949E-1,-6.542858899E-1,6.843281902E-1
1.098020050E1,-7.571358550E-2,-3.754003812E-2,-3.776640576E-1,3.870038009E-1
1.099019950E1,6.039071934E-2,-2.937783670E-2,-4.264672583E-1,4.317226178E-1
1.100019750E1,-1.320049681E-1,4.456018696E-2,-2.306931227E-1,2.694999791E-1
1.101019650E1,1.900335951E-1,4.572864337E-2,-5.525443375E-2,2.031180163E-1
1.102019550E1,1.443359602E-2,-1.635561235E-2,-1.825062186E-1,1.838052082E-1
1.103019350E1,-1.820947025E-1,-3.975562122E-2,1.582548916E-2,1.870546343E-1
1.104019250E1,2.060096500E-2,2.919372249E-2,-1.259461015E-1,1.309163614E-1
1.105019150E1,3.741024455E-1,-7.945034003E-2,6.147996426E-2,3.873561439E-1
1.106018950E1,-1.874257004E-1,1.027727637E-1,1.009825838E-1,2.364066757E-1
1.107018850E1,7.053825147E-3,-1.073864726E-1,1.171612448E-1,1.590860403E-1
1.108018750E1,1.449305307E-1,-2.891678374E-2,1.060836947E-1,1.819197334E-1
1.109018550E1,-2.098305131E-1,-3.322090091E-2,3.117589206E-1,3.772613113E-1
1.110018450E1,5.535412878E-3,-2.895711126E-2,1.463470370E-1,1.492870065E-1
1.111018350E1,2.483224048E-1,-6.173535967E-2,3.144556564E-1,4.054104479E-1
1.112018150E1,-9.584757725E-2,4.440355467E-2,2.523284054E-1,2.735471767E-1
1.113018050E1,-6.127969712E-2,-1.498739861E-1,8.707556605E-2,1.838465860E-1
1.114017950E1,-1.433192756E-1,-4.328777801E-2,1.122185934E-1,1.871022693E-1
1.115017750E1,-3.715525478E-2,-4.974317718E-2,3.526274496E-1,3.580516930E-1
1.116017650E1,8.342222571E-3,-2.929409361E-2,1.101358151E-1,1.142700065E-1
1.117017550E1,1.092946932E-2,1.330685584E-2,2.024879086E-1,2.032187955E-1
1.118017350E1,4.758361772E-2,2.545888659E-2,2.825824839E-1,2.876894433E-1
1.119017250E1,7.068836046E-2,-1.043795968E-1,9.055933714E-2,1.552190004E-1
1.120017150E1,-2.998139909E-1,4.099135716E-3,1.254426563E-1,3.250247561E-1
1.121016950E1,-2.227916158E-1,3.437243694E-2,2.770837623E-1,3.572015955E-1
1.122016850E1,1.372202460E-1,1.703907877E-2,1.527035451E-1,2.060050941E-1
1.123016750E1,7.942780998E-2,1.117685588E-1,2.214153457E-1,2.604337594E-1
1.124016550E1,1.027029442E-1,-5.221786503E-2,3.166542095E-1,3.369636309E-1
1.125016450E1,5.530369654E-2,5.958177533E-2,1.066643232E-1,1.341110161E-1
1.126016350E1,-1.283630664E-1,7.394255525E-2,2.421460640E-1,2.838649232E-1
1.127016150E1,-2.124857155E-1,7.557029217E-2,2.526271981E-1,3.386466441E-1
1.128016050E1,1.284242246E-1,5.061110498E-2,2.674493051E-1,3.009707564E-1
1.129015950E1,1.018306493E-1,9.688266233E-2,4.367501718E-1,4.588098124E-1
1.130015850E1,1.000555808E-1,-4.601393268E-3,4.322723740E-1,4.437247992E-1
1.131015650E1,1.982016803E-1,8.345380068E-2,2.983085704E-1,3.677450830E-1
1.132015550E1,-1.792248342E-1,4.612371415E-2,3.863249534E-1,4.283642234E-1
1.133015450E1,-1.063129421E-1,3.783035237E-2,3.782411778E-1,3.947150438E-1
1.134015250E1,1.265244825E-1,5.622916460E-2,3.439460886E-1,3.707682234E-1
1.135015150E1,2.212109489E-2,5.022186315E-2,5.653316134E-1,5.679889185E-1
1.136015050E1,1.110377847E-1,-5.663598463E-2,4.428932565E-1,4.600994035E-1
1.137014850E1,1.405997356E-1,8.140603267E-2,2.957393038E-1,3.374269753E-1
1.138014750E1,-1.820848718E-1,-1.667993182E-2,4.572528487E-1,4.924563822E-1
1.139014650E1,-1.546253787E-1,-4.229766168E-3,2.593550044E-1,3.019799943E-1
1.140014450E1,1.067300313E-1,-1.012620807E-2,2.689111090E-1,2.894944286E-1
1.141014350E1,-1.095567763E-1,-2.238288570E-2,4.521195781E-1,4.657421966E-1
1.142014250E1,5.505787594E-2,-2.034039846E-2,1.506324613E-1,1.616639722E-1
1.143014104E1,1.635295004E-1,-5.977807732E-2,1.694698513E-1,2.429719048E-1
1.144014004E1,-1.180254632E-1,7.691961028E-2,4.510325807E-1,4.725219839E-1
1.145013904E1,-8.094444981E-2,-1.786345395E-1,2.785870814E-1,3.406949730E-1
1.146013704E1,2.673016263E-2,8.723203389E-2,3.227037388E-1,3.353529967E-1
1.147013604E1,-2.013718213E-1,-4.643146042E-2,7.127972227E-1,7.421498310E-1
1.148013504E1,-4.043451950E-2,-1.365877599E-1,2.649285704E-1,3.007961335E-1
1.149013304E1,1.151289170E-1,1.377246962E-1,3.603872895E-1,4.026186259E-1
1.150013204E1,-1.655240405E-1,-3.147707848E-2,7.431536275E-1,7.620146511E-1
1.151013104E1,7.313819764E-2,-1.597678952E-1,1.670093429E-1,2.424192586E-1
1.152012904E1,1.973258039E-2,1.858044136E-1,2.102220207E-1,2.812578050E-1
1.153012804E1,-2.713359858E-1,-1.183385451E-1,5.994308209E-1,6.685391070E-1
1.154012704E1,5.500369783E-2,-6.954806205E-3,5.724891901E-2,7.969450943E-2
1.155012504E1,-8.514848823E-2,1.291177775E-1,3.850362271E-1,4.149392265E-1
1.156012404E1,-2.558679443E-2,-1.089676694E-1,5.991191643E-1,6.094853650E-1
1.157012304E1,2.399649064E-1,1.087674022E-1,7.609215617E-2,2.742326026E-1
1.158012104E1,-8.818646394E-2,-3.491229940E-2,5.450622404E-1,5.532527153E-1
1.159012004E1,-2.060439111E-1,8.626693267E-2,3.679910088E-1,4.304804984E-1
1.160011904E1,1.663321440E-1,-5.868428255E-2,2.461379582E-1,3.028103723E-1
1.161011804E1,2.913570715E-2,1.818172886E-1,6.086787772E-1,6.359215909E-1
1.162011604E1,1.787696650E-2,-2.965790005E-2,3.548260027E-1,3.565118079E-1
1.163011504E1,3.013188449E-1,6.144171981E-2,1.203947550E-1,3.302469201E-1
1.164011404E1,-3.290220573E-1,3.319921140E-2,5.137796366E-1,6.110050874E-1
1.165011204E1,1.951518639E-1,-6.129944975E-2,3.302887470E-1,3.885003589E-1
1.166011104E1,1.136197141E-1,1.564746155E-1,1.973300797E-1,2.762841021E-1
1.167011004E1,-3.535270438E-2,7.157048604E-2,8.154088408E-1,8.193068569E-1
1.168010804E1,1.124728741E-1,-1.050908009E-1,5.416498053E-1,5.630974476E-1
1.169010704E1,-3.679026062E-2,1.327957858E-1,5.339940459E-1,5.514869763E-1
1.170010604E1,-2.519214392E-2,-9.875459360E-2,1.075605844E0,1.080423549E0
1.171010404E1,-2.765628850E-2,1.542518330E-1,4.518430048E-1,4.782474247E-1
1.172010304E1,1.480929607E-1,1.344589166E-2,6.527077264E-1,6.694323663E-1
1.173010204E1,-1.477698107E-1,-6.397467881E-2,7.456872261E-1,7.628749017E-1
1.174010004E1,7.009236474E-2,-2.602725422E-2,3.253718233E-1,3.338520345E-1
1.175009904E1,1.010201521E-2,1.816914456E-2,6.003406477E-1,6.007004759E-1
1.176009804E1,-2.445296632E-1,4.988117147E-2,6.407718050E-1,6.876564503E-1
1.177009604E1,9.251585204E-2,-5.548980245E-2,3.219295675E-1,3.395245904E-1
1.178009504E1,-6.388503369E-3,4.347519955E-2,7.301266158E-1,7.314477295E-1
1.179009404E1,-1.691209735E-1,-1.278555098E-1,9.600911754E-1,9.832212367E-1
1.180009204E1,-2.875386570E-3,8.866463827E-2,7.915334898E-1,7.964891408E-1
1.181009104E1,-6.157489015E-2,-2.984345779E-3,1.351676869E0,1.353081938E0
1.182009004E1,-6.016240384E-2,-6.459327769E-3,1.312176588E0,1.313570948E0
1.183008804E1,4.618341057E-2,-2.950287575E-2,1.247960712E0,1.249163426E0
1.184008704E1,-6.433740718E-2,7.169172440E-2,1.611863347E0,1.614739129E0
1.185008604E1,-5.565781854E-2,-5.010351185E-3,1.596164743E0,1.597142693E0
1.186008404E1,-1.162586905E-1,-6.846395172E-3,1.676853980E0,1.680893282E0
1.187008304E1,-2.241995522E-1,1.293452342E-1,1.958423141E0,1.975453576E0
1.188008204E1,-8.766428931E-2,-8.914847709E-3,2.043603040E0,2.045501867E0
1.189008104E1,2.514450738E-2,8.723645585E-2,2.336243320E0,2.338006692E0
1.190007904E1,1.986986205E-2,1.411769106E-1,2.533695606E0,2.537703520E0
1.191007804E1,6.403057454E-2,-5.231264474E-2,2.437608896E0,2.439010795E0
1.192007704E1,-1.192593719E-1,1.874042667E-1,2.517091852E0,2.526874463E0
1.193007504E1,-1.778232566E-1,1.045720433E-1,2.524265217E0,2.532680656E0
1.194007404E1,-5.474037213E-2,7.413114622E-2,2.583226200E0,2.584869346E0
1.195007304E1,9.705610536E-3,1.794199120E-1,2.835294405E0,2.840982236E0
1.196007104E1,1.325721846E-1,1.912986036E-2,2.866886911E0,2.870014267E0
1.197007004E1,8.271354318E-2,1.910836271E-1,2.897863705E0,2.905334496E0
1.198006904E1,-1.784473190E-1,8.328710021E-2,3.079279418E0,3.085569951E0
1.199006704E1,-1.280856343E-1,1.333926038E-1,3.059507643E0,3.065091603E0
1.200006604E1,-4.310390135E-2,1.043143821E-1,3.142563248E0,3.144589513E0
1.201006504E1,3.932252526E-3,1.019022777E-1,3.312005618E0,3.313575221E0
1.202006304E1,8.861393195E-2,8.858635867E-2,3.181616802E0,3.184083140E0
1.203006204E1,-3.825224726E-2,1.291145798E-1,3.222911008E0,3.225723047E0
1.204006104E1,-1.950268614E-1,2.474561764E-2,3.310625090E0,3.316456891E0
1.205005904E1,-1.470719821E-1,9.031612951E-2,3.144151937E0,3.148885290E0
1.206005804E1,2.163996041E-2,8.616809646E-2,3.234247005E0,3.235467032E0
1.207005704E1,2.382221438E-2,8.223887717E-2,3.143530962E0,3.144696749E0
1.208005504E1,-3.756212963E-2,8.856810439E-2,2.911502336E0,2.913091326E0
1.209005404E1,-2.576481839E-1,8.734424561E-3,2.839793252E0,2.851470602E0
1.210005304E1,-1.558424218E-1,3.991936153E-2,2.661660751E0,2.666518024E0
1.211005104E1,-1.611026684E-2,7.596105063E-2,2.470942118E0,2.472161923E0
1.212005004E1,-8.834963780E-2,1.608040767E-1,2.385756957E0,2.392801677E0
1.213004904E1,1.273159763E-1,-6.455062956E-2,2.359281934E0,2.363596282E0
1.214004804E1,3.297317997E-2,1.109561795E-1,1.983265037E0,1.986640056E0
1.215004604E1,-2.942762757E-1,-7.894704094E-2,1.929993979E0,1.953895575E0
1.216004504E1,-1.098274111E-1,6.460513657E-2,1.697522718E0,1.702298229E0
1.217004404E1,-1.248110474E-1,-1.762058437E-3,1.598428785E0,1.603295195E0
1.218004204E1,1.215979658E-2,4.971308229E-2,1.456820916E0,1.457719600E0
1.219004104E1,9.770386722E-2,-5.920684090E-2,1.380645145E0,1.385363675E0
1.220004004E1,1.186809178E-1,2.532118466E-2,1.249388017E0,1.255267597E0
1.221003804E1,-2.378475017E-1,9.469006609E-2,9.283162361E-1,9.629686791E-1
1.222003704E1,-4.719720813E-2,-7.790746082E-2,8.213110203E-1,8.263467437E-1
1.223003604E1,-2.076122988E-1,5.690301966E-2,5.773113889E-1,6.161406170E-1
1.224003404E1,7.253522180E-2,-4.201171456E-2,4.688040233E-1,4.762389682E-1
1.225003304E1,1.587837540E-1,1.324723251E-2,3.347115809E-1,3.707015135E-1
1.226003204E1,9.227121916E-2,1.086517735E-1,1.521129763E-1,2.084647292E-1
1.227003004E1,-9.016717169E-2,-1.798166821E-2,-3.527274370E-2,9.847652355E-2
1.228002904E1,-1.938436591E-1,3.767317191E-2,-2.687830549E-1,3.335250555E-1
1.229002804E1,2.245928323E-2,-7.004105542E-3,-2.418162811E-1,2.429580019E-1
1.230002604E1,2.842845901E-1,5.709349271E-2,-5.039025199E-1,5.813734984E-1
1.231002504E1,1.795433065E-1,-5.592929380E-2,-5.227311391E-1,5.555283328E-1
1.232002404E1,-5.718240693E-2,7.153547583E-2,-7.602713513E-1,7.657673796E-1
1.233002204E1,-9.756715201E-2,2.999808010E-2,-9.650461060E-1,9.704294001E-1
1.234002104E1,2.598837024E-2,-3.415665641E-2,-9.454327905E-1,9.464064845E-1
1.235002004E1,2.328709182E-1,1.290590130E-3,-1.075662562E0,1.100581882E0
1.236001804E1,2.181834434E-1,-3.068322759E-2,-1.183118014E0,1.203459060E0
1.237001704E1,-2.817897476E-2,-1.768874098E-3,-1.338037654E0,1.338335513E0
1.238001604E1,-7.522320511E-2,1.632036461E-2,-1.402709613E0,1.404819968E0
1.239001504E1,2.748629898E-3,-9.665716080E-2,-1.459456256E0,1.462656051E0
1.240001304E1,7.799582686E-2,5.120827015E-3,-1.454672064E0,1.456770533E0
1.241001204E1,1.681069018E-1,-1.079602307E-1,-1.495233030E0,1.508521513E0
1.242001104E1,4.927015571E-2,-1.727441093E-2,-1.585341547E0,1.586201051E0
1.243000862E1,-8.457900597E-2,-4.816046381E-2,-1.700906501E0,1.703688928E0
1.244000762E1,-8.143662091E-2,-9.318623532E-2,-1.756747411E0,1.761101094E0
1.245000662E1,1.403423119E-3,-7.064350136E-2,-1.883550130E0,1.884874947E0
1.246000462E1,3.873617744E-2,-1.116416376E-1,-1.937892982E0,1.941492611E0
1.247000362E1,6.958738457E-2,-5.498189868E-2,-2.100164326E0,2.102036063E0
1.248000262E1,-2.764291300E-2,-7.872577865E-2,-2.245674627E0,2.247224156E0
1.249000062E1,-7.019432556E-2,-1.018288951E-1,-2.408541217E0,2.411714569E0
1.249999962E1,2.485488748E-2,-1.411990387E-1,-2.588189902E0,2.592157769E0
1.250999862E1,6.546155266E-2,-6.855039915E-2,-2.771577880E0,2.773198211E0
1.251999662E1,1.548725697E-1,-8.142971389E-2,-2.990431561E0,2.995546233E0
1.252999562E1,1.610457859E-1,-1.482478571E-1,-3.282341523E0,3.289632053E0
1.253999462E1,1.508478581E-1,-3.548728170E-2,-3.503734065E0,3.507159366E0
1.254999262E1,1.693896165E-1,-1.603777050E-1,-3.909989253E0,3.916941384E0
1.255999162E1,3.976742528E-2,-8.081922803E-2,-4.261157237E0,4.262109125E0
1.256999062E1,-1.201296203E-1,-1.457696610E-1,-4.735092777E0,4.738858884E0
1.257998862E1,-4.662171420E-2,-1.140569031E-1,-5.006942112E0,5.008458033E0
1.258998762E1,1.164461668E-1,-6.577317271E-2,-5.259196258E0,5.260896416E0
1.259998662E1,2.401235852E-1,-1.958063135E-1,-5.217882755E0,5.227073741E0
1.260998562E1,3.591985506E-1,-7.910593903E-2,-5.339424149E0,5.352077316E0
1.261998362E1,1.778424611E-1,-9.693223575E-2,-5.366219600E0,5.370040651E0
1.262998262E1,6.748573082E-2,-6.255479213E-2,-5.129719607E0,5.130544871E0
1.263998162E1,3.729500324E-3,-1.392075318E-1,-4.876159194E0,4.878147305E0
1.264997962E1,7.673787151E-2,-1.904881795E-1,-4.449406006E0,4.454142820E0
1.265997862E1,2.134301322E-1,-5.553948551E-2,-4.145541412E0,4.151403456E0
1.266997762E1,3.808417270E-1,-5.055491690E-2,-3.834639693E0,3.853836763E0
1.267997562E1,1.006939506E-1,-1.194075806E-1,-3.470587953E0,3.474101061E0
1.268997462E1,-8.383534977E-2,-1.138503868E-1,-3.078699959E0,3.081944794E0
1.269997362E1,-1.568159284E-2,-1.279210717E-1,-2.643261902E0,2.646401934E0
1.270997162E1,1.749328683E-1,-6.943257954E-3,-2.263658908E0,2.270418765E0
1.271997062E1,2.200529079E-1,3.159250617E-3,-2.012183027E0,2.024182254E0
1.272996962E1,2.063632239E-2,-1.330474353E-1,-1.733454443E0,1.738675295E0
1.273996762E1,-1.435372306E-1,-6.144270653E-2,-1.528836393E0,1.536788489E0
1.274996662E1,3.495173156E-4,-5.063705200E-2,-1.316884766E0,1.317858005E0
1.275996562E1,4.773115028E-2,-1.973488273E-2,-1.187702816E0,1.188825347E0
1.276996362E1,7.175041582E-2,-4.800942292E-2,-9.841249859E-1,9.879043551E-1
1.277996262E1,-7.535860470E-2,-1.144574191E-3,-7.492651373E-1,7.530461310E-1
1.278996162E1,6.853316814E-2,-7.633384718E-2,-5.182802385E-1,5.283351749E-1
1.279996062E1,-7.856843373E-2,4.703920539E-3,-5.791965312E-1,5.845201001E-1
1.280995863E1,-5.205755996E-2,-6.697693169E-3,-5.267967081E-1,5.294049682E-1
1.281995762E1,-7.332667898E-2,2.092956025E-3,-4.670644766E-1,4.727900249E-1
1.282995662E1,3.406081690E-2,-4.432353918E-2,-2.987944740E-1,3.039783760E-1
1.283995463E1,9.323531538E-3,6.034911275E-3,-2.842653126E-1,2.844821898E-1
1.284995363E1,-3.296773475E-2,1.011155348E-2,-3.186761767E-1,3.205364576E-1
1.285995262E1,-5.858846130E-2,-3.386133548E-2,-4.523312473E-1,4.573650130E-1
1.286995062E1,-1.190734304E-2,4.678424852E-2,-4.497771835E-1,4.523605482E-1
1.287994962E1,-6.298472693E-2,-4.334458737E-2,-4.395802242E-1,4.461800114E-1
1.288994863E1,7.231335651E-2,-1.471199658E-2,-5.209951007E-1,5.261953624E-1
1.289994662E1,4.186436472E-2,2.672471741E-2,-3.894000041E-1,3.925547080E-1
1.290994562E1,8.512760270E-3,-1.306903861E-2,-3.723220414E-1,3.726485870E-1
1.291994462E1,1.177677289E-1,4.959571771E-2,-3.539103287E-1,3.762731640E-1
1.292994262E1,-3.038702957E-2,2.140559670E-2,-2.143998563E-1,2.175979539E-1
1.293994162E1,6.943398653E-2,-4.890952868E-2,-2.802517837E-1,2.928383219E-1
1.294994062E1,1.504726496E-1,3.059204757E-2,-4.229039651E-1,4.499173873E-1
1.295993862E1,-2.044497225E-2,-1.017194426E-2,-3.999951589E-1,4.006464682E-1
1.296993762E1,9.819404662E-2,-4.253790915E-2,-5.094082582E-1,5.205269619E-1
1.297993662E1,1.092391812E-1,7.936732784E-2,-4.034415078E-1,4.254379175E-1
1.298993462E1,1.480533276E-3,-1.870559005E-2,-2.098916531E-1,2.107287287E-1
1.299993362E1,1.437783003E-1,-7.013015237E-2,-3.339853567E-1,3.703196678E-1
1.300993262E1,3.583769437E-2,7.526166882E-2,-2.441914201E-1,2.580273411E-1
1.301993162E1,-9.728058362E-2,-7.279876677E-2,-2.123135698E-1,2.446226161E-1
1.302992962E1,1.186101848E-1,-3.056522347E-2,-4.018341082E-1,4.200872045E-1
1.303992862E1,2.211175762E-2,8.029997701E-2,-1.908004940E-1,2.081870424E-1
1.304992762E1,-4.894971002E-2,-1.109216078E-1,2.175807416E-2,1.231791013E-1
1.305992562E1,9.997651549E-2,-5.108694043E-3,-1.432170224E-1,1.747355657E-1
1.306992462E1,-1.350180018E-1,1.912262443E-2,8.218553960E-2,1.592168286E-1
1.307992362E1,-1.199528334E-1,-1.262126980E-2,1.300847608E-1,1.773979247E-1
1.308992162E1,5.337121004E-2,-6.677112797E-2,-8.308425665E-2,1.192051312E-1
1.309992062E1,-8.033847727E-2,9.528423456E-2,1.683600497E-1,2.094718660E-1
1.310991962E1,-6.412257683E-3,-8.539511282E-3,2.152202207E-1,2.154849964E-1
1.311991762E1,7.667249233E-2,-1.027079326E-1,1.284048557E-2,1.288117564E-1
1.312991662E1,-2.886516014E-1,3.198737595E-2,1.967857039E-1,3.508098523E-1
1.313991562E1,-5.015723314E-2,6.767444970E-2,1.729688251E-1,1.923896921E-1
1.314991362E1,3.281007919E-2,-2.388761183E-2,1.177301788E-1,1.245291705E-1
1.315991262E1,-8.276371960E-2,2.662142269E-2,2.871743023E-1,3.000460187E-1
1.316991162E1,7.106788130E-2,1.812289674E-3,2.325349957E-1,2.431593148E-1
1.317990962E1,2.463013513E-2,3.114470081E-2,3.180055010E-1,3.204748580E-1
1.318990862E1,-2.202316500E-1,-2.126305254E-2,5.076710504E-1,5.537905674E-1
1.319990762E1,-7.579027539E-2,3.851354470E-2,2.504888713E-1,2.645224634E-1
1.320990662E1,9.135711662E-2,8.953771893E-2,5.887771940E-1,6.025128298E-1
1.321990462E1,6.731522966E-2,-1.657912217E-2,9.169205976E-1,9.195377043E-1
1.322990362E1,1.895383542E-1,7.278301584E-2,7.446329731E-1,7.718163121E-1
1.323990262E1,-1.467958473E-1,4.974202601E-2,9.353346491E-1,9.480897614E-1
1.324990062E1,-1.975018599E-1,3.448190778E-2,1.001660786E0,1.021528422E0
1.325989962E1,2.660353021E-1,3.547376001E-2,8.199380940E-1,8.627465721E-1
1.326989862E1,1.711812034E-1,7.054422660E-2,9.142460811E-1,9.328051185E-1
1.327989662E1,-1.693075910E-2,-4.027635232E-3,7.434775633E-1,7.436812217E-1
1.328989562E1,1.018475331E-3,1.096078847E-2,3.583279002E-1,3.584969459E-1
1.329989462E1,-8.436821384E-2,6.280693503E-2,5.439360666E-1,5.540118692E-1
1.330989262E1,5.447861787E-2,2.801320620E-2,4.987370896E-1,5.024851680E-1
1.331989162E1,2.159674583E-1,1.975997094E-2,3.586225998E-1,4.190973259E-1
1.332989062E1,4.227063658E-2,2.222574178E-2,5.797233653E-1,5.816871759E-1
1.333988862E1,2.271047596E-2,8.612400480E-4,4.183758813E-1,4.189927034E-1
1.334988762E1,-3.249995749E-2,4.889280930E-2,3.905156529E-1,3.949040759E-1
1.335988662E1,-1.600337425E-1,6.045478290E-2,7.702700901E-1,7.890383966E-1
1.336988562E1,1.028634869E-3,-5.420226384E-2,6.524674058E-1,6.547157086E-1
1.337988362E1,1.417139408E-1,4.022562772E-2,6.767099619E-1,6.925585280E-1
1.338988262E1,5.455746392E-2,2.590619858E-2,9.829777622E-1,9.848314216E-1
1.339988162E1,-4.672590427E-2,3.426530499E-2,7.386922020E-1,7.409612611E-1
1.340987962E1,-5.676420311E-2,3.320575297E-2,7.205716807E-1,7.235664059E-1
1.341987862E1,-3.124617559E-1,2.140016975E-2,7.570945591E-1,8.193183066E-1
1.342987762E1,-1.535566539E-2,-1.318165782E-1,6.277658433E-1,6.416395879E-1
1.343987600E1,7.578815578E-2,1.516844302E-1,8.209935164E-1,8.383211586E-1
1.344987500E1,-4.088864716E-2,-3.959533442E-2,1.250320063E0,1.251614930E0
1.345987400E1,2.583513664E-2,-2.549250808E-2,1.168597623E0,1.169161121E0
1.346987200E1,-2.278631435E-1,7.590407683E-2,1.420657057E0,1.440815572E0
1.347987100E1,-2.171760960E-1,-6.818946149E-2,1.751632267E0,1.766360908E0
1.348987000E1,-9.916223589E-2,2.044641579E-2,1.657469875E0,1.660559421E0
1.349986800E1,9.209711831E-2,1.368875028E-1,2.050692204E0,2.057318299E0
1.350986700E1,-7.955664972E-2,2.785896761E-2,2.231827251E0,2.233418514E0
1.351986600E1,5.589499623E-3,-3.268772621E-2,2.050405691E0,2.050673847E0
1.352986400E1,-1.640186200E-1,9.401591867E-2,2.197987660E0,2.206103092E0
1.353986300E1,-2.025760188E-1,2.416431304E-2,2.267153789E0,2.276314403E0
1.354986200E1,7.134238981E-2,8.974021532E-2,2.140503682E0,2.143571566E0
1.355986100E1,7.974195164E-3,1.559092080E-1,2.414576129E0,2.419617563E0
1.356985900E1,7.039530532E-2,-5.562384987E-2,2.548870300E0,2.550448846E0
1.357985800E1,-4.021524891E-2,7.234553447E-2,2.497980813E0,2.499351773E0
1.358985700E1,-1.180980783E-1,1.510634011E-1,2.858727121E0,2.865150618E0
1.359985500E1,-9.891106144E-2,8.551549237E-2,2.921894007E0,2.924818095E0
1.360985400E1,1.011791233E-1,1.175266957E-1,2.975025902E0,2.979065098E0
1.361985300E1,6.998843048E-3,9.404605011E-2,3.123671479E0,3.125094743E0
1.362985100E1,4.964340907E-3,6.049160209E-2,3.013656117E0,3.014267252E0
1.363985000E1,-4.527986957E-2,1.556232426E-1,2.965145862E0,2.969572165E0
1.364984900E1,-1.252108142E-1,1.341028577E-1,3.023506921E0,3.029068409E0
1.365984700E1,1.708845120E-2,3.939742444E-2,3.010331390E0,3.010637681E0
1.366984600E1,6.172938455E-2,1.295059961E-1,2.951047055E0,2.954532288E0
1.367984500E1,-4.446350690E-3,1.125804995E-1,2.934880673E0,2.937042510E0
1.368984300E1,-1.239361577E-1,9.298467083E-2,2.801654788E0,2.805935828E0
1.369984200E1,-1.014200469E-1,1.474592322E-1,2.763767754E0,2.769556364E0
1.370984100E1,-4.147941694E-2,7.514752021E-2,2.842500513E0,2.843796206E0
1.371984000E1,4.301692402E-2,5.730419347E-2,2.817959749E0,2.818870585E0
1.372983800E1,-7.298326470E-2,9.886647642E-2,2.789377974E0,2.792083563E0
1.373983700E1,-1.438684022E-1,1.110141583E-1,2.676209208E0,2.682371709E0
1.374983600E1,-1.771603468E-1,6.336916309E-2,2.568281302E0,2.575164128E0
1.375983400E1,-8.241127867E-2,7.865151901E-2,2.501818340E0,2.504410647E0
1.376983300E1,-1.620740371E-2,3.729277398E-2,2.382519938E0,2.382866905E0
1.377983200E1,4.647604544E-3,1.904622691E-2,2.266522290E0,2.266607078E0
1.378983000E1,-1.822344327E-1,9.210945228E-2,2.109352056E0,2.119212032E0
1.379982900E1,-1.485958944E-1,4.048453147E-2,2.020881345E0,2.026741510E0
1.380982800E1,-9.483032618E-2,2.641896285E-2,1.956808140E0,1.959282739E0
1.381982600E1,4.406105401E-2,-5.627579615E-4,1.924039759E0,1.924544280E0
1.382982500E1,2.290979292E-2,4.047941515E-2,1.765973148E0,1.766585577E0
1.383982400E1,-1.864036071E-1,4.690965302E-2,1.749215028E0,1.759744309E0
1.384982200E1,-1.297212467E-1,2.132452140E-2,1.669425677E0,1.674593810E0
1.385982100E1,-6.577324580E-2,7.864285782E-3,1.577960606E0,1.579350386E0
1.386982000E1,1.374253919E-1,-2.060140355E-2,1.602675033E0,1.608688104E0
1.387981800E1,-4.528979156E-3,6.049604231E-2,1.422758546E0,1.424051320E0
1.388981700E1,-2.283767117E-2,1.507520003E-2,1.296123642E0,1.296412480E0
1.389981600E1,-1.496402984E-1,4.965155862E-2,1.197923164E0,1.208253865E0
1.390981500E1,2.550230216E-2,-3.994408429E-2,1.071135648E0,1.072183507E0
1.391981300E1,7.136038827E-2,4.658440165E-3,1.010517563E0,1.013044793E0
1.392981200E1,8.239439484E-2,6.673242671E-2,7.816476023E-1,7.888060771E-1
1.393981100E1,-2.622457948E-3,2.052274022E-2,6.867484617E-1,6.870600482E-1
1.394980900E1,-4.854203118E-2,4.861716790E-2,4.875110203E-1,4.923280946E-1
1.395980800E1,5.201792680E-3,-3.093144190E-2,3.988970518E-1,4.001283178E-1
1.396980700E1,8.551940270E-2,4.697050061E-2,2.258603990E-1,2.460339733E-1
1.397980500E1,1.040031457E-1,5.567475719E-2,8.380229473E-2,1.447036887E-1
1.398980400E1,1.730775833E-3,4.883291189E-2,-1.218746853E-1,1.313053227E-1
1.399980300E1,-5.850979798E-2,9.278909974E-3,-2.531616336E-1,2.600005911E-1
1.400980100E1,1.229625598E-2,2.642831840E-3,-4.675141275E-1,4.676832709E-1
1.401980000E1,1.263133798E-1,3.906692885E-2,-6.872624320E-1,6.998649479E-1
1.402979900E1,5.271782024E-2,2.164447373E-2,-8.870921963E-1,8.889208157E-1
1.403979800E1,7.395350050E-2,9.712444469E-3,-1.100999132E0,1.103522787E0
1.404979600E1,-1.049762686E-1,-2.058002466E-2,-1.212513721E0,1.217223512E0
1.405979500E1,3.463336894E-2,-1.637554770E-2,-1.333908935E0,1.334458945E0
1.406979400E1,1.677938931E-2,-3.878896683E-3,-1.490184544E0,1.490284056E0
1.407979200E1,6.987773538E-2,-5.731828161E-2,-1.537031266E0,1.539686136E0
1.408979100E1,8.428103551E-3,2.662209878E-2,-1.722952259E0,1.723178532E0
1.409979000E1,4.483016387E-2,-7.121780757E-2,-1.649754474E0,1.651899375E0
1.410978800E1,-7.789107034E-2,-4.548360849E-2,-1.757088888E0,1.759402495E0
1.411978700E1,2.522497969E-2,-7.394027118E-2,-1.767416825E0,1.769142645E0
1.412978600E1,6.436287912E-2,-1.286118837E-2,-1.865766408E0,1.866920534E0
1.413978400E1,5.140979810E-2,-8.791235743E-2,-1.793012427E0,1.795902312E0
1.414978300E1,4.854433352E-2,-7.418245554E-2,-1.867850940E0,1.869953669E0
1.415978200E1,6.536967829E-3,-8.670432268E-2,-1.851077617E0,1.853118646E0
1.416978000E1,-1.600371961E-2,-8.095291000E-2,-1.899420642E0,1.901212316E0
1.417977900E1,2.665374683E-2,-8.471628763E-2,-1.944476362E0,1.946503428E0
1.418977800E1,4.812949184E-2,-9.304824103E-2,-1.982496713E0,1.985262612E0
1.419977600E1,7.283023210E-2,-5.378599690E-2,-2.115721428E0,2.117657748E0
1.420977500E1,8.337988822E-2,-1.285668419E-1,-2.228283838E0,2.233546619E0
1.421977400E1,5.619212614E-2,-5.677858360E-2,-2.376473917E0,2.377816150E0
1.422977300E1,5.141915364E-2,-6.541110216E-2,-2.510150623E0,2.511529154E0
1.423977100E1,7.133475188E-2,-1.013089315E-1,-2.706994799E0,2.709828959E0
1.424977000E1,1.261220662E-1,-5.587517051E-2,-2.908634861E0,2.911904113E0
1.425976900E1,1.150722904E-1,-9.013062660E-2,-3.119098957E0,3.122521972E0
1.426976700E1,1.400286271E-1,-6.296777001E-2,-3.385850689E0,3.389329999E0
1.427976600E1,8.289643312E-2,-9.149832688E-2,-3.588832687E0,3.590955836E0
1.428976500E1,9.767541686E-2,-7.355170542E-2,-3.945539739E0,3.947433872E0
1.429976300E1,1.268729583E-1,-7.878483552E-2,-4.267676298E0,4.270288606E0
1.430976200E1,1.005443898E-1,-1.001678108E-1,-4.518396719E0,4.520625142E0
1.431976100E1,2.253014235E-1,-9.150326047E-2,-4.836633770E0,4.842743004E0
1.432975900E1,1.235285154E-1,-8.965621641E-2,-4.939761112E0,4.942118713E0
1.433975800E1,8.993635286E-2,-1.061994696E-1,-4.958169317E0,4.960121959E0
1.434975700E1,9.132062634E-2,-9.079704473E-2,-4.858177836E0,4.859884304E0
1.435975500E1,7.299000727E-2,-5.021870200E-2,-4.618376505E0,4.619226234E0
1.436975400E1,1.155148515E-1,-1.286702280E-1,-4.386206376E0,4.389613432E0
1.437975300E1,1.907220134E-1,-7.173345890E-2,-4.133830023E0,4.138849023E0
1.438975200E1,1.019192894E-1,-1.132995974E-1,-3.814835173E0,3.817877911E0
1.439975000E1,6.702860646E-2,-1.087708009E-1,-3.508716477E0,3.511041902E0
1.440974900E1,1.811162258E-2,-5.398493014E-2,-3.109046423E0,3.109567826E0
1.441974800E1,3.768018857E-3,-8.151184900E-2,-2.697542190E0,2.698776064E0
1.442974600E1,9.259842569E-2,-1.202206724E-1,-2.410729830E0,2.415501147E0
1.443974462E1,4.596083265E-2,-1.066490656E-1,-2.009100375E0,2.012453909E0
1.444974362E1,-1.543829385E-2,-5.039872315E-2,-1.777819607E0,1.778600834E0
1.445974162E1,2.825416630E-2,-6.164092714E-2,-1.614356600E0,1.615780039E0
1.446974062E1,-2.880649064E-3,-6.852763155E-2,-1.298209929E0,1.300020521E0
1.447973962E1,3.569990108E-2,-1.179130505E-1,-1.097463906E0,1.104357277E0
1.448973763E1,6.798517440E-2,-8.314201618E-2,-1.044466497E0,1.049973734E0
1.449973663E1,-6.090366634E-2,-6.677995361E-3,-9.137888288E-1,9.158405297E-1
1.450973562E1,-4.818891417E-3,-7.967141960E-3,-8.882043368E-1,8.882531401E-1
1.451973462E1,2.941249972E-2,-8.106841078E-2,-7.483997494E-1,7.533520872E-1
1.452973263E1,3.322632786E-2,-5.279036226E-2,-5.102409017E-1,5.140394819E-1
1.453973163E1,9.022714220E-2,6.636425313E-3,-3.692329574E-1,3.801551738E-1
1.454973062E1,3.017846670E-2,2.710913530E-2,-3.587611789E-1,3.610474048E-1
1.455972862E1,-5.439372361E-2,2.148111714E-2,-3.262863278E-1,3.314858719E-1
1.456972762E1,2.202644309E-2,-3.885007024E-2,-3.292806870E-1,3.322954453E-1
1.457972663E1,7.538610488E-2,1.086686756E-2,-2.432166892E-1,2.548637117E-1
1.458972462E1,3.007031148E-2,5.932727527E-2,-1.149328709E-1,1.327912423E-1
1.459972362E1,3.774240660E-2,5.520862447E-2,-2.436721873E-1,2.526828375E-1
1.460972262E1,1.215351082E-2,4.305615518E-3,-2.025183141E-1,2.029283462E-1
1.461972062E1,-5.530068157E-2,3.086944314E-2,-1.353191882E-1,1.494067288E-1
1.462971962E1,7.236177877E-2,1.875925653E-2,-2.196015394E-1,2.319762333E-1
1.463971862E1,6.338560838E-2,5.832274189E-2,-2.633188319E-1,2.770488852E-1
1.464971662E1,1.457363684E-2,7.147764321E-2,-2.488077968E-1,2.592812452E-1
1.465971562E1,3.656508800E-2,5.657108054E-3,-3.142334622E-1,3.164042941E-1
1.466971462E1,-1.378545044E-2,-2.816932686E-3,-3.007673246E-1,3.010962592E-1
1.467971362E1,-9.763095975E-3,2.954426307E-2,-1.907484537E-1,1.932696410E-1
1.468971162E1,7.265519936E-2,4.476460196E-2,-1.141160148E-1,1.424960085E-1
1.469971062E1,-1.257916985E-2,4.565509636E-2,-3.059789479E-2,5.638133116E-2
1.470970962E1,-1.240561718E-2,-1.169053925E-2,-1.015515178E-1,1.029722235E-1
1.471970762E1,7.144840714E-3,-3.289511964E-2,-2.645561028E-1,2.666890870E-1
1.472970662E1,1.027123729E-2,-2.197577331E-2,-3.284661698E-1,3.293606802E-1
1.473970562E1,-3.057107069E-3,5.919922125E-3,-3.934287357E-1,3.934851477E-1
1.474970362E1,7.999210283E-3,-3.480500299E-3,-4.007669914E-1,4.008619246E-1
1.475970262E1,-2.365545910E-2,-4.387693981E-2,-4.200791752E-1,4.230263349E-1
1.476970162E1,7.483029049E-2,-5.477529097E-2,-4.824929398E-1,4.913240701E-1
1.477969962E1,5.888752811E-2,-5.682799257E-2,-4.655722672E-1,4.727099509E-1
1.478969862E1,-4.631230513E-2,-1.808943970E-2,-3.691709769E-1,3.725040505E-1
1.479969762E1,-3.422386285E-2,-2.885754414E-2,-3.809987247E-1,3.836196800E-1
1.480969662E1,-3.504309431E-3,-6.814253759E-2,-3.474766374E-1,3.541125515E-1
1.481969462E1,2.033350971E-3,-6.656808341E-2,-2.793618375E-1,2.871906692E-1
1.482969362E1,5.400038872E-2,-4.364321563E-2,-2.741098684E-1,2.827666745E-1
1.483969262E1,4.776603257E-2,-1.789224235E-2,-2.847301662E-1,2.892628454E-1
1.484969062E1,-3.996464090E-2,-1.220229853E-2,-2.226029152E-1,2.264908971E-1
1.485968962E1,-2.959080325E-2,-3.782850685E-2,-1.529918128E-1,1.603530678E-1
1.486968862E1,3.315568618E-2,-2.988778699E-2,-5.839029551E-3,4.501859176E-2
1.487968662E1,-1.424431069E-2,1.053776069E-2,2.234928614E-1,2.241941210E-1
1.488968562E1,6.212637395E-2,2.707238920E-2,3.751310438E-1,3.812032274E-1
1.489968462E1,-1.443794489E-2,4.558783511E-2,5.037119007E-1,5.059766634E-1
1.490968262E1,-2.014749516E-2,1.609519199E-3,6.712205958E-1,6.715248323E-1
1.491968162E1,-6.352647146E-2,-3.139095996E-3,7.360363966E-1,7.387794283E-1
1.492968062E1,2.628460480E-2,8.588602312E-2,8.426118422E-1,8.473853940E-1
1.493967862E1,-2.299417555E-4,7.955341548E-2,8.162660426E-1,8.201335569E-1
1.494967762E1,5.021464549E-2,3.712254692E-2,6.620901686E-1,6.650285599E-1
1.495967662E1,5.850358531E-3,6.788970033E-2,6.305023402E-1,6.341738240E-1
1.496967562E1,-6.499174716E-2,5.527285248E-2,6.478726637E-1,6.534661459E-1
1.497967362E1,-1.514863741E-2,3.685553016E-2,5.906927419E-1,5.920352410E-1
1.498967262E1,-8.557619378E-3,1.569080038E-1,5.918756336E-1,6.123806987E-1
1.499967162E1,1.986894842E-2,-6.684098393E-5,5.715203065E-1,5.718655789E-1
1.500966962E1,-4.154680610E-2,4.357816536E-2,4.472687280E-1,4.513031228E-1
1.501966862E1,1.529574970E-2,5.999394922E-2,7.390085363E-1,7.415974991E-1
1.502966762E1,-7.211140830E-2,5.238376150E-2,8.767163122E-1,8.812352726E-1
1.503966562E1,1.793509148E-2,4.480878498E-2,7.969216990E-1,7.983819193E-1
1.504966462E1,9.441307252E-2,5.296928706E-2,7.952768773E-1,8.026112915E-1
1.505966362E1,-5.396804631E-2,3.372977313E-2,5.147473508E-1,5.186666394E-1
1.506966162E1,-3.403055755E-2,-7.684573436E-2,4.503812009E-1,4.581556197E-1
1.507966062E1,-7.418609178E-2,3.966001924E-2,4.201282918E-1,4.284673558E-1
1.508965962E1,-8.483293958E-2,-2.652757488E-2,4.121848494E-1,4.216594478E-1
1.509965862E1,2.068391141E-1,-1.100024438E-1,5.856775850E-1,6.307940951E-1
1.510965662E1,-4.111997763E-2,1.575911047E-1,7.402762127E-1,7.579806593E-1
1.511965562E1,-2.176505428E-2,-7.542279616E-2,9.908715034E-1,9.939761828E-1
1.512965462E1,9.142322671E-3,1.047808254E-2,8.892205828E-1,8.893293075E-1
1.513965262E1,-2.133348956E-1,4.293016596E-2,9.716786027E-1,9.957480021E-1
1.514965162E1,1.917473592E-1,-1.985737459E-1,1.085760119E0,1.120300682E0
1.515965062E1,-6.970405480E-2,1.196171301E-1,7.231912333E-1,7.363236197E-1
1.516964862E1,8.290527703E-2,-2.351428539E-2,9.688444573E-1,9.726694140E-1
1.517964762E1,-7.189782048E-2,2.581870962E-2,8.079261589E-1,8.115297780E-1
1.518964662E1,-1.530020455E-1,4.285941465E-2,7.772177517E-1,7.932931293E-1
1.519964462E1,7.344755189E-2,-1.196194508E-1,1.115233009E0,1.124032037E0
1.520964362E1,-7.708731573E-2,1.290323716E-1,9.269111502E-1,9.390186833E-1
1.521964262E1,2.030569340E-1,-3.078016346E-2,1.193212647E0,1.210758422E0
1.522964162E1,-1.189789248E-1,1.056338794E-1,1.281388074E0,1.291228058E0
1.523963962E1,-1.206396072E-1,8.226690726E-2,1.227199588E0,1.235856216E0
1.524963862E1,-1.216928003E-2,-4.549270822E-2,1.455031083E0,1.455792956E0
1.525963762E1,-1.142241701E-1,1.770778463E-1,1.493644341E0,1.508435329E0
1.526963562E1,1.166804940E-1,5.235761348E-3,1.631966659E0,1.636140864E0
1.527963462E1,4.909346016E-2,1.170196690E-1,1.725530881E0,1.730190912E0
1.528963362E1,-1.036450769E-1,1.302828718E-1,1.804124476E0,1.811789461E0
1.529963162E1,-5.074847801E-2,-2.774686553E-3,1.952629720E0,1.953291051E0
1.530963062E1,-8.867942076E-2,1.533766510E-1,2.112041191E0,2.119458994E0
1.531962962E1,-2.590764211E-2,1.177692090E-1,2.409622952E0,2.412638300E0
1.532962762E1,1.136258903E-1,2.643858757E-2,2.606326795E0,2.608936413E0
1.533962662E1,-7.498642942E-2,1.845482124E-1,2.759902160E0,2.767081665E0
1.534962562E1,-8.929747146E-2,3.667675154E-2,2.944926775E0,2.946508600E0
1.535962363E1,-8.627802411E-2,1.116234199E-1,2.843582833E0,2.847080437E0
1.536962263E1,-1.072582359E-1,1.401468870E-1,2.883094808E0,2.888491155E0
1.537962162E1,6.786804736E-2,1.615929209E-2,2.814998719E0,2.815863097E0
1.538962062E1,-7.623086309E-2,1.409928329E-1,2.563662586E0,2.568668133E0
1.539961863E1,-5.375235714E-2,4.239686335E-2,2.609020023E0,2.609918062E0
1.540961763E1,-1.062592939E-1,7.095773438E-2,2.496752313E0,2.500019630E0
1.541961662E1,-7.608345844E-2,8.464729048E-2,2.499738486E0,2.502328187E0
1.542961462E1,4.023352146E-2,6.346969865E-3,2.686709638E0,2.687018366E0
1.543961375E1,-9.733563881E-2,1.042534614E-1,2.658412038E0,2.662235447E0
1.544961275E1,-2.873031238E-2,3.552357098E-2,2.833095267E0,2.833463631E0
1.545961075E1,-1.777926318E-1,7.747591803E-2,2.884430312E0,2.890942919E0
1.546960975E1,-6.216235260E-2,5.427935572E-2,2.928130063E0,2.929292760E0
1.547960875E1,-1.369951464E-2,4.061123332E-2,3.080807880E0,3.081105994E0
1.548960675E1,-7.645428155E-2,9.656939775E-2,3.049063346E0,3.051550130E0
1.549960575E1,-1.032470277E-2,2.089528095E-2,3.099662812E0,3.099750435E0
1.550960475E1,-1.499978374E-1,9.451903503E-2,3.059094830E0,3.064228186E0
1.551960375E1,-9.450646352E-2,7.517094562E-2,3.058942802E0,3.061325401E0
1.552960175E1,-2.468957573E-2,5.078155132E-2,3.070620276E0,3.071139401E0
1.553960075E1,-3.222835433E-2,1.036326333E-1,3.040986003E0,3.042921993E0
1.554959975E1,1.239278985E-2,4.030834755E-2,3.048331860E0,3.048623537E0
1.555959775E1,-1.227784821E-1,1.020726875E-1,2.996543071E0,3.000793856E0
1.556959675E1,-1.198474008E-1,9.201984370E-2,3.009567744E0,3.013358434E0
1.557959575E1,1.402929761E-3,6.629697360E-2,2.984422962E0,2.985159573E0
1.558959375E1,1.696006827E-2,9.166754896E-2,2.982031451E0,2.983488253E0
1.559959275E1,1.096071538E-2,9.141566187E-2,2.936088708E0,2.937531934E0
1.560959175E1,-6.815978687E-2,1.062345894E-1,2.743436401E0,2.746338441E0
1.561958975E1,-1.030728537E-1,1.015570544E-1,2.677121374E0,2.681029037E0
1.562958875E1,-8.137878830E-2,8.623391418E-2,2.578168359E0,2.580893427E0
1.563958775E1,2.513443921E-3,9.929293944E-2,2.401667231E0,2.403720219E0
1.564958675E1,-2.020066828E-2,3.346266501E-2,2.399893185E0,2.400211474E0
1.565958475E1,1.208384490E-1,1.194109975E-1,2.047969156E0,2.055003304E0
1.566958375E1,-9.942711476E-2,5.868349683E-2,1.959356357E0,1.962754910E0
1.567958275E1,-5.108403509E-2,9.926797913E-2,1.770896503E0,1.774412054E0
1.568958075E1,-2.192483127E-1,3.913996423E-2,1.528696645E0,1.544835005E0
1.569957975E1,1.610085648E-1,3.611989561E-2,1.426604260E0,1.436115635E0
1.570957875E1,-7.743239282E-2,1.015487221E-1,1.199228847E0,1.206009016E0
1.571957675E1,1.663879301E-1,-4.214746132E-3,1.032328847E0,1.045660344E0
1.572957575E1,-2.204455119E-1,8.308641281E-2,8.294959527E-1,8.623010561E-1
1.573957475E1,-5.047727684E-2,-3.458500151E-2,5.711285430E-1,5.743969798E-1
1.574957275E1,-3.941721361E-2,1.799964840E-2,3.925504839E-1,3.949349143E-1
1.575957175E1,1.013764120E-1,1.127772583E-2,1.846357745E-1,2.109377473E-1
1.576957075E1,7.459018920E-3,-3.667190932E-2,5.936327219E-2,7.017452516E-2
1.577956975E1,3.159997964E-2,5.364449428E-2,-3.148626226E-1,3.209591276E-1
1.578956775E1,-1.468363575E-1,-1.072154781E-1,-3.474801457E-1,3.921715521E-1
1.579956675E1,3.046551017E-2,3.127438109E-3,-6.959636736E-1,6.966371819E-1
1.580956575E1,4.771276809E-2,-8.920947086E-2,-6.895165336E-1,6.968987646E-1
1.581956375E1,6.565699585E-2,1.541991167E-2,-1.031565785E0,1.033768148E0
1.582956275E1,5.427173607E-2,-7.711576609E-2,-1.059255860E0,1.063444987E0
1.583956175E1,-3.660552515E-2,-3.496660542E-2,-1.376754407E0,1.377684770E0
1.584955975E1,2.441104727E-2,-1.222388572E-1,-1.344846736E0,1.350611336E0
1.585955875E1,5.490886331E-2,6.293815020E-3,-1.652313800E0,1.653237881E0
1.586955775E1,1.059090639E-1,-9.861480860E-2,-1.599170796E0,1.605705093E0
1.587955575E1,4.893384945E-2,8.513016086E-3,-1.955893636E0,1.956524190E0
1.588955475E1,1.327368385E-1,-1.230139239E-1,-1.875502022E0,1.884213185E0
1.589955375E1,-5.665990340E-2,-5.243090468E-2,-2.148531325E0,2.149917719E0
1.590955275E1,1.191488961E-1,-4.521237077E-2,-2.203626130E0,2.207308029E0
1.591955075E1,4.608179692E-2,-2.940431362E-2,-2.309301689E0,2.309948578E0
