"Time (s)","Linear Acceleration x (m/s^2)","Linear Acceleration y (m/s^2)","Linear Acceleration z (m/s^2)","Absolute acceleration (m/s^2)"
1.124787499E-2,2.089861569E-2,-3.350352243E-2,-3.329287648E-2,5.164933472E-2
2.124687500E-2,2.827443056E-2,-5.167135136E-2,-2.296493948E-2,6.321993689E-2
3.124487499E-2,1.369074382E-2,-2.723612951E-2,-1.323458791E-2,3.323247710E-2
4.124387499E-2,4.127284577E-3,7.289431393E-3,-1.562960744E-3,8.521334068E-3
5.124287499E-2,1.967789065E-3,-2.882732134E-3,-1.219319880E-2,1.268291904E-2
6.124087499E-2,-6.258128732E-3,-4.423418641E-2,-3.090604305E-2,5.432320793E-2
7.123987499E-2,2.205268247E-3,-5.782569202E-2,-3.928451836E-2,6.994245669E-2
8.123887499E-2,-9.805387789E-3,-9.166058712E-3,-1.593366265E-2,2.083371948E-2
9.123787499E-2,-2.513320581E-2,5.916815791E-3,-4.260281324E-3,2.616938556E-2
1.012358750E-1,2.396243792E-3,-6.441438943E-3,-2.162592709E-2,2.269173511E-2
1.112348750E-1,2.724801580E-2,-3.543701392E-2,-4.931892514E-2,6.656269749E-2
1.212338750E-1,2.379804893E-2,-4.403974822E-2,-4.393013120E-2,6.660107344E-2
1.312328750E-1,9.188899398E-3,-1.954212561E-2,-1.219729185E-2,2.480129985E-2
1.412308750E-1,-5.509082135E-3,1.111665331E-2,3.217138052E-3,1.281717379E-2
1.512298750E-1,-3.548839632E-3,-1.768475756E-2,-3.221815825E-3,1.832280027E-2
1.612288750E-1,1.186216417E-2,-4.466965780E-2,1.417949796E-3,4.623959178E-2
1.712268750E-1,4.137179162E-4,-4.558394305E-2,-3.166208804E-2,5.550274629E-2
1.812258750E-1,3.707646355E-3,-3.375988629E-2,-5.172213078E-2,6.187612929E-2
1.912248750E-1,1.926017105E-2,-6.466033794E-3,-5.052988350E-2,5.446129735E-2
2.012238750E-1,1.326803581E-2,-1.399193024E-2,-2.568623364E-2,3.211849132E-2
2.112218750E-1,4.760254808E-3,-4.067626532E-2,-2.036585212E-3,4.100446641E-2
2.212208750E-1,-1.510237131E-2,-4.436180189E-2,1.727501392E-2,4.994474139E-2
2.312198750E-1,-6.681403192E-3,-5.177820923E-2,-8.020625710E-3,5.282002022E-2
2.412188750E-1,3.579254290E-3,-2.402503967E-2,-4.469436228E-2,5.086845400E-2
2.512168750E-1,9.533812031E-3,-1.488324691E-2,-5.188292921E-2,5.481097475E-2
2.612158750E-1,-3.040278051E-3,-4.427018333E-2,-1.596055984E-2,4.715752213E-2
2.712148750E-1,1.482196078E-3,-4.800860066E-2,7.091503143E-3,4.855215813E-2
2.812138750E-1,1.628966672E-2,-3.665623147E-2,-1.236803055E-2,4.197619239E-2
2.912118750E-1,2.344666782E-2,-2.180212928E-2,-3.377702594E-2,4.653994579E-2
3.012108750E-1,-2.679037068E-2,1.707386971E-3,-2.839174032E-2,3.907339312E-2
3.112098750E-1,7.460407633E-4,-3.175858537E-2,-2.255388021E-2,3.895948965E-2
3.212078750E-1,8.384898109E-3,-2.876881264E-2,-5.952582479E-2,6.664289094E-2
3.312068750E-1,6.730702529E-3,-2.679850196E-2,-7.885555029E-3,2.873402238E-2
3.412058750E-1,1.123076538E-2,-8.196955808E-3,4.031362832E-2,4.264397734E-2
3.512048750E-1,-2.037708974E-2,3.352629002E-2,-3.812384605E-2,5.470526069E-2
3.612028750E-1,1.660738067E-2,-5.176905468E-2,-7.450346768E-2,9.223126808E-2
3.712018750E-1,1.497280067E-2,3.289095350E-3,-3.663163662E-2,3.970994472E-2
3.812008750E-1,-7.826772239E-4,-4.155380448E-2,-2.315731287E-2,4.757722554E-2
3.911998750E-1,-1.258665246E-2,-4.520478766E-2,-3.034354091E-2,5.588047175E-2
4.011978750E-1,-2.600170920E-2,7.759328261E-3,1.111438751E-2,2.932278408E-2
4.111968750E-1,1.038890337E-2,-6.312502356E-2,1.096528351E-2,6.490712870E-2
4.211958750E-1,7.737044888E-3,-6.110274576E-2,-5.893759489E-2,8.524697938E-2
4.311938750E-1,1.759168633E-2,-3.381746309E-2,-6.148113370E-2,7.233960215E-2
4.411928750E-1,1.899782293E-2,-2.388315333E-2,-6.547127366E-3,3.121197151E-2
4.511918750E-1,-5.831208900E-3,-3.090734040E-2,2.698080719E-2,4.143948171E-2
4.611908750E-1,1.487013635E-2,-3.462291704E-2,-8.495419621E-3,3.862692706E-2
4.711888750E-1,1.554260270E-2,-3.058654753E-2,-5.714366913E-2,6.665214408E-2
4.811878750E-1,-4.501561197E-3,-3.196744060E-2,-4.935927093E-2,5.897897031E-2
4.911868750E-1,-1.735322043E-2,-2.470232997E-2,-2.466180146E-2,3.898132651E-2
5.011858750E-1,-5.278765792E-3,-4.484138321E-3,-8.643938899E-3,1.107657639E-2
5.111838750E-1,1.163788690E-2,-3.281709585E-2,-2.957521677E-3,3.494494422E-2
5.211828750E-1,-4.853289491E-3,-2.846996510E-2,-1.239258885E-2,3.142721099E-2
5.311818750E-1,-5.270543145E-3,-1.837918751E-2,-3.888983130E-2,4.333580664E-2
5.411798750E-1,1.790529809E-2,-5.756463211E-2,-4.218532205E-2,7.357912724E-2
5.511788750E-1,1.024890823E-2,-3.083971370E-2,-1.793457985E-2,3.711842151E-2
5.611778750E-1,-1.255890559E-2,-3.764437437E-3,1.559510887E-2,2.037411396E-2
5.711768750E-1,-1.120871955E-2,-2.904737765E-2,4.064984322E-3,3.139919807E-2
5.811748750E-1,1.104118768E-3,-3.284910936E-2,-3.784785748E-2,5.012727181E-2
5.911738750E-1,6.392870508E-3,-3.124346394E-2,-5.356809676E-2,6.234231166E-2
6.011728750E-1,-8.503368180E-3,-2.007524550E-2,-4.024638534E-2,4.577219991E-2
6.111718750E-1,4.736454813E-3,4.877710752E-3,-4.474874139E-3,8.139445002E-3
6.211698750E-1,2.303090338E-3,-3.383454792E-3,6.596828699E-3,7.763384592E-3
6.311688750E-1,4.090547618E-3,-2.517127667E-2,-3.583173752E-3,2.575198794E-2
6.411678750E-1,6.782934610E-3,-3.965813717E-2,-3.471608877E-2,5.314115980E-2
6.511668750E-1,5.028203465E-3,-1.020419531E-2,-5.941648185E-2,6.049567545E-2
6.611648750E-1,-1.573071859E-2,-1.107517462E-3,-3.083002925E-2,3.462907457E-2
6.711638750E-1,-9.173769727E-3,-3.278029494E-2,-1.137458861E-2,3.588992969E-2
6.811628750E-1,1.004734375E-3,-5.473788707E-2,-9.129842520E-3,5.550315123E-2
6.911608750E-1,-1.139727398E-2,-5.338202739E-2,-1.496536374E-2,5.659947716E-2
7.011598750E-1,-9.547498170E-3,-2.792071056E-2,-2.499567747E-2,3.867175573E-2
7.111588750E-1,1.345031362E-2,-2.271049423E-2,-4.236483157E-2,4.991449127E-2
7.211578750E-1,1.451341965E-2,-2.779110337E-2,-2.006355107E-2,3.722271965E-2
7.311558750E-1,1.290085807E-2,-4.723090271E-2,-1.537817717E-4,4.896135168E-2
7.411548750E-1,-6.689488795E-4,-4.264820226E-2,4.785946012E-3,4.292111284E-2
7.511538750E-1,-1.066075321E-2,-1.028673241E-2,-7.338840365E-3,1.653260719E-2
7.611528750E-1,1.482375149E-2,-1.090396084E-3,-2.605343878E-2,2.999523702E-2
7.711508750E-1,7.464601183E-3,-2.541748099E-3,-3.877814949E-2,3.957177822E-2
7.811498750E-1,-5.999681801E-3,-1.909263918E-2,-3.189363778E-2,3.765274470E-2
7.911488750E-1,-7.025703695E-3,-1.211893916E-2,-1.198737681E-2,1.843709309E-2
8.011468750E-1,-1.008642873E-2,-4.189913739E-3,-1.767905653E-2,2.078077143E-2
8.111458750E-1,7.194770453E-3,-2.504344191E-3,-1.304279923E-2,1.510467059E-2
8.211448750E-1,4.193020072E-3,-1.500580089E-2,-6.159456968E-3,1.675393649E-2
8.311438750E-1,2.618421542E-2,-5.001582189E-2,-1.813396990E-2,5.929617560E-2
8.411418750E-1,3.594599577E-2,-4.436757602E-2,-5.061525285E-2,7.630530935E-2
8.511408750E-1,-1.504305862E-3,-1.839998167E-2,-3.983766496E-2,4.390742319E-2
8.611398750E-1,-9.267690629E-3,-2.893107288E-2,-4.511126876E-3,3.071233194E-2
8.711388750E-1,-2.013355320E-2,4.387714081E-3,1.509751081E-2,2.554499623E-2
8.811368750E-1,-4.368460296E-2,-3.370583609E-2,-4.813427925E-3,5.538589180E-2
8.911358750E-1,-2.210543532E-2,-6.544834161E-2,-5.466035664E-2,8.809023941E-2
9.011348750E-1,1.444259525E-2,-4.082661185E-2,-6.229331195E-2,7.586736787E-2
9.111328750E-1,2.209507478E-3,-1.436805239E-2,-2.906358540E-2,3.249638209E-2
9.211318750E-1,1.404608094E-2,-1.436253408E-2,1.284633279E-2,2.384539874E-2
9.311308750E-1,4.077162062E-2,-2.127862075E-2,-8.111257553E-3,4.670007760E-2
9.411298750E-1,3.317803351E-2,-2.238500532E-2,-3.175915182E-2,5.109319030E-2
9.511278750E-1,2.570386665E-2,-5.206781086E-2,-2.397124529E-2,6.282011054E-2
9.611268750E-1,-1.623153261E-2,-9.035775438E-3,-1.169443130E-2,2.195148314E-2
9.711258750E-1,-3.958882939E-2,-1.754338285E-2,1.475252509E-3,4.332692078E-2
9.811248750E-1,-2.355987540E-2,-3.837679295E-2,-2.270473838E-3,4.508881255E-2
9.911228750E-1,-2.696502884E-2,-2.668026030E-2,-1.290012717E-2,4.006697332E-2
1.001121875E0,-2.391295586E-2,-2.747359956E-2,-2.622242332E-2,4.488032548E-2
1.011120875E0,1.902899589E-2,-1.372553475E-2,-5.975386620E-2,6.419515180E-2
1.021119875E0,3.258554611E-2,-9.100113083E-3,-5.646363795E-2,6.582379725E-2
1.031117875E0,6.308542695E-3,-8.206329625E-3,-2.443609893E-2,2.653798199E-2
1.041116875E0,3.899051305E-3,-3.983673306E-2,2.780467987E-2,4.873672255E-2
1.051115875E0,1.020421358E-3,-3.420370823E-2,3.364487886E-2,4.798867356E-2
1.061113875E0,-6.539653894E-4,-2.575956138E-2,-3.985403717E-2,4.745868679E-2
1.071112875E0,1.024932850E-2,-1.295472555E-2,-6.021287262E-2,6.243767836E-2
1.081111875E0,-4.844281124E-3,1.933838669E-3,-2.294564366E-2,2.353102961E-2
1.091110875E0,-2.253879623E-2,-1.081336554E-2,3.546921015E-3,2.524889816E-2
1.101108875E0,-5.974767180E-3,-4.287757756E-2,-7.827667594E-3,4.399382775E-2
1.111107875E0,4.970781980E-3,-2.379074905E-2,-2.623821080E-2,3.576523619E-2
1.121106875E0,2.534393398E-3,-7.912598401E-3,-3.641762853E-2,3.735339383E-2
1.131104875E0,-2.253946317E-3,-1.639181027E-2,-4.225665808E-2,4.538057811E-2
1.141103875E0,-1.810608599E-2,-2.977548391E-2,-1.501331091E-2,3.794481910E-2
1.151102875E0,-6.471689148E-3,-4.227567980E-2,1.103311121E-2,4.416837563E-2
1.161101875E0,1.024561917E-2,-2.564270843E-2,-1.089336276E-3,2.763526481E-2
1.171099875E0,5.155937718E-3,-5.486606900E-3,-2.010155797E-2,2.146530181E-2
1.181098875E0,3.792622844E-3,-1.863765271E-2,-2.788829505E-2,3.375652659E-2
1.191097875E0,1.224988938E-2,-4.175184237E-2,-2.594175696E-2,5.065817689E-2
1.201096875E0,1.224371326E-2,-4.525403218E-2,-2.354615271E-2,5.246196004E-2
1.211094875E0,2.258048505E-2,-2.399017565E-2,-2.758774817E-2,4.297081197E-2
1.221093875E0,1.254099850E-2,8.815956675E-4,-1.232242227E-2,1.760386164E-2
1.231092875E0,5.541844815E-3,-1.340108737E-2,6.389252543E-3,1.584688407E-2
1.241091875E0,4.912629593E-3,-2.481094200E-2,-4.984166622E-3,2.577903585E-2
1.251089875E0,-9.460313444E-2,-1.391620880E-2,-9.674159825E-2,1.360233463E-1
1.261088875E0,-1.178840794E-1,-1.361555228E-2,-6.141856849E-2,1.336199087E-1
1.271087875E0,2.066033252E-2,-1.743985059E-2,3.048562825E-2,4.074765340E-2
1.281085875E0,5.342418216E-2,6.190812662E-3,3.976106644E-4,5.378315252E-2
1.291084875E0,4.012030475E-3,-3.973844502E-2,-4.480896771E-2,6.002569440E-2
1.301083750E0,7.127098069E-2,-4.965274634E-2,-1.711538494E-2,8.853182653E-2
1.311082750E0,1.039353911E-1,1.490840821E-2,1.893328428E-3,1.050162409E-1
1.321080750E0,9.872722132E-3,1.594597835E-2,-2.056290329E-2,2.783123891E-2
1.331079750E0,-5.335667423E-2,-6.775424592E-2,-6.040173769E-3,8.645262416E-2
1.341078750E0,-7.086193141E-2,-4.463674894E-2,-3.971896648E-2,9.269006946E-2
1.351077750E0,-7.749177860E-2,-8.440664101E-2,-2.564588785E-2,1.174187735E-1
1.361075750E0,-3.819998777E-2,-7.179293605E-2,-3.013654947E-2,8.672759852E-2
1.371074750E0,2.590163045E-2,8.168841664E-2,-3.568204880E-2,9.282833877E-2
1.381073750E0,7.422557876E-2,4.705510251E-2,-2.970327079E-2,9.276800909E-2
1.391071750E0,1.043119884E-1,-2.106664091E-2,-1.234171808E-2,1.071312852E-1
1.401070750E0,4.995872931E-2,-3.165154478E-2,1.385439277E-2,6.074239969E-2
1.411069750E0,1.494483453E-2,-3.204296105E-2,-2.326782525E-2,4.232601001E-2
1.421068750E0,-4.599803556E-3,-2.657250708E-2,-4.647133112E-2,5.372933036E-2
1.431066750E0,-6.008508355E-2,-2.997896701E-2,-4.797055721E-2,8.252351233E-2
1.441065750E0,-9.905709565E-2,-8.224251341E-2,-1.773635924E-2,1.299642937E-1
1.451064750E0,-7.449885386E-2,-5.946868652E-2,6.814929843E-3,9.556697742E-2
1.461063750E0,-1.619071173E-2,-6.873255819E-3,-1.459114194E-2,2.285349459E-2
1.471061750E0,1.417505773E-2,3.647200763E-3,-3.151122987E-2,3.474466784E-2
1.481060750E0,4.529364707E-2,-3.475840800E-2,-2.043835759E-2,6.064146974E-2
1.491059750E0,6.850872860E-2,-5.448949004E-2,-1.519691348E-2,8.884535215E-2
1.501058750E0,6.550479465E-2,-2.722980721E-2,-6.511459351E-3,7.123720675E-2
1.511056750E0,2.577516614E-2,-3.787588757E-3,-5.460129976E-3,2.661800213E-2
1.521055750E0,-5.278939381E-3,-7.378089800E-3,6.806159019E-4,9.097617716E-3
1.531054750E0,-1.575287405E-2,-3.888727315E-3,-4.705839157E-3,1.689438259E-2
1.541052750E0,-3.563143384E-2,-9.497979563E-3,-6.652728081E-2,7.606372187E-2
1.551051750E0,-6.091336906E-2,6.493771523E-3,-7.087059259E-2,9.367629633E-2
1.561050750E0,-5.119284812E-2,1.609966876E-2,-1.653768003E-2,5.615515910E-2
1.571049750E0,-1.419409772E-2,-2.248541297E-2,6.063562632E-3,2.727330194E-2
1.581047750E0,1.643104143E-3,-1.335809207E-2,5.912119746E-3,1.470005356E-2
1.591046750E0,3.296411678E-2,-2.565319687E-3,-2.163235903E-2,3.951167951E-2
1.601045750E0,6.446806504E-2,-9.733311720E-3,-5.052403629E-2,8.248361662E-2
1.611044750E0,5.321829622E-2,6.316162348E-3,-4.214380682E-2,6.817757265E-2
1.621042750E0,1.226661790E-2,-1.923154710E-2,-2.043718815E-2,3.062680163E-2
1.631041750E0,1.085197544E-3,-3.973161109E-2,1.009989560E-2,4.100958991E-2
1.641040750E0,-1.191182896E-2,-5.023980679E-2,-6.513213515E-3,5.204182746E-2
1.651038750E0,-4.013775503E-2,-4.258386461E-2,-5.381075621E-2,7.949856846E-2
1.661037750E0,-4.325532597E-2,-5.043669350E-2,-4.377985775E-2,7.957109539E-2
1.671036750E0,-2.731672059E-2,-6.134279223E-2,-1.878067195E-2,6.972700353E-2
1.681035750E0,-7.555781202E-3,-4.670633437E-2,-7.701952457E-3,4.793632831E-2
1.691033750E0,7.191819437E-3,-1.736568231E-2,1.011392891E-2,2.134433759E-2
1.701032750E0,1.565563668E-2,-3.346527798E-2,3.983123302E-3,3.716031568E-2
1.711031750E0,4.354920337E-2,-2.698976073E-2,2.300294638E-2,5.616151565E-2
1.721030750E0,1.119593059E-1,-5.963690361E-2,2.406772435E-2,1.291150719E-1
1.731028750E0,2.431846026E-2,-4.089970205E-2,1.932504773E-3,4.762255466E-2
1.741027750E0,-7.821940063E-2,-3.512910319E-2,4.446924448E-2,9.659110845E-2
1.751026750E0,2.148111714E-3,-6.054682173E-3,1.202433121E-1,1.204148150E-1
1.761024750E0,-3.854926754E-2,2.641310833E-1,1.258332503E-1,2.951021553E-1
1.771023750E0,1.959251217E-2,-5.535643112E-2,3.230393690E-1,3.283331158E-1
1.781022750E0,-4.567491294E-2,2.043108512E-3,1.410903901E-1,1.483134186E-1
1.791021750E0,-3.390839643E-2,-2.816881523E-2,1.324961525E-1,1.396370006E-1
1.801019750E0,-5.380032258E-2,-7.124824964E-2,1.950163364E-1,2.144811396E-1
1.811018750E0,-1.944533592E-2,1.077192340E-1,1.026075250E-1,1.500328586E-1
1.821017750E0,-1.421567760E-2,-3.306393972E-2,1.185704237E-1,1.239122874E-1
1.831016750E0,3.472246589E-2,-5.103720255E-2,2.552192688E-2,6.679681455E-2
1.841014750E0,5.822921385E-2,-3.332410427E-2,-4.167462623E-1,4.221120520E-1
1.851013750E0,2.131522981E-2,3.835594397E-2,-7.969234532E-1,7.981306333E-1
1.861012750E0,2.032389286E-1,-3.231560575E-2,-4.963531798E-1,5.373237754E-1
1.871011750E0,5.390898943E-2,-1.831326198E-1,-8.903613746E-2,2.106446518E-1
1.881009750E0,-7.700244888E-2,-8.278694401E-2,9.853669345E-2,1.499751152E-1
1.891008750E0,-7.055275988E-2,-8.767455848E-2,1.726799726E-2,1.138538706E-1
1.901007750E0,-2.591484150E-2,-1.327641560E-1,-1.135482502E-1,1.766100372E-1
1.911005750E0,-1.376428169E-2,1.205009368E-1,-5.741381049E-2,1.341874691E-1
1.921004750E0,-2.164141308E-2,5.060015973E-3,4.706423879E-3,2.271794329E-2
1.931003750E0,1.139440519E-2,-2.629288226E-2,-6.072918177E-3,2.929212287E-2
1.941002750E0,-2.772688449E-2,1.222733192E-2,-8.932791352E-3,3.159244421E-2
1.951000750E0,-9.605677966E-3,3.076901721E-2,-6.583730936E-2,7.330452082E-2
1.960999750E0,-6.677200506E-3,3.798159426E-2,-8.411395133E-2,9.253293099E-2
1.970998750E0,1.572261471E-3,-7.064547479E-2,2.140899539E-2,7.383495242E-2
1.980996750E0,5.923411268E-2,-1.411222391E-1,3.607907474E-2,1.572446060E-1
1.990995750E0,-3.745165380E-2,5.374968935E-2,1.662597299E-2,6.758756139E-2
2.000994750E0,-5.130030898E-2,2.081378538E-2,3.300168514E-3,5.546013411E-2
2.010993750E0,-2.299467805E-2,-1.907610252E-2,-7.663887084E-2,8.225672878E-2
2.020991750E0,-3.206151682E-2,3.047861159E-2,-7.948704958E-2,9.096745394E-2
2.030990750E0,2.331703322E-2,2.791002112E-2,-1.153480232E-2,3.815370207E-2
2.040989750E0,9.630157700E-2,2.168438097E-2,2.183642685E-2,1.010991377E-1
2.050988750E0,5.788350636E-3,7.807036059E-2,-1.200959623E-2,7.920048363E-2
2.060986750E0,1.857395461E-2,6.043435419E-2,-2.071317673E-2,6.653073460E-2
2.070985750E0,7.285309106E-2,-2.802654516E-2,-2.835665703E-2,8.304914273E-2
2.080984750E0,3.263554894E-2,4.527837122E-2,-4.123690367E-2,6.939518844E-2
2.090983750E0,4.685248735E-2,-5.056745186E-4,-1.325388372E-2,4.869370300E-2
2.100981750E0,-5.892632073E-3,1.679046247E-3,-6.067655683E-3,8.623152238E-3
2.110980750E0,-1.435151573E-2,-4.243058351E-1,-2.319590449E-3,4.245548117E-1
2.120979750E0,-4.012562206E-2,-2.019234147E-1,9.955469370E-3,2.061122081E-1
2.130977750E0,-2.256606800E-2,1.230599524E-1,-6.698394835E-2,1.419148641E-1
2.140976750E0,-3.734349858E-2,7.069912300E-2,-7.342524111E-2,1.085549120E-1
2.150975750E0,2.589114200E-2,5.282478774E-2,-3.286719918E-2,6.738740399E-2
2.160974750E0,4.294664780E-2,-1.938438601E-1,5.306114316E-2,2.055123878E-1
2.170972750E0,-2.958616203E-2,-2.670610865E-1,-3.656848669E-3,2.687198121E-1
2.180971750E0,-1.084068300E-2,1.021744108E-1,-6.667170703E-2,1.224836607E-1
2.190970750E0,-1.209893986E-2,8.046866918E-2,-3.150655210E-2,8.725969224E-2
2.200969750E0,-4.464577558E-2,1.094631113E-1,-2.388295233E-2,1.206060256E-1
2.210967750E0,1.947241584E-2,7.004421657E-2,-1.834271550E-2,7.497881344E-2
2.220966750E0,2.020839756E-2,-9.687760083E-2,1.773694396E-2,1.005397834E-1
2.230965750E0,-3.669073004E-2,-5.509394595E-2,1.159912169E-2,6.720187628E-2
2.240963750E0,7.484728396E-3,6.872764288E-2,-3.855186224E-2,7.915652934E-2
2.250962750E0,3.249397323E-2,-1.551569271E-1,-4.858451486E-2,1.658010417E-1
2.260961750E0,-7.508701980E-3,5.059175435E-3,-2.388178289E-2,2.554046623E-2
2.270960750E0,4.405240196E-2,9.396561434E-2,-2.597625554E-2,1.069809172E-1
2.280958750E0,2.432753258E-2,5.616890173E-2,3.665619493E-3,6.132056042E-2
2.290957750E0,-2.238110413E-2,-2.111537380E-2,9.802857041E-3,3.229347982E-2
2.300956500E0,-4.870517763E-2,-4.177707676E-2,-1.983726382E-2,6.716424277E-2
2.310955500E0,-5.132695950E-2,-8.940104026E-2,-5.007789373E-2,1.146071473E-1
2.320953500E0,-9.884078521E-3,7.511976421E-2,-3.975463450E-2,8.556345568E-2
2.330952500E0,5.233597878E-2,-2.857291264E-2,-2.042432427E-3,5.966269808E-2
2.340951500E0,1.915036216E-2,-9.267184479E-2,1.502032757E-2,9.581449488E-2
2.350950500E0,2.957646844E-2,3.683555827E-2,-4.290686846E-3,4.743454260E-2
2.360948500E0,1.446242097E-2,-7.255079001E-3,-4.560828209E-2,4.839331758E-2
2.370947500E0,-1.479109844E-2,-3.392923627E-2,-5.189403892E-2,6.374135974E-2
2.380946500E0,1.851972168E-2,-7.022014467E-2,-1.596933067E-2,7.435636039E-2
2.390944500E0,-2.713629744E-2,-6.826465303E-2,2.040152013E-2,7.624082578E-2
2.400943500E0,-3.318961831E-2,5.192802586E-3,3.013245642E-2,4.512738517E-2
2.410942500E0,-1.419185934E-2,-6.293275980E-2,9.919216633E-3,6.527121867E-2
2.420941500E0,-2.943536782E-2,-1.021320915E-1,7.605414927E-2,1.306967430E-1
2.430939500E0,-2.822011541E-2,-1.251348735E-1,3.019882232E-1,3.281036398E-1
2.440938500E0,2.381221016E-2,-3.048065446E-1,8.312933868E-1,8.857328863E-1
2.450937500E0,2.621951981E-1,-1.345166031E-1,-6.975506079E-1,7.572436127E-1
2.460936500E0,9.270246045E-2,4.363604914E-1,-5.496563977E-1,7.079028042E-1
2.470934500E0,1.270233414E-1,6.956770504E-2,-1.095277047E-1,1.815789441E-1
2.480933500E0,-1.207102671E-1,2.734121494E-4,6.051400423E-2,1.350295821E-1
2.490932500E0,8.033442076E-2,1.296317295E-1,-4.243207455E-2,1.582987220E-1
2.500930500E0,-1.069670811E-1,-2.317053854E-1,8.391865432E-2,2.686478785E-1
2.510929500E0,-8.054250855E-2,1.299228112E-1,-1.166741717E-1,1.923015728E-1
2.520928500E0,-1.792514025E-1,-9.364250086E-2,-8.180605531E-2,2.181563979E-1
2.530927500E0,-7.334906286E-2,-5.867207648E-2,1.188914359E-2,9.467760726E-2
2.540925500E0,4.616347522E-2,1.631488101E-1,-8.060796082E-2,1.877398307E-1
2.550924500E0,-6.059835032E-2,-1.490497845E-1,2.432032406E-2,1.627251563E-1
2.560923500E0,3.675186999E-2,1.302960280E-1,-3.675501287E-2,1.402807393E-1
2.570922500E0,-8.808647655E-3,-7.855736056E-2,6.500349641E-3,7.931649083E-2
2.580920500E0,2.260056658E-2,3.248665508E-2,-6.191441238E-2,7.348171765E-2
2.590919500E0,2.490963204E-2,-1.066622036E-1,1.383509696E-2,1.104025604E-1
2.600918500E0,2.733551390E-2,-2.770070907E-2,-5.622682571E-3,3.932142117E-2
2.610916500E0,1.377786733E-3,3.566953210E-2,-3.481607616E-2,4.986354355E-2
2.620915500E0,-6.628312301E-3,3.411777243E-3,-3.256840646E-2,3.341071456E-2
2.630914500E0,-2.021693084E-3,-8.382398425E-2,6.724298000E-5,8.384838758E-2
2.640913500E0,-2.268385286E-2,-6.562797904E-2,1.594009459E-2,7.124377467E-2
2.650911500E0,-3.659057820E-2,-3.001887426E-3,-1.220664740E-2,3.868958493E-2
2.660910500E0,-2.210813966E-2,-1.885193489E-2,-6.145774484E-2,6.797955346E-2
2.670909500E0,1.648423282E-2,-5.958376704E-2,-3.645972848E-2,7.177232772E-2
2.680908500E0,5.725049045E-2,-1.525012314E-2,-1.025952458E-2,6.012855193E-2
2.690906500E0,3.693333467E-2,-1.301104154E-2,1.789014101E-2,4.305131308E-2
2.700905500E0,3.145882420E-2,3.419798892E-3,-8.191949129E-4,3.165475833E-2
2.710904500E0,1.943846544E-2,-2.244327648E-2,-2.282460630E-2,3.745019693E-2
2.720902500E0,4.934136383E-4,-1.338952085E-2,-5.006853819E-2,5.183031200E-2
2.730901500E0,-1.669529904E-2,-1.962252483E-2,-5.170809746E-2,5.777113322E-2
2.740900500E0,-4.416243011E-2,-1.217985984E-2,-3.089961112E-2,5.525807802E-2
2.750899500E0,-6.094693573E-2,2.142944237E-2,-2.746086359E-2,7.019863962E-2
2.760897500E0,-2.471426195E-2,3.638174124E-3,5.318627357E-3,2.554053350E-2
2.770896500E0,-3.739166502E-3,-4.192873891E-3,-2.028457582E-2,2.104817269E-2
2.780895500E0,2.510947891E-2,-1.437945446E-2,-2.762224674E-2,4.000303934E-2
2.790894500E0,5.327752668E-2,3.057441456E-2,-5.951062202E-2,8.552662632E-2
2.800892500E0,5.260803876E-2,-1.689446982E-2,-2.747840524E-2,6.170973673E-2
2.810891500E0,2.609727463E-2,-2.211853674E-2,2.027405083E-2,3.976599738E-2
2.820890500E0,-8.151749521E-3,-1.782783162E-2,4.857866764E-3,2.019607561E-2
2.830888500E0,-1.542683696E-2,1.094361227E-2,-3.810513496E-2,4.254117134E-2
2.840887500E0,-1.612479351E-2,-2.164768970E-2,-4.244786203E-2,5.030360251E-2
2.850886500E0,-2.076967545E-2,-4.945383137E-2,-4.618832588E-2,7.078433657E-2
2.860885500E0,-2.317637114E-2,-3.975916609E-2,-8.469107151E-3,4.679381629E-2
2.870883500E0,-3.904408816E-2,-7.614938579E-3,1.038991749E-2,4.111421282E-2
2.880882500E0,-1.690888686E-2,-2.320142280E-2,-1.116993606E-2,3.080558304E-2
2.890881500E0,1.773241237E-2,-5.580317667E-2,-3.841503739E-2,7.002962282E-2
2.900880500E0,3.465016142E-2,-3.549623525E-2,-4.918970168E-2,6.985873713E-2
2.910878500E0,1.360161033E-2,-6.520040140E-2,-2.343622506E-2,7.060703074E-2
2.920877500E0,5.700797718E-3,-6.358556489E-2,3.724676371E-4,6.384169397E-2
2.930876500E0,-6.123386957E-3,-1.205533242E-2,-4.563167095E-3,1.427057818E-2
2.940875500E0,-1.886328215E-2,-5.367963240E-2,-2.716148615E-2,6.304817743E-2
2.950873500E0,-1.017790111E-2,-9.432624137E-2,-2.685392261E-2,9.860102759E-2
2.960872500E0,1.928667538E-4,-6.379854972E-2,-2.235741377E-2,6.760285566E-2
2.970871500E0,-2.466611378E-2,9.019768685E-3,-2.609612346E-2,3.702406050E-2
2.980869500E0,-7.201302890E-3,-3.774903953E-2,-1.092844605E-3,3.844532557E-2
2.990868500E0,4.268792678E-2,-3.877593851E-2,-1.919757843E-2,6.078140766E-2
3.000867500E0,4.752664391E-2,-2.271588463E-3,-2.502959132E-2,5.376264909E-2
3.010866500E0,3.534747843E-2,2.978471154E-2,-2.337482929E-2,5.179725782E-2
3.020864500E0,7.792383302E-3,-2.058037184E-3,-1.857601941E-2,2.024908026E-2
3.030863500E0,1.253153332E-2,-7.818220686E-3,-2.252347469E-3,1.494111679E-2
3.040862500E0,-2.361259170E-2,2.356376745E-2,-1.901748419E-2,3.839883238E-2
3.050860500E0,-1.747902693E-2,1.673374448E-2,-1.751650393E-2,2.987243707E-2
3.060859500E0,-9.683062211E-3,-1.816581896E-2,-1.043143272E-3,2.061181263E-2
3.070858500E0,-6.573372228E-2,9.288704060E-3,-4.385353267E-2,7.956339985E-2
3.080857500E0,-3.324768847E-2,1.292992970E-1,-1.197550696E-1,1.793460167E-1
3.090855500E0,-1.371760447E-2,-1.443677910E-1,1.735921383E-2,1.460533261E-1
3.100854500E0,2.484650038E-2,1.697832255E-2,3.907109499E-2,4.931695937E-2
3.110853500E0,5.728427639E-2,-4.874485647E-2,2.260708988E-2,7.854062558E-2
3.120852500E0,-2.513135115E-2,1.873175634E-2,-6.944971919E-2,7.619532139E-2
3.130850500E0,2.247870695E-3,-5.508358542E-2,-1.600324452E-2,5.740521005E-2
3.140849500E0,2.799148014E-2,-4.313015901E-2,-3.322212517E-2,6.121636364E-2
3.150848500E0,3.706303323E-2,-4.935729750E-2,-7.909528613E-3,6.222838493E-2
3.160847500E0,4.891725797E-3,-7.077533780E-2,2.922321439E-2,7.672726817E-2
3.170845500E0,-2.196314698E-2,-3.621182481E-2,-3.424831152E-2,5.446671390E-2
3.180844500E0,-1.785233511E-2,1.797035750E-2,-3.395244241E-2,4.236045282E-2
3.190843500E0,1.823848888E-2,3.773875209E-2,-2.092426121E-2,4.684741821E-2
3.200841500E0,-8.359526675E-3,-9.084484572E-2,-1.613071382E-2,9.264376724E-2
3.210840500E0,-6.527612284E-3,6.572423883E-2,-5.010712981E-2,8.290361723E-2
3.220839500E0,4.467766117E-3,2.016558498E-2,1.021450102E-2,2.304230420E-2
3.230838500E0,-9.074677695E-3,5.907672208E-2,-4.113457739E-2,7.255661461E-2
3.240836500E0,1.769002005E-2,-3.170353018E-2,-7.905435562E-3,3.715570678E-2
3.250835500E0,1.179036219E-2,2.093908025E-2,-4.936745703E-2,5.490540534E-2
3.260834500E0,9.717341512E-4,3.122457013E-2,-6.433866799E-2,7.152190046E-2
3.270833500E0,3.295253199E-3,3.911056370E-2,-3.006287456E-2,4.943957234E-2
3.280831500E0,-2.076178171E-2,-1.344254779E-2,2.412034929E-2,3.454771947E-2
3.290830500E0,1.818118617E-3,9.038625956E-3,-1.180318952E-2,1.497723597E-2
3.300829500E0,2.109753979E-2,5.713460594E-4,-3.949969590E-2,4.478457991E-2
3.310827375E0,1.000719896E-2,-5.687849790E-2,-3.232048452E-2,6.618097365E-2
3.320826375E0,2.158470422E-2,-7.025064155E-3,-2.453842521E-2,3.342731360E-2
3.330825375E0,1.936411444E-2,-8.094081357E-3,-1.211601555E-2,2.423387947E-2
3.340824375E0,5.742915943E-3,-3.300906725E-2,-1.510862052E-2,3.675391161E-2
3.350822375E0,9.319182672E-3,-5.401867954E-2,-1.339012384E-3,5.483299973E-2
3.360821375E0,-1.765901154E-2,2.087706322E-2,-3.577618897E-2,4.502919225E-2
3.370820375E0,-1.669327078E-2,1.487933658E-3,-3.353319705E-2,3.748805863E-2
3.380819375E0,-1.726638928E-2,-4.178162662E-2,-3.143989384E-2,5.506631862E-2
3.390817375E0,-1.867195029E-2,8.659872562E-3,-3.743504405E-2,4.272022523E-2
3.400816375E0,-4.439059943E-3,4.105527453E-2,-3.175505877E-2,5.209246181E-2
3.410815375E0,-9.138796069E-3,5.291492622E-3,-2.083362937E-2,2.335717450E-2
3.420813375E0,3.429086829E-2,-5.177170420E-2,3.708888888E-3,6.220875228E-2
3.430812375E0,1.555394081E-2,1.488065220E-2,-2.698840857E-2,3.452148725E-2
3.440811375E0,1.128658801E-2,2.841271721E-3,-3.103702068E-2,3.314749684E-2
3.450810375E0,-1.695904501E-2,-4.912397532E-2,-1.083547533E-2,5.308654899E-2
3.460808375E0,-2.120701063E-2,-1.087073586E-1,9.666616917E-3,1.111776533E-1
3.470807375E0,-3.394111343E-2,-6.503125241E-2,-2.027580500E-2,7.610631537E-2
3.480806375E0,-1.421046993E-2,-8.597164828E-2,-3.749527037E-2,9.486283289E-2
3.490805375E0,5.280273277E-3,-1.234548953E-1,-5.530939758E-2,1.353813943E-1
3.500803375E0,2.934872853E-2,-8.548748055E-2,-5.171394467E-2,1.041335166E-1
3.510802375E0,2.964348301E-2,-9.332165318E-2,2.179841995E-3,9.794089415E-2
3.520801375E0,-1.072110744E-2,-9.595582383E-2,3.855887890E-2,1.039675402E-1
3.530799375E0,-1.281678608E-2,-8.753850108E-2,2.060032547E-2,9.083849727E-2
3.540798375E0,-7.452111896E-3,-2.881816680E-2,-4.136729658E-2,5.096345686E-2
3.550797375E0,3.263716606E-2,-4.318271086E-2,-3.836182773E-2,6.634426089E-2
3.560796375E0,2.638196094E-2,-2.348771710E-2,-2.353621244E-2,4.244565954E-2
3.570794375E0,1.203956321E-2,5.972479457E-2,-3.401617706E-2,6.977895435E-2
3.580793375E0,2.760726325E-3,8.568418454E-2,-9.919801354E-3,8.630065788E-2
3.590792375E0,1.927114371E-2,6.630632915E-2,-8.271471262E-3,6.954368053E-2
3.600791375E0,2.493894121E-2,5.820329424E-2,-2.518395782E-2,6.814547659E-2
3.610789375E0,3.241824266E-3,1.179049009E-1,-6.230851471E-2,1.333957499E-1
3.620788375E0,-4.527078811E-3,1.226889832E-1,-4.660055459E-2,1.313190493E-1
3.630787375E0,-3.403940147E-2,9.046371689E-2,-2.191594899E-2,9.910940291E-2
3.640785375E0,-4.829191653E-2,5.381271137E-2,7.265165448E-3,7.266842324E-2
3.650784375E0,-2.217384774E-2,5.694444353E-2,-2.028808415E-2,6.438909481E-2
3.660783375E0,-3.984932285E-3,5.258198211E-2,-5.712671220E-2,7.774449032E-2
3.670782375E0,2.514364857E-2,3.677145816E-2,-6.508067966E-2,7.886594996E-2
3.680780375E0,3.771892637E-2,-1.654414851E-3,-1.644470930E-2,4.118109954E-2
3.690779375E0,1.771185575E-2,-4.760664113E-2,2.261586070E-2,5.560197181E-2
3.700778375E0,6.251459252E-3,-5.165605724E-2,1.497121096E-2,5.414393918E-2
3.710777375E0,-6.441475488E-3,-7.160267313E-2,-2.400866747E-3,7.193190924E-2
3.720775375E0,-6.291220319E-3,-8.306171746E-2,-4.312204599E-2,9.379946274E-2
3.730774375E0,-2.143545404E-2,-1.295108657E-1,-2.875368297E-2,1.343849594E-1
3.740773375E0,-2.689061388E-2,-1.080951826E-1,-3.008392453E-3,1.114303551E-1
3.750772375E0,-3.081447931E-2,-1.107159229E-1,1.165934801E-2,1.155140170E-1
3.760770375E0,-8.789589386E-3,-8.033507857E-2,-2.246968031E-2,8.388008264E-2
3.770769375E0,6.936698109E-3,-1.167084784E-1,-7.497884631E-3,1.171546200E-1
3.780768375E0,9.905201588E-3,-1.127496028E-1,-3.308705449E-2,1.179209020E-1
3.790766375E0,1.574534576E-2,-7.621055315E-2,-3.442723632E-2,8.509523445E-2
3.800765375E0,3.792759888E-3,-2.482180503E-2,-2.154991329E-2,3.308936076E-2
3.810764375E0,7.151290923E-3,-2.468284230E-2,-1.181663811E-2,2.828456473E-2
3.820763375E0,1.777772829E-2,-1.535762968E-2,9.148553610E-3,2.521111750E-2
3.830761375E0,1.446032876E-2,2.409230093E-2,-2.212878764E-2,3.576623148E-2
3.840760375E0,1.519526895E-3,4.960584071E-2,-5.341139138E-2,7.290970527E-2
3.850759375E0,-6.658261009E-3,5.944960998E-2,-3.993999124E-2,7.192907247E-2
3.860758375E0,-1.033531912E-2,9.026394311E-2,3.169190884E-3,9.090897656E-2
3.870756375E0,-1.917126596E-2,5.905921698E-2,-4.915169477E-3,6.228713703E-2
3.880755375E0,-1.431434937E-2,8.097243422E-2,-2.841863751E-2,8.700031413E-2
3.890754375E0,3.850208782E-4,6.133539185E-2,-3.890269518E-2,7.263331348E-2
3.900752375E0,-2.781081945E-5,6.083144409E-2,-7.093958974E-2,9.344993716E-2
3.910751375E0,1.221070390E-2,2.269014775E-2,-2.768481195E-2,3.782053552E-2
3.920750375E0,1.345597811E-2,1.782516383E-2,-2.395019531E-3,2.246187728E-2
3.930749375E0,-4.926644638E-4,-4.346125759E-4,1.855613887E-2,1.856776498E-2
3.940747375E0,-2.138085566E-2,-2.288087661E-2,8.668497205E-3,3.249335851E-2
3.950746375E0,-1.219544632E-2,-5.686384331E-2,-2.067400038E-2,6.172228025E-2
3.960745375E0,1.539358092E-2,-8.557613896E-2,-4.761797011E-2,9.913480202E-2
3.970744375E0,4.162738804E-2,-7.426462719E-2,-2.082427382E-2,8.764544864E-2
3.980742375E0,-1.565169895E-2,-7.454595136E-2,8.812338710E-3,7.667940960E-2
3.990741375E0,-2.150203921E-2,-9.595353062E-2,1.913852155E-2,1.001783446E-1
4.000740375E0,-2.339759689E-2,-9.399148827E-2,-1.528754532E-2,9.805894375E-2
4.010738375E0,3.699933512E-2,-1.138472348E-1,-3.473947763E-2,1.246474026E-1
4.020737375E0,2.602679741E-2,-5.394589084E-2,-4.610997319E-2,7.558890758E-2
4.030736375E0,-1.350757979E-2,-4.772823581E-2,-3.173459351E-2,5.888568273E-2
4.040735375E0,-2.202624209E-2,-4.168067993E-2,2.997282743E-3,4.723788865E-2
4.050733375E0,-1.801618505E-3,-5.049344804E-2,2.695449471E-2,5.726586164E-2
4.060732375E0,-6.348669212E-3,-1.551421629E-2,-8.370289207E-3,1.873654849E-2
4.070731375E0,-3.707098179E-3,3.674830684E-2,-5.866219103E-2,6.932123260E-2
4.080730375E0,-1.420911776E-2,1.029400488E-2,-8.321172595E-2,8.504150104E-2
4.090728375E0,6.987258252E-3,5.160421802E-2,-4.099833727E-2,6.627730195E-2
4.100727375E0,2.106545320E-2,3.238712450E-2,1.184295058E-2,4.040958588E-2
4.110726375E0,5.719399173E-3,5.694062456E-2,7.353458405E-3,5.769765683E-2
4.120724375E0,2.099276500E-2,6.918208117E-2,-2.423261583E-2,7.625008988E-2
4.130723375E0,1.225114105E-2,8.113672270E-2,-4.608775377E-2,9.411343834E-2
4.140722375E0,2.268462030E-2,4.740720539E-2,-2.842682362E-2,5.975047634E-2
4.150721375E0,-1.519545168E-4,4.618888319E-2,-1.885025382E-2,4.988755446E-2
4.160719375E0,-3.077279963E-3,6.571573296E-2,-2.349528193E-2,6.985739390E-2
4.170718375E0,3.703059945E-3,4.461922556E-2,-2.664517701E-2,5.210137619E-2
4.180717375E0,-9.805122837E-3,1.567308697E-2,-2.305907965E-2,2.955515595E-2
4.190716375E0,-2.180521734E-2,-2.272499350E-2,-2.845605969E-2,4.244573201E-2
4.200714375E0,-2.249736322E-2,-3.782054001E-2,-3.101012349E-2,5.383449041E-2
4.210713375E0,-6.440525316E-3,-3.945307349E-2,-2.458227932E-2,4.692881664E-2
4.220712375E0,-2.067502365E-3,-5.178046589E-2,-7.824743986E-3,5.240913882E-2
4.230710375E0,2.556165140E-3,-7.568730958E-2,1.298081875E-2,7.683491698E-2
4.240709375E0,5.564813409E-3,-9.357321136E-2,-1.246509433E-2,9.456369075E-2
4.250708375E0,1.734443134E-2,-8.468868694E-2,-4.569482088E-2,9.778046661E-2
4.260707375E0,1.850884952E-2,-9.816596171E-2,-4.225022614E-2,1.084629668E-1
4.270705375E0,1.174976058E-2,-8.076801921E-2,-2.218842924E-2,8.458047170E-2
4.280704375E0,1.798979949E-2,-8.864707835E-2,1.524427593E-2,9.172963171E-2
4.290703375E0,1.109125447E-3,-6.805651956E-2,-4.648536444E-4,6.806714408E-2
4.300702375E0,-5.426636394E-3,-3.354590560E-2,-3.084289312E-2,4.589183175E-2
4.310700125E0,-7.583308797E-3,-2.435942732E-2,-5.538891971E-2,6.098213426E-2
4.320699125E0,2.891448140E-4,-1.158959256E-2,-6.586654544E-2,6.687902562E-2
4.330698125E0,2.147481311E-2,1.977290791E-2,-2.844202638E-2,4.075640256E-2
4.340696125E0,2.931556385E-3,3.868976517E-2,2.095232785E-2,4.409639434E-2
4.350695125E0,-3.076718995E-2,3.458311030E-2,7.179211378E-3,4.684178233E-2
4.360694125E0,-8.315106109E-4,7.296427952E-2,-5.090293586E-2,8.896958118E-2
4.370693125E0,-1.489623869E-2,4.914271382E-2,-3.414423108E-2,6.166630169E-2
4.380691125E0,1.717656143E-2,6.581540971E-2,-1.512674689E-3,6.803668571E-2
4.390690125E0,-1.675446555E-3,7.104259210E-2,-2.115522623E-3,7.109382849E-2
4.400689125E0,1.414783163E-2,7.170139971E-2,-5.136720479E-2,8.932995907E-2
4.410688125E0,4.342823910E-2,4.755248129E-2,-9.508332789E-2,1.148394082E-1
4.420686125E0,3.901801324E-2,-5.722615141E-3,-2.458344877E-2,4.647041676E-2
4.430685125E0,3.462207651E-2,-1.893043377E-2,3.768705904E-2,5.456522632E-2
4.440684125E0,-2.983247599E-2,2.217283362E-2,3.406003118E-3,3.732575560E-2
4.450682125E0,-4.805861263E-2,-2.574614019E-2,-2.609378457E-2,6.044319296E-2
4.460681125E0,-9.661591966E-3,-7.522095758E-2,-2.490036786E-2,7.982209681E-2
4.470680125E0,-1.771116139E-2,-9.361040513E-2,1.102024734E-2,9.590640770E-2
4.480679125E0,7.914188113E-3,-6.483294957E-2,-1.023555100E-2,6.611136232E-2
4.490677125E0,-5.527402192E-2,-1.050549411E-1,-2.670949638E-2,1.216764371E-1
4.500676125E0,5.573090874E-3,-8.909636378E-2,-3.913190603E-2,9.747064918E-2
4.510675125E0,-1.149642996E-2,-9.324745749E-2,-2.221766531E-2,9.654470924E-2
4.520674125E0,2.208966611E-2,-6.445992462E-2,-1.682419360E-2,7.018610063E-2
4.530672125E0,1.074741991E-2,-6.264377944E-2,-1.547231734E-2,6.541515682E-2
4.540671125E0,-2.243022988E-2,-1.002012404E-1,1.342286825E-2,1.035547063E-1
4.550670125E0,5.947075132E-3,3.743798593E-3,-5.580582619E-3,8.973663293E-3
4.560669125E0,1.225678727E-2,-4.249726187E-2,-9.167849422E-3,4.516963098E-2
4.570667125E0,5.672621448E-3,-8.644194715E-4,-2.248371363E-2,2.320437962E-2
4.580666125E0,9.242620692E-3,1.772027026E-2,-7.510748506E-3,2.135053532E-2
4.590665125E0,-9.381948877E-3,3.852304643E-2,-1.634121358E-2,4.288451157E-2
4.600663125E0,-1.445632707E-3,5.894587236E-2,-3.295315325E-2,6.754713932E-2
4.610662125E0,-1.534892282E-2,2.886814222E-2,-3.938742936E-2,5.118914590E-2
4.620661125E0,2.663456066E-2,5.606629224E-2,-2.112131238E-2,6.556629304E-2
4.630660125E0,-1.257262828E-2,5.337797089E-2,3.755491197E-2,6.646540582E-2
4.640658125E0,1.301023755E-3,1.458991494E-1,-8.416365266E-2,1.684392320E-1
4.650657125E0,1.110339657E-1,9.037197956E-2,-2.472845972E-2,1.452829410E-1
4.660656125E0,-1.865258687E-1,-1.892898292E-1,5.070880830E-2,2.705437532E-1
4.670655125E0,2.328205408E-1,3.508933482E-1,-1.260648000E-1,4.395723829E-1
4.680653125E0,-2.744386281E-1,-2.925634252E-1,-4.406344771E-2,4.035486412E-1
4.690652125E0,1.559255071E-1,2.671328611E-1,-7.533201814E-2,3.183514444E-1
4.700651125E0,-5.904445276E-2,-3.229440228E-1,1.380942768E-1,3.561588389E-1
4.710649125E0,-2.181731377E-2,2.339810669E-1,-1.370265752E-1,2.720283389E-1
4.720648125E0,4.486786013E-2,-3.029158474E-1,1.056100702E-1,3.239207039E-1
4.730647125E0,-2.697485033E-2,6.562125474E-2,-1.591892767E-1,1.742843006E-1
4.740646125E0,8.956273405E-2,-2.262538070E-1,2.387418151E-2,2.445040798E-1
4.750644125E0,-1.971542247E-2,1.028432683E-1,-6.907491267E-2,1.254463203E-1
4.760643125E0,3.172622468E-2,-3.406159165E-1,7.852810621E-2,3.509877767E-1
4.770642125E0,-3.962268842E-2,5.041448322E-2,-3.268125772E-2,7.196973088E-2
4.780641125E0,-1.870107673E-2,-1.428410830E-1,1.731886804E-2,1.450973758E-1
4.790639125E0,-1.717899168E-2,-5.295582932E-2,-9.837297142E-2,1.130339733E-1
4.800638125E0,1.842859648E-3,-1.336508132E-1,-2.068160176E-2,1.352540744E-1
4.810637125E0,-3.389497524E-2,4.833236282E-2,6.120280623E-3,5.934934268E-2
4.820635125E0,-2.337252695E-2,3.710239230E-2,-9.897581935E-3,4.495358338E-2
4.830634125E0,8.479339778E-3,1.673135078E-2,-8.384907246E-3,2.054614249E-2
4.840633125E0,3.621058227E-2,4.815798788E-2,-1.736798465E-2,6.270602010E-2
4.850632125E0,1.493658448E-2,1.501052160E-1,-6.676350832E-2,1.649607332E-1
4.860630125E0,9.023989644E-3,1.086597769E-1,-2.125696778E-2,1.110866247E-1
4.870629125E0,1.011564653E-2,5.686693138E-2,-7.340009809E-3,5.822413531E-2
4.880628125E0,2.220407054E-3,1.051560979E-1,-2.276321054E-2,1.076145849E-1
4.890627125E0,1.604695246E-3,1.224165120E-1,-1.109509170E-2,1.229287539E-1
4.900625125E0,-1.875662528E-2,6.565868606E-2,-4.208533466E-2,8.021252670E-2
4.910624125E0,-1.846187079E-2,-2.138296614E-2,-2.757371485E-2,3.947634311E-2
4.920623125E0,-4.098569266E-3,7.376078906E-2,-5.377508819E-2,9.137402466E-2
4.930621125E0,1.025033349E-2,-8.885440783E-2,6.148113370E-2,1.085361918E-1
4.940620125E0,-8.782307776E-2,-4.682395477E-2,-5.423526406E-2,1.133438997E-1
4.950619125E0,4.927247632E-3,-1.187333783E-2,-1.232528740E-1,1.239214464E-1
4.960618125E0,3.150401222E-2,-2.204229635E-1,2.119440258E-2,2.236693728E-1
4.970616125E0,5.546104146E-2,-6.670173797E-2,5.548189044E-2,1.029722736E-1
4.980615125E0,-8.750906400E-3,-2.250662375E-1,3.587266803E-2,2.280750708E-1
4.990614125E0,-4.522656854E-3,2.162442874E-2,-1.157637602E-1,1.178529530E-1
5.000613125E0,5.301171592E-2,-2.125651462E-1,2.016470790E-2,2.200018156E-1
5.010611125E0,1.984393330E-2,-7.222214908E-2,-1.841872931E-4,7.489896149E-2
5.020610125E0,-3.960744912E-2,-1.394937439E-1,3.123582602E-3,1.450414126E-1
5.030609125E0,-5.693413781E-2,5.396551556E-2,-4.582287490E-2,9.084882378E-2
5.040607125E0,-1.907946467E-3,-3.473131894E-2,5.078891516E-3,3.515252358E-2
5.050606125E0,7.533552647E-3,4.174634233E-2,-2.680480599E-2,5.017976821E-2
5.060605125E0,3.914584799E-2,5.591193488E-2,-2.230537355E-2,7.180579061E-2
5.070604125E0,-3.958519315E-2,5.427472363E-2,-3.889567852E-3,6.728938906E-2
5.080602125E0,2.004635660E-2,1.191689776E-1,-4.595677614E-2,1.292869944E-1
5.090601125E0,3.555536522E-2,1.539906269E-1,-3.083821535E-2,1.610226465E-1
5.100600125E0,1.793193033E-2,8.006448040E-2,-3.742861211E-2,9.018190590E-2
5.110599125E0,-2.643623041E-2,9.255984320E-2,-3.518328130E-2,1.024893269E-1
5.120597125E0,-2.820349652E-2,4.897994195E-2,1.450284898E-2,5.835070315E-2
5.130596125E0,-2.898241874E-2,9.978665457E-2,-5.002351463E-2,1.153243645E-1
5.140595125E0,-3.885036260E-3,-3.496168097E-2,-4.314309597E-2,5.566632171E-2
5.150594125E0,-6.945012119E-3,-4.817434181E-2,-6.769438505E-2,8.337583685E-2
5.160592125E0,-1.495865772E-2,-9.650699699E-2,-1.833102107E-3,9.767662040E-2
5.170591125E0,-8.945472501E-3,-5.558448167E-2,1.448004484E-2,5.813198585E-2
5.180590125E0,2.721750978E-3,-1.215484472E-1,2.630896211E-2,1.243929035E-1
5.190588125E0,2.789017713E-2,-1.108261520E-1,-2.578154325E-2,1.171536851E-1
5.200587125E0,4.264511419E-2,-1.129357635E-1,-2.876888573E-2,1.240997229E-1
5.210586125E0,9.385987110E-3,-1.062292173E-1,-1.708673358E-2,1.080032399E-1
5.220585125E0,-2.754000200E-2,-8.583409254E-2,-2.066990733E-2,9.248344836E-2
5.230583125E0,-3.253237300E-2,-6.316260106E-2,4.414647818E-4,7.104973157E-2
5.240582125E0,-1.447677406E-2,-7.832829589E-3,-1.601961672E-2,2.296863789E-2
5.250581125E0,-8.945472501E-3,-1.569084789E-2,-1.885785520E-2,2.611212149E-2
5.260579125E0,6.725266445E-3,5.032850174E-2,-4.115796626E-2,6.536180446E-2
5.270578125E0,1.444019241E-2,6.625241599E-2,-4.250458002E-2,8.002837687E-2
5.280577125E0,2.629829094E-2,1.210381771E-1,-4.250399530E-2,1.309520143E-1
5.290576125E0,2.383957330E-2,7.034667294E-2,2.500620246E-2,7.837276191E-2
5.300574125E0,-1.135386754E-2,9.469774056E-2,-2.386248708E-3,9.540579940E-2
5.310573250E0,-1.447659133E-2,6.345039370E-2,-2.648905635E-2,7.026517106E-2
5.320572250E0,-2.017727941E-2,6.485031763E-2,-6.182144165E-2,9.183995290E-2
5.330571250E0,-6.958424170E-3,3.033343619E-3,-4.117024541E-2,4.186418454E-2
5.340569250E0,6.349235661E-3,-6.164463647E-3,-1.018877327E-2,1.349535129E-2
5.350568250E0,-2.894390021E-3,-1.697525276E-2,1.569918931E-2,2.330238710E-2
5.360567250E0,-6.160151325E-3,-1.066228171E-1,1.404793561E-2,1.077205509E-1
5.370565250E0,-2.728009326E-2,-1.164659834E-1,1.358191252E-2,1.203868644E-1
5.380564250E0,2.965881368E-3,-1.542340355E-1,-2.609203041E-2,1.564535976E-1
5.390563250E0,3.558101074E-2,-1.011290017E-1,7.429472208E-3,1.074629255E-1
5.400562250E0,1.092658317E-1,-7.971901959E-2,3.137791336E-2,1.388478214E-1
5.410560250E0,1.014861478E-1,-5.583308883E-2,-6.007838666E-2,1.304844226E-1
5.420559250E0,8.527204720E-3,-7.882649694E-2,-3.028682292E-2,8.487415085E-2
5.430558250E0,-4.248166624E-3,-4.364606615E-2,-1.350671732E-1,1.420076311E-1
5.440557250E0,5.557503476E-2,-3.620402243E-2,-2.459771597E-1,2.547627894E-1
5.450555250E0,8.333404239E-2,6.370278329E-2,-1.932867301E-1,2.199144544E-1
5.460554250E0,8.910447679E-2,7.896783510E-2,-7.667278469E-2,1.416130032E-1
5.470553250E0,-1.898862270E-2,6.737622343E-2,3.128196055E-1,3.205561243E-1
5.480551250E0,-3.592337801E-1,1.237110216E-1,2.363257456E-1,4.474407040E-1
5.490550250E0,-5.096751105E-1,-1.175798232E-1,-6.831418991E-2,5.275040868E-1
5.500549250E0,-2.659583199E-2,-1.904947942E-1,-2.755055988E-1,3.360043748E-1
5.510548250E0,9.033930824E-2,1.538749251E-1,-1.454383796E-1,2.301977530E-1
5.520546250E0,1.931655100E-1,-6.023881051E-2,2.166504496E-1,2.964440012E-1
5.530545250E0,3.577849131E-1,2.401435023E-1,5.857682168E-2,4.348680142E-1
5.540544250E0,1.533051139E-1,-1.355663793E-1,5.259336591E-2,2.112978071E-1
5.550543250E0,8.111348916E-2,1.058459597E-1,-7.224702716E-2,1.516654154E-1
5.560541250E0,6.879445645E-2,2.027661812E-2,-1.714286685E-2,7.374073748E-2
5.570540250E0,-4.445626183E-2,3.258415740E-3,-4.137138963E-2,6.081585623E-2
5.580539250E0,-1.394067483E-1,-1.147935975E-1,-2.954539597E-2,1.829883655E-1
5.590538250E0,-2.233824038E-1,4.218540427E-2,-1.607516527E-2,2.278984809E-1
5.600536250E0,-1.955481772E-1,-2.746234367E-2,3.091189027E-2,1.998719963E-1
5.610535250E0,-7.425144355E-2,2.460799794E-2,-9.992189884E-2,1.268984488E-1
5.620534250E0,-1.997391508E-2,-1.185528273E-1,-1.173021626E-1,1.679688289E-1
5.630532250E0,5.318984586E-2,-7.024159664E-3,-4.156259358E-2,6.786713274E-2
5.640531250E0,1.335579795E-1,-5.674768472E-3,1.253379911E-1,1.832472343E-1
5.650530250E0,1.231641517E-1,-8.369914619E-3,4.061300576E-2,1.299572236E-1
5.660529250E0,8.584585092E-2,-7.179489121E-2,-5.877913535E-2,1.264080823E-1
5.670527250E0,7.972932531E-2,-2.609202127E-2,-8.001973093E-2,1.159341029E-1
5.680526250E0,3.008168614E-2,-2.193289678E-2,-1.309834778E-2,3.946551047E-2
5.690525250E0,-9.098045544E-2,1.953047686E-2,-3.962073326E-3,9.313742976E-2
5.700524250E0,-1.261219017E-1,8.952543978E-3,-2.469863892E-3,1.264633637E-1
5.710522250E0,-9.810461163E-2,-1.824331284E-4,-1.609796941E-2,9.941676279E-2
5.720521250E0,-1.954190634E-2,2.873749349E-2,-5.711794138E-2,6.685947101E-2
5.730520250E0,-1.090740521E-2,2.448111336E-2,-6.700441360E-2,7.216569713E-2
5.740518250E0,-3.006976331E-3,-7.351046428E-3,-1.566936851E-2,1.756726785E-2
5.750517250E0,3.711792396E-2,1.228691870E-2,2.069797397E-2,4.423928997E-2
5.760516250E0,4.410784087E-2,-2.031400376E-2,4.374418974E-2,6.535835456E-2
5.770515250E0,2.355278565E-2,3.089306954E-2,-1.463967383E-2,4.151428076E-2
5.780513250E0,4.725935306E-2,5.704872496E-3,-5.684838474E-2,7.414668482E-2
5.790512250E0,1.866414791E-2,-3.797085000E-2,-3.079845428E-2,5.233240539E-2
5.800511250E0,-2.090443550E-3,-4.948292127E-2,9.919801354E-3,5.051071085E-2
5.810510250E0,-6.455863293E-2,-3.211768663E-2,7.530629039E-3,7.249878106E-2
5.820508250E0,-8.200740966E-2,-8.123501075E-2,1.098107100E-3,1.154363376E-1
5.830507250E0,-4.723216351E-2,-1.012606737E-1,-8.025888205E-3,1.120223915E-1
5.840506250E0,3.028053716E-3,-8.383652835E-2,-3.061894476E-2,8.930426851E-2
5.850504250E0,3.235320152E-2,-5.582302979E-2,-8.156865835E-3,6.503441215E-2
5.860503250E0,3.843715631E-2,-4.642952353E-2,2.313977122E-2,6.456442250E-2
5.870502250E0,3.702445988E-2,-9.167063702E-3,5.024863243E-2,6.308542421E-2
5.880501250E0,2.454845684E-2,9.371950138E-2,5.624436736E-2,1.120241069E-1
5.890499250E0,-1.015887025E-2,1.672771271E-1,1.755427694E-1,2.426934358E-1
5.900498250E0,-6.194568585E-2,1.789335332E-1,4.533422309E-1,4.912979296E-1
5.910497250E0,-1.863964077E-1,2.825803277E-1,6.793125576E-1,7.589867017E-1
5.920496250E0,-1.923094045E-1,5.742588499E-1,8.401507491E-1,1.035668584E0
5.930494250E0,2.249090205E-1,4.378092487E-1,1.304485161E0,1.394253399E0
5.940493250E0,3.802295966E-1,5.220486959E-1,1.642217998E0,1.764649920E0
5.950492250E0,5.222791493E-2,9.968450189E-1,1.556000218E0,1.848665580E0
5.960490250E0,-6.033136645E-1,2.380241059E-1,1.471271140E0,1.607881096E0
5.970489250E0,-2.340071784E-1,-4.311383066E-1,1.950942798E0,2.011670301E0
5.980488250E0,-2.015803842E-1,-2.031605577E0,2.359148033E0,3.119877451E0
5.990487250E0,1.443515284E-1,1.268347760E0,2.001255165E0,2.373724003E0
6.000485250E0,-1.192952957E-1,5.539081640E-1,2.062668471E0,2.139076166E0
6.010484250E0,9.897421867E-1,5.099810843E-2,2.167568105E0,2.383388741E0
6.020483250E0,3.643918283E-1,-9.403357726E-1,2.776098363E0,2.953596941E0
6.030482250E0,-3.159095666E-1,-1.406287067E-1,2.414282014E0,2.438920443E0
6.040480250E0,4.309814550E-1,2.827676214E-1,3.038940647E0,3.082346962E0
6.050479250E0,-2.827574618E-1,-9.753273384E-1,2.439936088E0,2.642821090E0
6.060478250E0,-7.351948361E-1,-1.231521703E0,2.920757893E0,3.253918226E0
6.070476250E0,2.227880526E-1,4.449687988E-1,3.159251202E0,3.198202605E0
6.080475250E0,5.828473134E-1,-1.063036523E0,2.917724943E0,3.159569034E0
6.090474250E0,-5.306869338E-1,-6.459594548E-2,3.079013370E0,3.125079933E0
6.100473250E0,-6.278952129E-1,-5.578273882E-2,3.108257634E0,3.171534271E0
6.110471250E0,-5.171644801E-2,-9.049751745E-1,2.848475783E0,2.989225475E0
6.120470250E0,-6.806835104E-1,4.639113656E-1,3.123613007E0,3.230402763E0
6.130469250E0,-3.531498253E-1,1.203623395E-1,3.051798674E0,3.074520619E0
6.140468250E0,9.251318425E-1,1.489202321E-1,3.018792896E0,3.160879104E0
6.150466250E0,7.912587438E-2,9.392216588E-1,3.185214009E0,3.321744498E0
6.160465250E0,-1.365728495E-1,5.491877799E-1,2.849765094E0,2.905412269E0
6.170464250E0,8.024104804E-1,3.414214801E-1,2.875995703E0,3.005292414E0
6.180462250E0,-7.734145034E-1,-2.586628768E-1,2.890273435E0,3.003124540E0
6.190461250E0,-5.064109024E-1,5.559285598E-1,2.851172519E0,2.948676533E0
6.200460250E0,7.474276498E-1,1.199785356E0,2.377964373E0,2.766378056E0
6.210459250E0,2.652603816E-1,8.667530952E-1,2.634139076E0,2.785733776E0
6.220457250E0,-6.198913980E-1,1.583505484E-1,3.083505785E0,3.149182143E0
6.230456250E0,8.846460137E-1,-2.207247347E-1,2.968764119E0,3.105620448E0
6.240455250E0,2.909254556E-1,1.668735231E-1,2.325847555E0,2.349904518E0
6.250454250E0,-2.458074260E-1,1.020540276E0,2.859886624E0,3.046452896E0
6.260452250E0,-1.360629833E0,4.325266183E-1,1.892022745E0,2.370262198E0
6.270451250E0,-4.522888916E-1,-5.222865314E-1,2.209851660E0,2.315338598E0
6.280450250E0,5.086876620E-1,3.444448926E-1,2.796137356E0,2.862828939E0
6.290448250E0,4.474561678E-1,-5.607121669E-1,2.575491503E0,2.673531679E0
6.300447250E0,-1.079546027E-1,-6.317765216E-1,2.320921276E0,2.407793873E0
6.310446042E0,-1.299803003E0,-1.171664342E-1,2.381354004E0,2.715522548E0
6.320445042E0,-6.344750847E-1,-4.017788886E-1,1.744713256E0,1.899476048E0
6.330443042E0,5.839575534E-1,-6.542266137E-1,2.186917126E0,2.356188745E0
6.340442042E0,6.490619143E-1,1.063424340E-1,2.663856965E0,2.743852039E0
6.350441042E0,8.577878518E-1,-1.006676381E0,2.239980608E0,2.601290153E0
6.360440042E0,-5.606310368E-2,-2.263636250E-1,1.399793606E0,1.419086221E0
6.370438042E0,-8.066197447E-1,1.417959480E-1,1.882785898E0,2.053198540E0
6.380437042E0,-5.619612783E-2,-7.106325104E-1,1.706461941E0,1.849369873E0
6.390436042E0,2.833357514E-1,-3.403366023E-1,1.196674783E0,1.275985379E0
6.400434042E0,-3.734875377E-1,3.085511746E-1,1.772637219E0,1.837645091E0
6.410433042E0,2.934636771E-1,-4.166111551E-1,1.354574164E0,1.447258426E0
6.420432042E0,3.912411462E-1,1.854769696E-1,1.077020286E0,1.160794571E0
6.430431042E0,-2.649444858E-1,5.950300968E-1,1.223942104E0,1.386466974E0
6.440429042E0,3.151482591E-1,3.199068328E-2,1.032586125E0,1.080081448E0
6.450428042E0,1.959819493E-1,4.765416437E-1,7.434518355E-1,9.045559653E-1
6.460427042E0,-3.949608524E-1,5.149845285E-1,6.767275035E-1,9.376370586E-1
6.470426042E0,5.291742956E-2,3.066731586E-1,7.212370938E-1,7.855136065E-1
6.480424042E0,1.304001084E-1,-2.686069441E-1,4.721340126E-1,5.586272501E-1
6.490423042E0,1.754643619E-1,-8.141947213E-2,6.582128799E-1,6.860474240E-1
6.500422042E0,-5.714551466E-2,-3.555927920E-1,6.485480171E-1,7.418398574E-1
6.510420042E0,1.211770394E-1,6.484473719E-1,-3.472193599E-2,6.605857112E-1
6.520419042E0,-1.021960053E0,1.583942746E-1,3.650942981E-2,1.034806278E0
6.530418042E0,-5.257151194E-1,1.522399523E-1,2.234355587E-1,5.911656610E-1
6.540417042E0,6.196140207E-1,3.158539449E-1,-1.874225575E-1,7.202863765E-1
6.550415042E0,3.682084521E-1,-1.957338263E-1,1.046686685E-1,4.299357221E-1
6.560414042E0,4.374983961E-1,-8.125078909E-2,1.778161669E-1,4.791921603E-1
6.570413042E0,5.861805186E-1,-4.243053965E-1,-3.413540179E-1,8.001032655E-1
6.580412042E0,-4.556865259E-1,8.018892742E-1,-7.414813238E-1,1.183415046E0
6.590410042E0,-1.218672520E0,2.452322062E-1,-1.050059359E0,1.627244974E0
6.600409042E0,-4.162355446E-1,-4.291639211E-1,-9.251242411E-1,1.101493786E0
6.610408042E0,-1.337569949E-1,-1.324404030E-1,-1.060234099E0,1.076813697E0
6.620406042E0,3.293233351E-1,9.356531031E-1,-1.161758720E0,1.527607250E0
6.630405042E0,1.048948169E0,-9.183305805E-1,-1.037716472E0,1.737952471E0
6.640404042E0,4.881348451E-1,-2.485589613E-1,-1.441909931E0,1.542453057E0
6.650403042E0,-7.942221858E-2,8.824907483E-2,-1.920934888E0,1.924600382E0
6.660401042E0,-2.693021050E-1,-3.597929201E-1,-1.927848635E0,1.979539070E0
6.670400042E0,-2.967521695E-1,2.541424309E-1,-2.135559862E0,2.171005792E0
6.680399042E0,-2.927734499E-1,2.033276053E-2,-2.449299234E0,2.466819096E0
6.690398042E0,-1.319459478E-1,5.942636730E-1,-2.846336287E0,2.910702545E0
6.700396042E0,3.970381489E-1,-1.399267119E-1,-2.378700537E0,2.415664509E0
6.710395042E0,1.297175264E0,-3.192217950E-1,-2.595355664E0,2.918978802E0
6.720394042E0,1.296596499E-1,-3.011396095E-1,-3.300089577E0,3.316336519E0
6.730392042E0,-1.125507956E0,4.876355660E-1,-3.721543432E0,3.918474464E0
6.740391042E0,2.062486550E-2,-4.062062906E-1,-3.779021562E0,3.800846341E0
6.750390042E0,2.086681049E-1,-8.122463742E-1,-3.894570145E0,3.983837743E0
6.760389042E0,-1.832004475E-1,1.223232398E-1,-4.113274722E0,4.119169129E0
6.770387042E0,4.407989301E-2,-1.262205644E-1,-4.481069849E0,4.483063869E0
6.780386042E0,1.844262066E-1,2.278320436E-1,-4.643811309E0,4.653053184E0
6.790385042E0,1.631654930E-1,-7.011986492E-2,-4.419608011E0,4.423174736E0
6.800384042E0,6.048097477E-1,-2.516555553E-1,-4.712085738E0,4.757402374E0
6.810382042E0,2.319821049E-1,9.342440885E-2,-4.955946790E0,4.962252755E0
6.820381042E0,-6.745551898E-1,4.744120147E-3,-5.136839762E0,5.180942959E0
6.830380042E0,-2.002501426E-1,-2.900083381E-1,-5.155894668E0,5.167925578E0
6.840378042E0,1.742265612E-2,-3.871207595E-1,-5.047539330E0,5.062392648E0
6.850377042E0,2.702655434E-1,-2.587955721E-1,-4.949021348E0,4.963147279E0
6.860376042E0,5.359305706E-1,-1.715144581E-1,-4.837010331E0,4.869631169E0
6.870375042E0,6.624566428E-2,1.442903702E-1,-4.878609177E0,4.881192037E0
6.880373042E0,-2.761708292E-1,-1.714605541E-1,-5.057063860E0,5.067500758E0
6.890372042E0,-2.077195221E-1,-7.531352632E-2,-5.173110625E0,5.177827060E0
6.900371042E0,5.869212147E-2,-3.629542172E-2,-5.018085735E0,5.018560209E0
6.910370042E0,3.140819462E-1,5.471765935E-2,-5.000898430E0,5.011050448E0
6.920368042E0,1.585610665E-1,-6.497990289E-1,-4.990726029E0,5.035347722E0
6.930367042E0,6.421916552E-2,-2.307074484E-1,-4.800328408E0,4.806298248E0
6.940366042E0,2.512968834E-2,5.296490164E-3,-4.465361888E0,4.465435740E0
6.950364042E0,-1.139833196E-1,8.356304311E-2,-4.004969670E0,4.007462668E0
6.960363042E0,-7.777997324E-2,-3.329881141E-1,-3.356257930E0,3.373632775E0
6.970362042E0,1.929096760E-1,-2.757338960E-1,-2.814993457E0,2.835036417E0
6.980361042E0,2.499354324E-1,-3.976290831E-1,-2.469051129E0,2.513322519E0
6.990359042E0,1.221317252E-1,2.619771883E-3,-2.275190202E0,2.278467353E0
7.000358042E0,2.237191486E-1,-1.889327471E-1,-2.044353238E0,2.065218149E0
7.010357042E0,-1.743316466E-1,-3.070736928E-1,-1.906303400E0,1.938731139E0
7.020356042E0,6.427111438E-2,-3.547773246E-1,-1.857775603E0,1.892439673E0
7.030354042E0,1.184663798E-1,1.563200297E-1,-1.807898853E0,1.818507217E0
7.040353042E0,-2.974257505E-2,1.498873433E-2,-1.606711366E0,1.607056531E0
7.050352042E0,2.959855082E-2,9.807834484E-2,-1.671240653E0,1.674377722E0
7.060350042E0,-2.972911549E-1,2.513655882E-2,-1.631309432E0,1.658367975E0
7.070349042E0,-2.319235231E-1,1.681625783E-1,-1.449818875E0,1.477850447E0
7.080348042E0,4.277256522E-3,3.224664515E-1,-1.563977575E0,1.596880948E0
7.090347042E0,-6.068130769E-3,5.130540702E-1,-1.596595683E0,1.677014930E0
7.100345042E0,-1.593924492E-1,3.831987030E-1,-1.470822659E0,1.528256030E0
7.110344042E0,3.732829582E-1,-3.132709374E-1,-1.354563054E0,1.439555458E0
7.120343042E0,3.421875019E-1,1.907750037E-2,-1.202583979E0,1.250465699E0
7.130342042E0,7.502032500E-1,-8.111333567E-1,-1.187960678E0,1.622341767E0
7.140340042E0,-5.464947351E-1,-7.113696981E-2,-1.554034384E0,1.648860161E0
7.150339042E0,-1.187678842E0,5.031811563E-1,-1.926506115E0,2.318447351E0
7.160338042E0,-3.651983786E-1,6.079488620E-1,-2.167986181E0,2.281038306E0
7.170336042E0,6.152831342E-1,-1.490336955E-1,-1.532525402E0,1.658137052E0
7.180335042E0,1.238093389E0,-3.348651068E-2,-1.455489505E0,1.911137432E0
7.190334042E0,9.175796518E-1,-1.933987956E-1,-1.784364395E0,2.015765811E0
7.200333042E0,2.991592672E-2,2.626002822E-1,-2.074837112E0,2.091602953E0
7.210331042E0,-1.203440889E0,1.902341546E-1,-2.176501481E0,2.494317081E0
7.220330042E0,-1.004945971E0,-2.521938463E-1,-2.063406390E0,2.308931370E0
7.230329042E0,1.335762429E-1,1.817137929E-1,-1.882785314E0,1.896244460E0
7.240328042E0,1.181392464E-1,-1.496555743E-1,-1.438567663E0,1.451148026E0
7.250326042E0,4.104656583E-1,-3.503858099E-1,-1.540348976E0,1.632154172E0
7.260325042E0,5.348084168E-1,-4.541073391E-1,-1.523258150E0,1.677065565E0
7.270324042E0,-3.055975998E-2,5.158066470E-3,-1.444937620E0,1.445269950E0
7.280322042E0,-7.298604213E-4,-6.086352155E-1,-1.599249734E0,1.711150802E0
7.290321042E0,-3.740361527E-1,-7.567387925E-2,-1.783035323E0,1.823415625E0
7.300320042E0,-9.497011118E-3,-3.725475612E-1,-1.219427469E0,1.275102047E0
7.310319875E0,1.022987006E-1,-5.717431585E-1,-1.266233845E0,1.393091316E0
7.320317875E0,4.701711754E-1,1.954022892E-1,-1.521221564E0,1.604168955E0
7.330316875E0,2.438592251E-2,-2.436528732E-1,-1.084219378E0,1.111527352E0
7.340315875E0,1.554377031E-1,-3.070311543E-1,-1.325593609E0,1.369535478E0
7.350314875E0,-1.759591277E-1,1.074232918E-1,-1.725838444E0,1.738108085E0
7.360312875E0,-1.051280112E0,-1.030039297E-1,-1.524586052E0,1.854767455E0
7.370311875E0,-2.516177129E-1,1.942650789E-1,-1.586488770E0,1.618022562E0
7.380310875E0,6.213403380E-1,8.308133304E-2,-1.658822336E0,1.773318321E0
7.390308875E0,-1.932501301E-1,-1.535788550E-1,-1.007303349E0,1.037107571E0
7.400307875E0,1.822601787E-1,4.850850105E-1,-1.197472928E0,1.304786440E0
7.410306875E0,5.222863121E-1,2.080058895E-1,-1.201692279E0,1.326692796E0
7.420305875E0,-7.647757905E-2,-1.872426094E-1,-6.502524805E-1,6.809823076E-1
7.430303875E0,1.600070646E-1,-3.947426416E-1,-8.124823093E-1,9.173611703E-1
7.440302875E0,5.084664179E-1,-7.852883711E-3,-7.973158014E-1,9.456808410E-1
7.450301875E0,-5.724754491E-1,-1.913856906E-1,-7.543375969E-1,9.661168835E-1
7.460300875E0,5.895309001E-2,4.440328789E-1,-7.053771061E-1,8.355821480E-1
7.470298875E0,2.607879560E-1,3.935858614E-2,-7.952914953E-1,8.378830580E-1
7.480297875E0,3.760100996E-1,3.224701425E-1,-5.698181820E-1,7.550253958E-1
7.490296875E0,-1.906367354E-1,2.734463556E-1,-5.493219370E-1,6.425495037E-1
7.500294875E0,-2.367910743E-1,2.972998160E-1,-8.598061645E-1,9.400658668E-1
7.510293875E0,-1.366677754E-1,4.110357619E-1,-6.191651738E-1,7.556414433E-1
7.520292875E0,-3.941074878E-1,1.423426170E-1,-1.962033212E-1,4.626855042E-1
7.530291875E0,3.629907623E-1,-3.332192983E-1,-7.553842485E-2,4.985012015E-1
7.540289875E0,4.020113520E-1,-3.389812908E-1,-9.186560512E-3,5.259332995E-1
7.550288875E0,-4.195442281E-1,-1.266478588E-2,1.400758982E-1,4.424918229E-1
7.560287875E0,-1.358321352E-1,-2.930996697E-1,-7.111266732E-2,3.307790755E-1
7.570286875E0,-3.522163904E-1,1.303260772E-1,-1.190077955E-1,3.939595505E-1
7.580284875E0,-6.495682832E-2,2.123376713E-1,1.862162769E-1,2.897985127E-1
7.590283875E0,3.806991645E-1,-4.267221238E-2,2.227625442E-1,4.431432304E-1
7.600282875E0,1.931286908E-1,-3.729952752E-1,2.362813067E-1,4.819263662E-1
7.610280875E0,-1.885882547E-1,-1.137692750E-1,3.529051924E-1,4.159940535E-1
7.620279875E0,-3.291303039E-1,1.490872615E-1,3.534554154E-1,5.054547449E-1
7.630278875E0,-3.404066958E-1,-2.196475679E-1,4.311087781E-1,5.915881602E-1
7.640277875E0,-8.413840000E-2,-1.246552556E-1,6.761176389E-1,6.926422343E-1
7.650275875E0,1.283542773E-1,-2.480156453E-1,7.301435727E-1,7.817264340E-1
7.660274875E0,3.669982977E-1,-2.721526226E-1,6.081624681E-1,7.606683825E-1
7.670273875E0,2.964493020E-1,-1.184307118E-1,6.001319021E-1,6.797546043E-1
7.680272875E0,2.484099121E-1,-2.792622338E-1,7.537645698E-1,8.413417298E-1
7.690270875E0,1.844496869E-2,-8.040522689E-2,6.927225620E-1,6.976172054E-1
7.700269875E0,-3.912752062E-1,-4.473291736E-2,5.294302940E-1,6.598437369E-1
7.710268875E0,-2.047457013E-1,1.970402040E-2,5.201326364E-1,5.593272835E-1
7.720266875E0,-7.951444013E-2,1.768253379E-1,4.661996734E-1,5.049077954E-1
7.730265875E0,2.935870168E-1,2.046501541E-1,4.404286551E-1,5.674966276E-1
7.740264875E0,3.738394304E-1,1.211448066E-2,5.149508339E-1,6.364566299E-1
7.750263875E0,-3.750158902E-1,1.648198165E-1,5.819458920E-1,7.116624979E-1
7.760261875E0,-2.309492308E-1,3.099935365E-1,4.978804725E-1,6.303320592E-1
7.770260875E0,-5.154616613E-2,3.781975795E-1,4.949358147E-1,6.250215013E-1
7.780259875E0,3.155214211E-2,9.124440241E-2,7.360223633E-1,7.423274196E-1
7.790257875E0,6.937043826E-1,4.263635251E-2,8.517206347E-1,1.099305084E0
7.800256875E0,2.013652249E-1,-1.399766508E-1,8.662503809E-1,9.002950288E-1
7.810255875E0,-8.203875622E-2,-4.660585362E-2,8.836218739E-1,8.886450805E-1
7.820254875E0,-3.617400063E-1,2.598568417E-2,8.066801172E-1,8.844568387E-1
7.830252875E0,-3.581142575E-1,5.924919667E-3,8.908145338E-1,9.601205444E-1
7.840251875E0,8.710990017E-2,4.663686214E-2,1.007743644E0,1.012576113E0
7.850250875E0,-6.417684630E-4,6.350746801E-2,9.957960284E-1,9.978192925E-1
7.860249875E0,-6.589247419E-2,2.783311378E-1,9.993832952E-1,1.039508062E0
7.870247875E0,-2.979264000E-1,2.396899594E-1,9.933688492E-1,1.064421480E0
7.880246875E0,-2.463474712E-1,-1.792376615E-1,1.009811804E0,1.054766844E0
7.890245875E0,2.285452212E-1,2.014662173E-1,9.165358508E-1,9.658465305E-1
7.900244875E0,-2.931739110E-3,4.015739802E-2,1.017064691E0,1.017861384E0
7.910242875E0,-2.657484231E-1,-4.034951560E-1,1.085116925E0,1.187817034E0
7.920241875E0,4.210865043E-1,-2.825975405E-1,1.516692311E0,1.599228183E0
7.930240875E0,5.834994241E-1,2.703192647E-1,1.325380186E0,1.473151968E0
7.940238875E0,-4.419431571E-1,-2.821958368E-1,1.769090298E0,1.845163605E0
7.950237875E0,-5.817675154E-1,1.145555793E-1,9.253277242E-1,1.099003103E0
7.960236875E0,3.217963971E-2,-3.426324750E-1,1.180725333E0,1.229855623E0
7.970235875E0,-1.995536844E-1,6.504061892E-1,1.245939914E0,1.419583091E0
7.980233875E0,-5.247281094E-1,-3.560319909E-1,1.330882416E0,1.474227381E0
7.990232875E0,6.327321759E-1,2.964284713E-1,1.168912203E0,1.361828030E0
8.000231875E0,-4.671060649E-1,-1.242807871E-1,1.938274806E0,1.997634354E0
8.010229875E0,2.525905434E-1,1.931869254E-1,1.746971451E0,1.775678017E0
8.020228875E0,9.779070568E-1,5.449295086E-1,1.233604628E0,1.665842357E0
8.030227875E0,4.405725332E-2,-5.065193317E-1,1.645174935E0,1.721947572E0
8.040226875E0,-2.939502020E-1,1.195563922E-1,1.447292293E0,1.481673187E0
8.050224875E0,-5.571004149E-1,3.378205820E-1,1.041181532E0,1.228227422E0
8.060223875E0,2.049619021E-1,2.024404548E-1,1.067846589E0,1.106023443E0
8.070222875E0,-1.769351742E-1,-5.135160734E-1,1.375134729E0,1.478512880E0
8.080221875E0,7.128991105E-2,3.051214720E-1,1.169425004E0,1.210675929E0
8.090219875E0,2.152410148E-1,-1.187376632E-1,1.171658056E0,1.197167460E0
8.100218875E0,-1.714239359E-1,-4.423162825E-1,1.276891565E0,1.362160757E0
8.110217875E0,-2.487362598E-1,-2.334088803E-2,1.192146115E0,1.218042234E0
8.120216875E0,2.251013573E-3,-3.152565788E-1,1.169238478E0,1.210995622E0
8.130214875E0,3.429260783E-1,-1.433004914E-1,1.080963063E0,1.143072382E0
8.140213875E0,2.060273744E-2,-5.086701569E-1,1.155243752E0,1.262441257E0
8.150212875E0,-3.661795048E-2,6.368129477E-3,9.182865071E-1,9.190383760E-1
8.160210875E0,-4.651586498E-1,-1.005366788E-1,8.289083076E-1,9.558081270E-1
8.170209875E0,-8.126882410E-2,-1.903907503E-1,8.784453338E-1,9.025073208E-1
8.180208875E0,1.653924416E-1,2.847606814E-2,9.161423331E-1,9.313873098E-1
8.190207875E0,-9.694345510E-2,-1.753614692E-2,8.475474769E-1,8.532539338E-1
8.200205875E0,1.296243656E-1,1.792203209E-1,7.604146081E-1,7.919297796E-1
8.210204875E0,2.639782151E-1,5.715516256E-2,9.373525232E-1,9.754901145E-1
8.220203875E0,-5.245898958E-2,-8.385780673E-2,9.377986658E-1,9.430007502E-1
8.230201875E0,-1.858015631E-1,1.063814459E-1,8.553195959E-1,8.817090473E-1
8.240200875E0,1.160895232E-2,9.104669343E-2,1.030150759E0,1.034231529E0
8.250199875E0,-1.165608453E-1,1.895698743E-1,8.754989219E-1,9.033391003E-1
8.260198875E0,-2.040775838E-1,2.664192449E-1,8.962781721E-1,9.570482935E-1
8.270196875E0,5.523950508E-2,3.944426795E-1,1.109995658E0,1.179290800E0
8.280195875E0,8.333069852E-2,3.208109220E-1,1.131971834E0,1.179501541E0
8.290194875E0,1.308839290E-1,2.196166325E-1,1.219529210E0,1.246039150E0
8.300193875E0,1.794488191E-1,2.186686709E-1,1.307246801E0,1.337502174E0
8.310191000E0,-2.115831429E-1,6.595312991E-2,1.170870436E0,1.191660530E0
8.320190000E0,-3.093643030E-1,7.275450152E-2,1.159794640E0,1.202548584E0
8.330189000E0,1.415044460E-3,-1.270421804E-2,1.388236000E0,1.388294850E0
8.340188000E0,5.412440451E-2,2.353287770E-2,1.423446178E0,1.424669179E0
8.350186000E0,5.445519246E-2,3.143472271E-3,1.448344207E0,1.449370964E0
8.360185000E0,3.177161369E-2,2.298758647E-1,1.496727578E0,1.514610772E0
8.370184000E0,-2.922835811E-1,2.418152944E-1,1.416337718E0,1.466259479E0
8.380182000E0,-1.917095715E-1,2.248673042E-1,1.445208930E0,1.475109053E0
8.390181000E0,-5.429742727E-3,1.373593183E-2,1.653551071E0,1.653617036E0
8.400180000E0,1.029390438E-1,1.754245095E-2,1.766986470E0,1.770069312E0
8.410179000E0,-9.012039397E-2,1.841120102E-2,1.772337257E0,1.774722517E0
8.420177000E0,-3.634479415E-2,1.485917008E-1,1.775291271E0,1.781869673E0
8.430176000E0,9.084031412E-2,-9.634472762E-2,1.841587586E0,1.846342088E0
8.440175000E0,8.903465739E-2,-3.100575635E-1,1.889061130E0,1.916406746E0
8.450173000E0,1.984354227E-1,-3.241583433E-1,2.035350280E0,2.070532784E0
8.460172000E0,-7.773822047E-2,-1.297598018E-1,1.980908024E0,1.986674970E0
8.470171000E0,-1.390007597E-1,-1.560453567E-1,2.131694852E0,2.141913702E0
8.480170000E0,3.844818380E-3,-2.078637656E-1,2.373298295E0,2.382386812E0
8.490168000E0,8.447366472E-2,-2.494422197E-2,2.228998368E0,2.230737936E0
8.500167000E0,-1.843202624E-1,-1.567645460E-1,2.498124654E0,2.509815904E0
8.510166000E0,-3.226925560E-1,-1.365414025E-1,2.757523513E0,2.779696020E0
8.520165000E0,1.500581734E-1,-2.842747777E-1,2.722953020E0,2.741861184E0
8.530163000E0,1.043294752E-1,-2.985290470E-2,2.732851186E0,2.735004834E0
8.540162000E0,-2.833459293E-1,1.931185861E-1,2.940899797E0,2.960822744E0
8.550161000E0,7.807871114E-2,-5.617167003E-2,2.739725758E0,2.741413644E0
8.560159000E0,2.587198872E-1,-4.850977100E-2,2.718041943E0,2.730758353E0
8.570158000E0,-2.376320136E-1,5.303777622E-1,2.938359182E0,2.995283664E0
8.580157000E0,-1.903935643E-1,1.655779811E-1,2.510686812E0,2.523333915E0
8.590156000E0,1.815424512E-1,1.525329800E-1,2.656329845E0,2.666891864E0
8.600154000E0,-1.470386712E-1,4.406460985E-1,3.153560691E0,3.187590687E0
8.610153000E0,-2.202161914E-1,1.941131243E-1,2.596844366E0,2.613383962E0
8.620152000E0,7.196935751E-2,6.228080439E-2,2.740250253E0,2.741902613E0
8.630151000E0,1.387162013E-1,2.693633728E-1,3.140378729E0,3.154960756E0
8.640149000E0,-1.101855530E-1,-7.218591462E-2,2.682211375E0,2.685444009E0
8.650148000E0,-6.156716086E-2,-1.265638325E-1,2.702025250E0,2.705688336E0
8.660147000E0,-1.626349678E-1,1.005698708E-1,2.993225945E0,2.999327590E0
8.670145000E0,-2.904514840E-2,-1.539153623E-1,2.749636204E0,2.754093828E0
8.680144000E0,2.317571150E-1,-8.396440879E-2,2.874892334E0,2.885440575E0
8.690143000E0,-4.042301510E-1,4.238520911E-1,2.966064459E0,3.023341030E0
8.700142000E0,-7.381595206E-1,4.803527127E-1,2.355864821E0,2.515097863E0
8.710140000E0,-4.970062042E-2,-2.612429425E-1,2.716561428E0,2.729546486E0
8.720139000E0,3.997294760E-1,2.516038623E-1,3.086125338E0,3.122059858E0
8.730138000E0,4.097067994E-1,-5.683810095E-1,2.986826168E0,3.067905994E0
8.740137000E0,5.621639209E-2,-4.212209903E-1,2.747021329E0,2.779696672E0
8.750135000E0,-6.879407090E-1,6.743912485E-1,2.429320468E0,2.613362568E0
8.760134000E0,1.628687468E-1,-2.795612458E-1,3.212786554E0,3.229036723E0
8.770133000E0,1.209535296E0,1.475712977E-2,3.085938812E0,3.314545482E0
8.780131000E0,-2.277583687E-2,-2.416151734E-1,3.018676536E0,3.028416197E0
8.790130000E0,-1.008127075E0,5.185785927E-3,2.669303062E0,2.853335930E0
8.800129000E0,-4.878047698E-1,-1.781210078E-1,2.470496560E0,2.524486847E0
8.810128000E0,-3.938742936E-2,2.619157925E-1,2.737491537E0,2.750274744E0
8.820126000E0,3.518914679E-2,-7.811218645E-2,3.049415349E0,3.050618586E0
8.830125000E0,9.518305215E-1,1.470999208E-1,2.702609387E0,2.869096936E0
8.840124000E0,-4.315566748E-1,-1.998642264E-2,2.346163706E0,2.385607837E0
8.850123000E0,-6.813567442E-1,2.843549211E-1,2.369801660E0,2.482149198E0
8.860121000E0,-6.258859634E-3,-1.094280828E-1,2.306148870E0,2.308752106E0
8.870120000E0,-4.053187564E-1,-5.451276926E-2,1.899593720E0,1.943118946E0
8.880119000E0,3.028417888E-1,2.421704762E-2,2.533551180E0,2.551701627E0
8.890117000E0,4.298603245E-1,-1.875236960E-1,2.093984404E0,2.145860135E0
8.900116000E0,3.870117089E-1,3.015633864E-2,1.949610803E0,1.987880718E0
8.910115000E0,-4.084611963E-1,5.809638521E-1,1.768337177E0,1.905616939E0
8.920114000E0,-6.273780998E-1,1.258621026E-1,1.514310156E0,1.643952492E0
8.930112000E0,9.588191137E-2,-8.608537663E-2,1.447386433E0,1.453110980E0
8.940111000E0,-1.225240369E-1,5.403720791E-1,1.387043753E0,1.493621269E0
8.950110000E0,4.714901976E-1,-7.555377379E-2,1.440065719E0,1.517168631E0
8.960109000E0,2.946479758E-1,-2.498985766E-1,1.064394978E0,1.132344204E0
8.970107000E0,1.087209351E-1,6.899411146E-2,1.031215537E0,1.039223707E0
8.980106000E0,-1.853506880E-1,1.358103178E-1,6.371038467E-1,6.772744137E-1
8.990105000E0,-4.364097176E-1,4.890848715E-3,1.063064736E-1,4.491975383E-1
9.000103000E0,-3.421656845E-1,1.272959496E-1,2.412759984E-1,4.376022415E-1
9.010102000E0,-6.891563086E-2,-8.239569219E-2,1.837908518E-1,2.128790537E-1
9.020101000E0,8.601409176E-1,-4.931282211E-1,3.615333438E-3,9.914791532E-1
9.030100000E0,2.924069025E-1,-5.443041489E-2,-2.338096887E-1,3.783271564E-1
9.040098000E0,-7.234873948E-1,2.797696077E-1,-5.992980891E-1,9.802363202E-1
9.050097000E0,3.838225644E-2,-2.656397563E-1,-7.877918565E-1,8.322581853E-1
9.060096000E0,4.685476594E-1,-9.754091263E-1,-4.166749263E-1,1.159559342E0
9.070095000E0,4.424123596E-1,-4.327868559E-1,-3.188860917E-1,6.962194324E-1
9.080093000E0,-5.465854035E-1,-8.687674245E-2,-1.330075500E0,1.440626255E0
9.090092000E0,-6.792697267E-1,4.652170854E-2,-1.504270486E0,1.651181797E0
9.100091000E0,-4.081391243E-2,2.154974883E-2,-1.025043216E0,1.026081752E0
9.110089000E0,8.544870986E-1,-2.855769527E-1,-1.368293486E0,1.638270265E0
9.120088000E0,2.538495585E-1,4.429428482E-1,-1.803673071E0,1.874533145E0
9.130087000E0,-9.866476209E-1,6.319730611E-1,-2.397525648E0,2.668518823E0
9.140086000E0,-1.736612999E-1,4.152643586E-1,-2.552697887E0,2.592078170E0
9.150084000E0,3.896686106E-1,-6.493243081E-1,-2.382828671E0,2.500267218E0
9.160083000E0,5.807467742E-1,-2.856148499E-1,-2.762703561E0,2.837494251E0
9.170082000E0,1.848975288E-1,-3.161425050E-2,-2.852908557E0,2.859068693E0
9.180081000E0,-1.950849681E-1,1.034188554E0,-3.642092636E0,3.791100484E0
9.190079000E0,-7.215151289E-1,4.706733781E-1,-3.917885917E0,4.011476981E0
9.200078000E0,-7.856043035E-2,8.678337886E-2,-3.855182131E0,3.856958952E0
9.210077000E0,3.451060665E-1,-7.905839020E-1,-3.874019521E0,3.968897624E0
9.220075000E0,5.600209164E-1,6.701691934E-1,-4.312710384E0,4.400252382E0
9.230074000E0,2.256774542E-1,-3.436497078E-1,-4.552123459E0,4.570651313E0
9.240073000E0,-1.051948266E-1,3.740367374E-1,-5.075109537E0,5.089961320E0
9.250072000E0,-5.524970482E-1,3.833293152E-1,-5.569843038E0,5.610289281E0
9.260070000E0,8.852446955E-3,2.984502557E-1,-5.623870726E0,5.631791266E0
9.270069000E0,3.881439491E-1,-5.494879979E-1,-5.426504393E0,5.468047432E0
9.280068000E0,9.853992404E-1,4.276361167E-3,-5.430849459E0,5.519524961E0
9.290067000E0,1.251881014E-1,-7.680838893E-1,-5.881244693E0,5.932509087E0
9.300065000E0,-5.548021667E-1,3.465449201E-1,-5.899629509E0,5.935783619E0
9.310064500E0,-1.425272995E0,-1.699734975E-1,-6.365203530E0,6.525037171E0
9.320063500E0,2.774538179E-1,-1.660029823E-1,-5.785137518E0,5.794165489E0
9.330061500E0,1.581922826E0,-8.807162462E-1,-5.185689740E0,5.492678674E0
9.340060500E0,5.863455563E-1,-4.203757752E-1,-5.486076411E0,5.533312868E0
9.350059500E0,-1.077564954E0,-2.661756719E-1,-6.212282469E0,6.310661549E0
9.360058500E0,-2.178702154E-1,-4.223234828E-1,-5.758903400E0,5.778476696E0
9.370056500E0,4.713925125E-1,-1.188438103E0,-5.038744533E0,5.198417307E0
9.380055500E0,3.469778699E-1,-3.582795145E-1,-5.066455073E0,5.090945379E0
9.390054500E0,1.222927429E-1,-8.481342450E-2,-4.831499915E0,4.833791499E0
9.400053500E0,-9.182187891E-2,-4.432549799E-1,-4.179216696E0,4.203660123E0
9.410051500E0,-1.834965907E-3,-4.029378067E-1,-3.642775590E0,3.664993349E0
9.420050500E0,2.581584631E-1,-4.462650535E-1,-3.198671376E0,3.239953219E0
9.430049500E0,-2.586810946E-1,-5.458434284E-1,-2.867587407E0,2.930515056E0
9.440047500E0,6.196453398E-2,9.108169449E-2,-2.762246309E0,2.764442105E0
9.450046500E0,9.821065636E-2,-1.922027659E-1,-2.426382242E0,2.435963468E0
9.460045500E0,1.420381141E-1,7.753658289E-2,-2.277650710E0,2.283392105E0
9.470044500E0,-4.277413666E-1,-3.714669409E-2,-2.105317478E0,2.148651725E0
9.480042500E0,-2.858205988E-1,3.739957338E-1,-1.955166827E0,2.011030468E0
9.490041500E0,2.813330253E-2,2.168988284E-1,-1.576719242E0,1.591816621E0
9.500040500E0,7.795468439E-1,3.773292314E-1,-1.198223126E0,1.478448271E0
9.510039500E0,8.681518223E-1,7.748058484E-1,-9.728345972E-1,1.516713171E0
9.520037500E0,-1.292123105E-1,8.411942395E-2,-9.177766299E-1,9.306373306E-1
9.530036500E0,-5.658153243E-1,-2.016620625E-2,-1.020649034E0,1.167166701E0
9.540035500E0,-4.197371862E-1,-1.025140700E-1,-7.876158553E-1,8.983469127E-1
9.550033500E0,-5.851267042E-1,-8.961268206E-2,-7.301500046E-1,9.399588938E-1
9.560032500E0,3.225874889E-1,5.471122011E-1,-8.431521249E-1,1.055604071E0
9.570031500E0,3.653079042E-2,4.972652724E-1,-7.632031453E-1,9.116393424E-1
9.580030500E0,3.045621858E-2,4.800728138E-1,-8.019456267E-1,9.351546803E-1
9.590028500E0,1.128581783E-1,-1.438992554E-1,-8.360109204E-1,8.557793075E-1
9.600027500E0,-2.685642594E-1,-4.512643863E-1,-9.178210688E-1,1.057431710E0
9.610026500E0,-1.258731393E-1,5.966926429E-2,-1.178199921E0,1.186406137E0
9.620025500E0,2.284790745E-1,5.982200088E-1,-1.419356051E0,1.557126028E0
9.630023500E0,-6.594233997E-3,1.023390135E0,-1.909279048E0,2.166268066E0
9.640022500E0,2.682297804E-2,-3.687616718E-1,-1.422479634E0,1.469745880E0
9.650021500E0,4.370101902E-1,-3.984309922E-1,-1.517754166E0,1.628896212E0
9.660019500E0,1.645950641E-1,-4.430045729E-1,-1.626045184E0,1.693330307E0
9.670018500E0,2.466556195E-1,8.516274082E-2,-1.818619139E0,1.837244474E0
9.680017500E0,-1.950807289E-1,-1.140803651E-1,-1.808268397E0,1.822335155E0
9.690016500E0,6.862762808E-2,-8.857298316E-2,-2.102398548E0,2.105382288E0
9.700014500E0,2.384897453E-2,-6.687035888E-1,-1.943264819E0,2.055239991E0
9.710013500E0,-3.350166593E-1,-1.673169795E-1,-1.907854666E0,1.944258357E0
9.720012500E0,-5.979423939E-2,-2.665361162E-1,-2.069382829E0,2.087333741E0
9.730011500E0,-1.025747806E-1,-7.406010255E-1,-1.773614289E0,1.924764690E0
9.740009500E0,-2.263173224E-1,-5.916397350E-1,-1.645038695E0,1.762784562E0
9.750008500E0,4.444011804E-1,-1.902105464E-1,-1.993944392E0,2.051703365E0
9.760007500E0,2.483197005E-1,-4.795604881E-1,-1.697221001E0,1.781067114E0
9.770005500E0,6.183377197E-1,-3.347292687E-1,-1.846974041E0,1.976283970E0
9.780004500E0,1.759912326E-1,-4.724337555E-1,-1.951398296E0,2.015470634E0
9.790003500E0,-1.121449550E-1,2.919097248E-1,-2.134623722E0,2.157407290E0
9.800002500E0,-9.521591350E-1,-2.719803490E-1,-2.143493949E0,2.361174842E0
9.810000500E0,-8.672290586E-1,-2.053804165E-1,-2.056196773E0,2.241029345E0
9.819999500E0,-1.173851748E-1,4.602414338E-1,-1.976227913E0,2.032505405E0
9.829998500E0,9.710145783E-2,-1.547491569E-1,-1.628913243E0,1.639126093E0
9.839996500E0,3.414362443E-1,3.836433472E-1,-1.740939463E0,1.815111881E0
9.849995500E0,6.557925712E-1,-2.700457064E-1,-1.405639653E0,1.574424153E0
9.859994500E0,6.814885258E-1,5.899287301E-1,-1.205744984E0,1.505411400E0
9.869993500E0,4.800985781E-1,-2.815716465E-1,-1.385135221E0,1.492774872E0
9.879991500E0,-9.680779604E-1,-1.531947843E-1,-1.459828139E0,1.758334944E0
9.889990500E0,-1.275477855E0,3.473358474E-2,-1.331886383E0,1.844443416E0
9.899989500E0,7.992358077E-2,4.781973559E-1,-1.370834101E0,1.454044918E0
9.909988500E0,1.073850437E0,9.963853546E-1,-1.153010116E0,1.864234659E0
9.919986500E0,8.981263308E-1,2.283524823E-1,-8.614813918E-1,1.265277025E0
9.929985500E0,1.050669187E-1,-6.214123318E-1,-1.034290588E0,1.211176851E0
9.939984500E0,-6.627916883E-1,2.285767961E-2,-1.392764668E0,1.542598041E0
9.949983500E0,-8.409918711E-1,5.577955757E-1,-1.415268847E0,1.738214354E0
9.959981500E0,5.777094015E-1,1.394453929E0,-9.160826916E-1,1.765632298E0
9.969980500E0,1.037039876E-1,-7.669763535E-1,-7.145519722E-1,1.053371618E0
9.979979500E0,8.219601343E-1,-2.788454187E-1,-3.024858212E-1,9.191685928E-1
9.989977500E0,2.659492202E-1,-1.478102204E-1,-2.936927783E-1,4.228856784E-1
9.999976500E0,-7.037917797E-1,2.426375225E-3,-8.180061740E-1,1.079102802E0
1.000997550E1,-6.966768146E-1,3.806029413E-1,-9.205300838E-1,1.215562758E0
1.001997450E1,7.257987991E-2,4.309745114E-3,-6.211339313E-1,6.253749063E-1
1.002997250E1,2.630014195E-1,-8.900646284E-2,-6.149797368E-1,6.747532688E-1
1.003997150E1,1.764714900E-1,-2.000951183E-1,-6.768163812E-1,7.275030289E-1
1.004997050E1,-3.284750868E-1,-1.855746729E-1,-5.707502282E-1,6.841707863E-1
1.005996850E1,-4.036831805E-1,-1.057614674E-1,-4.263824737E-1,5.966134529E-1
1.006996750E1,-5.508992234E-1,-5.706882477E-1,-4.628538966E-1,9.183728872E-1
1.007996650E1,-1.558727725E-1,-4.455329821E-1,-3.720384514E-1,6.010062967E-1
1.008996550E1,6.203483579E-1,-4.890806323E-1,3.468977630E-2,7.907182371E-1
1.009996350E1,6.837096637E-1,-5.232528934E-1,1.028835136E-1,8.670856429E-1
1.010996250E1,5.675471234E-1,-5.182365671E-1,-1.345444322E-3,7.685575366E-1
1.011996150E1,-6.767264072E-2,6.820015093E-2,-1.086582237E-1,1.450429470E-1
1.012996050E1,-1.020480122E0,-8.866553362E-2,-2.284694266E-1,1.049494896E0
1.013995850E1,-4.231426777E-1,-2.545167624E-1,1.983533424E-1,5.321396024E-1
1.014995750E1,1.460271212E-1,-1.471252283E-1,2.738929367E-1,3.434924944E-1
1.015995650E1,3.717836590E-1,-2.389629495E-1,2.725071466E-1,5.192172236E-1
1.016995450E1,1.906033332E-1,1.540099044E-1,3.034506118E-1,3.900396840E-1
1.017995350E1,3.523711954E-1,1.215579124E-1,3.367902660E-1,5.023638808E-1
1.018995250E1,-2.038293330E-1,-2.279877805E-2,3.743065864E-1,4.268156533E-1
1.019995150E1,-7.749022543E-2,2.548672299E-1,6.316916639E-1,6.855628331E-1
1.020994950E1,-3.120880092E-1,5.458969304E-1,7.059717679E-1,9.454091819E-1
1.021994850E1,-1.628214209E-1,4.829261820E-1,9.388090646E-1,1.068218598E0
1.022994750E1,7.614796785E-1,1.294224905E-1,1.659421676E0,1.830377497E0
1.023994650E1,5.907782574E-1,-3.090337892E-1,1.827003461E0,1.944855388E0
1.024994450E1,-2.189252175E-1,-1.609510976E-2,1.642343713E0,1.656949056E0
1.025994350E1,-1.308234688E0,3.174427065E-1,1.239506807E0,1.829924861E0
1.026994250E1,-7.699925666E-1,4.638544649E-1,1.282129501E0,1.565856179E0
1.027994050E1,2.757870509E-1,5.146045691E-1,1.548559052E0,1.654965709E0
1.028993950E1,7.478471875E-1,6.615866502E-1,1.679850093E0,1.954192582E0
1.029993850E1,6.827920163E-1,3.580357221E-1,1.698304490E0,1.865109289E0
1.030993800E1,-1.066798183E-1,9.179835300E-2,1.502392361E0,1.508969955E0
1.031993600E1,-7.850964363E-1,4.188302100E-2,1.376792999E0,1.585461940E0
1.032993500E1,-4.826372930E-1,2.925340064E-1,1.421214881E0,1.529171880E0
1.033993400E1,-1.707348598E-1,3.900175432E-1,1.396347842E0,1.459812102E0
1.034993300E1,6.325739356E-1,4.795224081E-1,1.863596506E0,2.025606937E0
1.035993100E1,6.959868432E-1,-7.535314120E-1,2.887312405E0,3.064111649E0
1.036993000E1,6.557810229E-1,8.693802492E-1,9.820293438E-1,1.466373895E0
1.037992900E1,-4.444037385E-1,4.654782732E-1,1.737120062E0,1.852498533E0
1.038992700E1,-1.221574055E0,-7.473541941E-1,7.920006824E-1,1.636473814E0
1.039992600E1,-9.538827480E-1,-7.772376323E-1,1.616004930E0,2.031123474E0
1.040992500E1,-5.194522033E-2,3.918993965E-1,1.855640200E0,1.897283319E0
1.041992400E1,8.607555331E-1,-1.222203361E0,1.665089967E0,2.237678650E0
1.042992200E1,1.572685102E0,-1.627126042E0,2.015950972E0,3.030665919E0
1.043992100E1,-4.558897166E-1,-1.203782366E-1,1.448506760E0,1.523318150E0
1.044992000E1,-2.255728805E-1,-9.199383456E-1,1.167625816E0,1.503502487E0
1.045991900E1,-1.222120258E0,-8.705733005E-2,7.330648416E-1,1.427774830E0
1.046991700E1,-1.200495866E-1,-4.728610408E-1,1.377544366E0,1.461382205E0
1.047991600E1,3.428696892E-1,4.805714717E-1,1.262686340E0,1.393874225E0
1.048991500E1,5.912761844E-1,-7.990867768E-1,1.224943732E0,1.577540602E0
1.049991300E1,1.010813652E-2,5.506581354E-1,1.298695832E0,1.410651418E0
1.050991200E1,-1.008421336E0,-1.683659700E-1,1.134726457E0,1.527371868E0
1.051991100E1,5.803079407E-1,2.167080630E-1,9.761897296E-1,1.156142759E0
1.052991000E1,2.703289674E-1,6.366774385E-1,1.439699099E0,1.597238056E0
1.053990800E1,-3.177645957E-1,-3.812849459E-1,2.292321959E0,2.345440793E0
1.054990700E1,4.288882980E-1,5.495526827E-1,9.235121638E-1,1.157077370E0
1.055990600E1,1.215148623E-1,8.887631113E-1,1.327500971E0,1.602162463E0
1.056990500E1,-8.785549691E-1,1.063512633E0,1.171252259E0,1.809626980E0
1.057990300E1,-1.115661720E-1,7.232250740E-1,9.312497842E-1,1.184368051E0
1.058990200E1,4.391427793E-1,-4.694098314E-1,1.954011417E0,2.057025179E0
1.059990100E1,9.229683727E-3,5.285891721E-1,2.028730647E0,2.096482706E0
1.060989900E1,7.349470603E-1,3.635294370E-1,1.925981035E0,2.093251963E0
1.061989800E1,1.495779891E-2,-9.616240413E-2,1.727320713E0,1.730060054E0
1.062989700E1,-1.927947015E0,5.248394988E-2,1.267183433E0,2.307701911E0
1.063989600E1,-2.155551565E-1,7.009246706E-1,1.522698571E0,1.690079986E0
1.064989400E1,7.983038346E-1,-3.665868730E-1,1.692787058E0,1.907145241E0
1.065989300E1,7.713745560E-1,3.780593294E-1,1.711594627E0,1.915072774E0
1.066989200E1,-2.104791521E-1,-5.289867096E-1,1.947384768E0,2.028900157E0
1.067989100E1,-9.937693103E-1,5.241862918E-1,9.502362782E-1,1.471495054E0
1.068988900E1,6.166203193E-2,-1.495263782E-1,1.802531109E0,1.809773120E0
1.069988800E1,5.421729484E-1,-1.050103140E0,2.770134788E0,3.011696341E0
1.070988700E1,2.365207320E-1,-6.838054850E-1,1.969800653E0,2.098486743E0
1.071988500E1,-3.327044876E-1,-6.367505469E-2,2.032713770E0,2.060745511E0
1.072988400E1,-5.313342936E-1,-4.177675882E-1,2.403699723E0,2.496921754E0
1.073988300E1,-4.046134360E-1,-6.435134914E-2,2.006812359E0,2.048206282E0
1.074988200E1,6.288904821E-1,-2.763247937E-2,2.867240083E0,2.935529336E0
1.075988000E1,9.147474799E-1,-8.510021581E-1,3.140368788E0,3.379775695E0
1.076987900E1,6.541525733E-1,1.826843211E-1,2.480470741E0,2.571774533E0
1.077987800E1,-1.145350263E0,-2.206323487E-1,2.525963248E0,2.782264579E0
1.078987600E1,-5.949534252E-1,6.345018357E-1,2.326384914E0,2.483672467E0
1.079987500E1,-1.629238568E-1,4.235236969E-2,2.637059176E0,2.642426726E0
1.080987400E1,-1.983119916E-1,4.126844940E-1,2.725559708E0,2.763749602E0
1.081987300E1,7.063389913E-2,6.109239984E-1,2.816155298E0,2.882524578E0
1.082987100E1,2.835806950E-1,3.280805460E-1,2.746894444E0,2.780914228E0
1.083987000E1,2.838479310E-1,7.675493807E-2,2.871203325E0,2.886220626E0
1.084986900E1,3.574950374E-1,-4.662302617E-1,3.842946832E0,3.887597422E0
1.085986800E1,-2.591047436E-5,8.212539368E-1,2.545980021E0,2.675158369E0
1.086986600E1,-9.723095173E-1,-3.820539279E-1,3.152197121E0,3.320797749E0
1.087986500E1,-8.717377735E-1,1.539074576E0,2.713263014E0,3.238900041E0
1.088986400E1,3.204526704E-1,-9.738721856E-1,3.102270670E0,3.267292496E0
1.089986200E1,5.274522541E-1,1.220743677E0,3.084458882E0,3.358914646E0
1.090986100E1,6.437705496E-1,-5.718185876E-1,3.347206441E0,3.456184019E0
1.091986000E1,1.121505647E-1,1.488681828E-1,2.734985420E0,2.741329009E0
1.092985900E1,-1.545611617E0,-7.117388950E-2,2.849453437E0,3.242432094E0
1.093985700E1,2.852995023E-1,-1.567435691E-1,2.929426391E0,2.947457096E0
1.094985600E1,3.463480517E-1,-6.620528926E-1,3.190842538E0,3.277155338E0
1.095985500E1,-4.406783678E-1,1.590858541E-1,3.312292716E0,3.345263632E0
1.096985400E1,4.161134109E-1,-4.600691967E-1,3.209729045E0,3.269124436E0
1.097985200E1,7.190167598E-1,-4.134703597E-1,3.396376846E0,3.496186283E0
1.098985100E1,-6.971451035E-1,6.734970631E-1,2.994272012E0,3.147264601E0
1.099985000E1,-7.023734645E-1,-2.212125935E-1,2.936866388E0,3.027779331E0
1.100984800E1,4.901444601E-1,3.132175268E-2,3.082403001E0,3.121286738E0
1.101984700E1,4.104070766E-1,-1.512445917E-1,3.527199526E0,3.554215158E0
1.102984600E1,-8.041913230E-2,-2.613136207E-1,3.091842746E0,3.103907796E0
1.103984500E1,-2.845713777E-1,-3.643721304E-1,2.664490803E0,2.704303822E0
1.104984300E1,-1.341604309E0,7.567438723E-1,2.155288952E0,2.649119453E0
1.105984200E1,5.836275147E-1,3.539884987E-1,3.119183156E0,3.192997416E0
1.106984100E1,1.711377257E0,-1.026332527E0,3.236844338E0,3.802542813E0
1.107984000E1,-6.115637934E-1,9.598243962E-1,2.294516419E0,2.561265067E0
1.108983800E1,-7.025876918E-1,6.450063586E-1,2.528165309E0,2.702088544E0
1.109983700E1,-2.998203497E-1,-5.842523993E-1,2.535812298E0,2.619463136E0
1.110983600E1,-5.193075578E-1,1.953029414E-1,2.688428135E0,2.745080949E0
1.111983400E1,4.558379687E-1,3.539009367E-1,2.934197134E0,2.990409160E0
1.112983300E1,4.260142453E-1,4.802833136E-1,2.418165150E0,2.501935828E0
1.113983200E1,-6.706233028E-1,1.098309925E-1,2.595304209E0,2.682797495E0
1.114983100E1,-2.215517868E-1,7.972051428E-1,2.700138354E0,2.824069469E0
1.115982900E1,-9.168995110E-2,-2.409984932E-1,1.947934991E0,1.964926983E0
1.116982800E1,1.235715838E-2,-7.704368819E-1,2.375771667E0,2.497602190E0
1.117982700E1,-5.091600074E-2,-1.195789771E-1,2.528035501E0,2.531374146E0
1.118982500E1,2.327299272E-1,-3.326877864E-1,1.856750586E0,1.900622824E0
1.119982400E1,4.979419414E-2,4.222440337E-1,1.818472958E0,1.867515297E0
1.120982300E1,-3.713079880E-1,6.342160530E-2,2.392135100E0,2.421611500E0
1.121982200E1,2.699969369E-1,-3.876495305E-1,1.880628276E0,1.939054722E0
1.122982000E1,5.216264538E-3,5.730712439E-1,1.139057490E0,1.275103849E0
1.123981900E1,-1.023193303E-1,3.094795297E-1,2.035629192E0,2.061560824E0
1.124981800E1,3.718183038E-1,-4.553831284E-1,1.754045997E0,1.849945947E0
1.125981700E1,2.641579622E-1,-3.613557712E-1,1.118747771E0,1.204970538E0
1.126981500E1,-4.009450756E-1,6.330274603E-1,1.274510579E0,1.478464722E0
1.127981400E1,-4.451758634E-1,-7.094137314E-1,1.277162291E0,1.527282852E0
1.128981300E1,4.087031979E-1,-2.578773399E-1,4.044554150E-1,6.301771252E-1
1.129981100E1,-3.198940055E-1,5.199505688E-1,7.488435531E-1,9.661508348E-1
1.130980950E1,5.792321261E-2,-3.961446212E-1,1.002116868E0,1.079131075E0
1.131980850E1,9.370383815E-1,-4.626839619E-1,1.349999303E-1,1.053727839E0
1.132980750E1,-4.236535782E-1,5.497835016E-1,3.480046409E-1,7.764351119E-1
1.133980550E1,-1.104757028E-1,-5.236571918E-1,4.252399278E-1,6.835574092E-1
1.134980450E1,2.097976773E-1,2.722276314E-1,-8.029601187E-1,8.734230938E-1
1.135980350E1,-9.999288404E-1,-4.097448428E-1,-2.117919981E-2,1.080831662E0
1.136980250E1,-7.209488992E-3,-7.729330583E-1,8.569386899E-2,7.777023393E-1
1.137980050E1,9.242064475E-1,-7.475679830E-2,-1.121487191E0,1.455156231E0
1.138979950E1,-5.137961916E-1,-1.640118592E-1,-5.342665261E-1,7.591621285E-1
1.139979850E1,-1.283870948E-1,5.144852859E-1,-6.049470842E-1,8.044497064E-1
1.140979650E1,5.619219558E-1,-8.548527689E-1,-1.230785100E0,1.600425414E0
1.141979550E1,-8.613856436E-1,1.051055140E0,-1.517257737E0,2.036853744E0
1.142979450E1,-6.824941007E-1,4.599927444E-1,-1.342687359E0,1.574865349E0
1.143979350E1,1.163691955E0,2.938298590E-1,-2.069139000E0,2.392039121E0
1.144979150E1,3.460840499E-1,2.404172982E-1,-1.821404752E0,1.869515958E0
1.145979050E1,-5.903537495E-1,-1.166557712E-1,-1.828299204E0,1.924786767E0
1.146978950E1,-3.684671548E-1,-5.449872133E-1,-2.998981944E0,3.070288555E0
1.147978850E1,4.199484900E-1,2.735148411E-1,-2.614660832E0,2.662258133E0
1.148978650E1,2.167209999E-1,7.863485444E-1,-2.476207536E0,2.607089524E0
1.149978550E1,-2.387568351E-1,1.029872651E0,-3.636254191E0,3.786817535E0
1.150978450E1,3.999343479E-1,-2.101636582E-1,-3.264685271E0,3.295798259E0
1.151978250E1,-3.313509668E-1,-8.499055128E-1,-3.390230253E0,3.510811019E0
1.152978150E1,3.131416409E-1,4.180919259E-1,-4.021658208E0,4.055439962E0
1.153978050E1,5.015045037E-1,1.652888180E-1,-3.933690357E0,3.968973039E0
1.154977950E1,1.419230701E-1,1.430252886E-1,-4.074587204E0,4.079566064E0
1.155977750E1,1.007360323E-1,-1.266336976E-1,-4.591237239E0,4.594087855E0
1.156977650E1,-5.084031949E-1,9.039076922E-1,-5.313172490E0,5.413439280E0
1.157977550E1,-4.680408885E-1,-6.645880991E-1,-5.114687585E0,5.178877167E0
1.158977450E1,5.261278597E-1,1.208356351E-2,-5.245932434E0,5.272263616E0
1.159977250E1,4.557542805E-1,-7.715434675E-1,-5.629121525E0,5.700000038E0
1.160977150E1,-1.679206680E-1,-2.133722813E-1,-5.692932774E0,5.699404237E0
1.161977050E1,7.277501246E-2,-5.074628530E-1,-5.706871952E0,5.729851850E0
1.162976850E1,7.961177069E-1,-3.094157585E-1,-5.752527012E0,5.815591847E0
1.163976750E1,-7.826057782E-2,-6.319170009E-1,-5.514560537E0,5.551200026E0
1.164976650E1,-4.439825197E-1,-2.479110715E-1,-5.698112238E0,5.720757245E0
1.165976550E1,-2.096683625E-3,-7.628281926E-1,-5.590480785E0,5.642285588E0
1.166976350E1,-3.632668605E-2,-7.205255608E-1,-5.156854196E0,5.207074218E0
1.167976250E1,-4.781485682E-2,-2.856759533E-2,-5.191613554E0,5.191912332E0
1.168976150E1,2.250056092E-2,-5.867700642E-1,-5.280709918E0,5.313257252E0
1.169976050E1,-1.198547281E-1,-2.842454320E-1,-4.943514440E0,4.953129883E0
1.170975850E1,7.067821920E-5,-3.084948220E-1,-4.744491591E0,4.754510440E0
1.171975750E1,2.110078134E-1,-2.643676031E-1,-4.699938732E0,4.712094928E0
1.172975650E1,7.745865047E-2,-1.453058123E-1,-4.208871435E0,4.212091212E0
1.173975450E1,4.006755555E-1,9.904211216E-2,-3.810613484E0,3.832900385E0
1.174975350E1,2.487820143E-1,-1.123577754E-1,-3.460108573E0,3.470859850E0
1.175975250E1,-1.814328159E-1,6.206841342E-2,-3.112196903E0,3.118098767E0
1.176975150E1,-2.894119587E-1,2.130161127E-1,-2.788242445E0,2.811304160E0
1.177974950E1,-6.537068328E-3,-1.967958634E-1,-2.433266169E0,2.441220103E0
1.178974850E1,5.928849361E-1,2.739171296E-1,-1.965248596E0,2.070928581E0
1.179974750E1,9.027612177E-2,1.833084565E-1,-1.644036482E0,1.656685765E0
1.180974550E1,1.142461337E-1,-9.776549139E-2,-1.429530791E0,1.437417320E0
1.181974450E1,-1.604197684E-1,-1.640387198E-1,-1.173973553E0,1.196184395E0
1.182974350E1,-4.457500965E-1,-3.014062060E-1,-9.575061214E-1,1.098342762E0
1.183974250E1,-2.814648800E-1,5.927698191E-1,-1.133381597E0,1.309638264E0
1.184974050E1,1.096886493E-1,2.198321024E-1,-7.621471381E-1,8.007658916E-1
1.185973950E1,5.001049726E-1,7.135184768E-1,-6.881938934E-1,1.110326274E0
1.186973850E1,9.479720718E-2,2.284876261E-1,-6.727858955E-1,7.168221306E-1
1.187973750E1,-4.615483595E-1,4.783448154E-1,-8.155111670E-1,1.052092731E0
1.188973550E1,-6.550740214E-1,-4.448205354E-3,-5.883047390E-1,8.804795432E-1
1.189973450E1,2.679651574E-1,-4.166597601E-1,-2.453298730E-1,5.528086720E-1
1.190973350E1,4.586820179E-1,-1.464447037E-2,-2.663494438E-1,5.306087827E-1
1.191973150E1,2.716067667E-1,1.408958331E-1,-2.914106101E-1,4.225423236E-1
1.192973050E1,-5.382680864E-2,3.085679122E-1,-5.496973282E-1,6.326757735E-1
1.193972950E1,-1.510903074E-1,1.236680446E-1,-5.529629982E-1,5.864214726E-1
1.194972850E1,-5.715768783E-1,1.771054013E-2,-6.098143065E-1,8.359947843E-1
1.195972650E1,2.691669612E-1,-2.326250793E-1,-4.621960849E-1,5.832585202E-1
1.196972550E1,1.834587665E-1,3.071487565E-3,-5.695059407E-1,5.983339950E-1
1.197972450E1,2.763884187E-1,1.896706657E-1,-6.381849968E-1,7.208644877E-1
1.198972350E1,2.931439441E-1,-4.342819159E-1,-7.233198720E-1,8.931549651E-1
1.199972150E1,2.239599077E-1,-3.077353053E-2,-9.102372301E-1,9.378895806E-1
1.200972050E1,-1.346861175E-1,-4.453323495E-1,-1.057470120E0,1.155294035E0
1.201971950E1,-1.415579846E-2,-2.125407524E-1,-1.482254550E0,1.497482056E0
1.202971750E1,-6.579636423E-1,-4.183665989E-1,-1.529988880E0,1.717210743E0
1.203971650E1,-1.278934436E-1,-1.179343015E-1,-1.784445087E0,1.792905324E0
1.204971550E1,8.487748805E-2,-4.053163444E-1,-1.875435948E0,1.920610716E0
1.205971450E1,1.000104293E-1,-1.280161621E-1,-2.043652157E0,2.050098622E0
1.206971250E1,1.543521310E-1,-1.633718997E-1,-2.131786653E0,2.143601944E0
1.207971150E1,1.129386597E-1,-1.912296430E-1,-2.430525579E0,2.440651246E0
1.208971050E1,-1.744243981E-1,-1.821053919E-1,-2.624205242E0,2.636292737E0
1.209970850E1,-2.755761856E-1,2.676106517E-1,-2.760749422E0,2.787345523E0
1.210970750E1,-1.429669260E-1,-1.181724111E-1,-2.777045612E0,2.783233118E0
1.211970650E1,3.784598637E-1,-4.898199761E-1,-2.630453576E0,2.702302998E0
1.212970550E1,-9.723629097E-2,-1.903610392E-1,-2.664555708E0,2.673116036E0
1.213970350E1,-1.873431815E-1,-1.033469694E-1,-2.867069344E0,2.875041684E0
1.214970250E1,7.396764345E-2,2.576131737E-1,-2.855849707E0,2.868399084E0
1.215970150E1,2.359575172E-1,1.448307991E-1,-2.549437480E0,2.564426520E0
1.216970050E1,5.613468821E-1,-1.584817271E-1,-2.464533570E0,2.532617716E0
1.217969850E1,2.717920869E-1,7.857201515E-2,-2.402418598E0,2.419020384E0
1.218969750E1,-1.765932948E-1,2.136461502E-1,-2.495693967E0,2.511039276E0
1.219969650E1,1.312273615E-1,-5.115700652E-2,-2.303661464E0,2.307963129E0
1.220969450E1,2.532007003E-2,4.638841943E-2,-2.190085732E0,2.190723284E0
1.221969350E1,-2.425320351E-1,1.359388835E-1,-2.169335718E0,2.187079931E0
1.222969250E1,3.952615455E-2,5.662405265E-2,-1.962814400E0,1.964028760E0
1.223969150E1,1.958863656E-1,4.376071726E-2,-1.887859527E0,1.898499424E0
1.224968950E1,1.333293259E-1,3.448808025E-1,-1.881336958E0,1.917328409E0
1.225968850E1,-3.070490614E-1,2.022759288E-2,-1.963595003E0,1.987559715E0
1.226968750E1,-1.128981495E-1,8.679218623E-2,-1.935085149E0,1.940317863E0
1.227968550E1,2.288136084E-2,4.665761062E-2,-1.682325804E0,1.683128219E0
1.228968450E1,7.831354994E-2,-6.367366598E-2,-1.471161797E0,1.474620080E0
1.229968350E1,1.010290326E-1,-2.748251656E-1,-1.288269078E0,1.321125639E0
1.230968262E1,-2.614768859E-2,-6.946356065E-2,-1.233805772E0,1.236036234E0
1.231968062E1,-1.450480780E-1,-9.715948231E-2,-1.168561955E0,1.181531190E0
1.232967962E1,-1.254345798E-1,-1.275437253E-1,-1.200304735E0,1.213561985E0
1.233967862E1,-1.045580374E-1,-2.937083100E-1,-1.100308576E0,1.143624028E0
1.234967762E1,-5.773982017E-2,-2.015300616E-1,-9.977542609E-1,1.019540003E0
1.235967562E1,1.092552153E-1,-1.124818825E-1,-8.996683878E-1,9.132316705E-1
1.236967462E1,2.705311166E-1,-2.031245059E-1,-7.126545507E-1,7.888746152E-1
1.237967362E1,1.444855210E-1,-9.458483448E-2,-5.900208968E-1,6.147739547E-1
1.238967162E1,-2.274217152E-1,6.368246421E-2,-6.465862763E-1,6.883675657E-1
1.239967062E1,-3.092048568E-1,-2.151567967E-1,-4.873215705E-1,6.159402598E-1
1.240966962E1,-5.334023076E-1,-3.785780505E-1,-2.906574887E-1,7.157661195E-1
1.241966862E1,-7.137022804E-2,-3.436207641E-2,-2.856166041E-1,2.963972103E-1
1.242966662E1,9.142983223E-2,9.285321811E-2,-2.433178461E-1,2.760157759E-1
1.243966562E1,3.421961631E-1,3.388161801E-2,6.497835338E-2,3.499548035E-1
1.244966462E1,3.771019940E-1,8.921889950E-2,1.099913889E-1,4.028200982E-1
1.245966362E1,4.922407965E-1,5.491692150E-2,1.123443085E-1,5.078760810E-1
1.246966162E1,1.713606946E-1,1.332761437E-1,3.255893397E-1,3.913252308E-1
1.247966062E1,-6.405664216E-1,-9.090924731E-2,3.526373899E-1,7.368466329E-1
1.248965962E1,1.212442641E-1,-2.167905635E-1,6.532193577E-1,6.988518078E-1
1.249965762E1,2.620478117E-2,-3.176669472E-1,1.094839091E0,1.140294530E0
1.250965662E1,-7.702259436E-2,3.514659916E-2,1.178269503E0,1.181307235E0
1.251965562E1,-3.747436658E-1,-1.119888891E-2,8.807304257E-1,9.572065153E-1
1.252965462E1,-3.317796956E-2,2.352584277E-1,1.006335635E0,1.034001313E0
1.253965262E1,3.842958234E-2,3.485288438E-1,1.132404528E0,1.185448945E0
1.254965162E1,2.140125331E-1,3.215787345E-1,8.472428370E-1,9.311469656E-1
1.255965062E1,3.193493739E-1,3.865820482E-1,8.947011781E-1,1.025631464E0
1.256964962E1,-1.030610771E-1,1.550863220E-1,1.259492590E0,1.273182995E0
1.257964762E1,-1.036414132E-1,2.409695494E-1,1.162169779E0,1.191405246E0
1.258964662E1,-8.731337414E-2,3.107893791E-1,1.177104152E0,1.220568658E0
1.259964562E1,-5.247413753E-1,1.516658105E-3,1.617904691E0,1.700873716E0
1.260964362E1,1.037832904E-1,1.895425751E-1,1.513440675E0,1.528790383E0
1.261964262E1,3.031416230E-1,-1.113496514E-1,1.451818623E0,1.487303231E0
1.262964162E1,-4.020035679E-1,3.367150197E-2,1.741790818E0,1.787897059E0
1.263964062E1,-4.340266849E-1,1.332244050E-1,1.550800874E0,1.615893331E0
1.264963862E1,8.107957531E-2,-4.045033439E-2,1.431984867E0,1.434848699E0
1.265963762E1,2.361528507E-1,2.929793632E-1,1.908923537E0,1.945660337E0
1.266963662E1,3.090523906E-1,-4.486898390E-2,2.015418291E0,2.039469905E0
1.267963462E1,4.742165350E-1,-4.049770597E-1,1.677724046E0,1.789873100E0
1.268963362E1,-1.358542267E-1,-2.172749505E-1,2.000099756E0,2.016448315E0
1.269963262E1,-6.556565138E-2,8.717951493E-1,1.574372755E0,1.800826257E0
1.270963162E1,-4.467974424E-1,-9.322451996E-1,1.469455580E0,1.796666014E0
1.271962962E1,-9.665890400E-1,1.527007494E-1,9.307931167E-1,1.350550894E0
1.272962862E1,8.630683992E-2,3.790107627E-2,1.643207347E0,1.645908791E0
1.273962762E1,8.607326558E-1,-1.077945900E-1,1.926614288E0,2.112894459E0
1.274962662E1,8.255293478E-1,-7.006917322E-1,2.271963124E0,2.516800358E0
1.275962462E1,-7.012708258E-2,-2.392957291E-1,1.424743091E0,1.446400058E0
1.276962362E1,-8.236890829E-1,2.389535574E-1,1.443858224E0,1.679371632E0
1.277962262E1,-1.184760460E-1,-6.202102905E-1,1.786027343E0,1.894357688E0
1.278962062E1,1.543855149E-1,5.173239081E-2,1.734385904E0,1.742011938E0
1.279961962E1,-1.021667911E-1,-2.684679448E-1,1.971069499E0,1.991890575E0
1.280961862E1,1.287068461E-1,-1.314315299E-1,1.915242038E0,1.924056071E0
1.281961762E1,-3.698240012E-1,2.677968855E-1,1.521991058E0,1.589006527E0
1.282961562E1,-6.356485478E-1,-9.790312937E-2,1.631364981E0,1.753563743E0
1.283961462E1,1.701490602E-1,2.887157015E-1,1.801815410E0,1.832715535E0
1.284961362E1,2.100592306E-1,1.618238128E-1,1.519171531E0,1.542139412E0
1.285961162E1,2.669999465E-2,2.772370872E-1,1.580229911E0,1.604587132E0
1.286961062E1,3.068449936E-1,2.669581572E-1,1.744709748E0,1.791488937E0
1.287960962E1,4.874001425E-2,3.968086091E-1,1.421940520E0,1.477073967E0
1.288960862E1,-2.609354337E-1,-1.785566071E-3,1.554413284E0,1.576163426E0
1.289960662E1,3.729343180E-2,3.949928659E-1,1.781453066E0,1.825098680E0
1.290960562E1,-2.314114532E-1,3.078950074E-1,1.355540124E0,1.409198220E0
1.291960462E1,2.768481012E-1,5.602419776E-1,1.452858843E0,1.581554539E0
1.292960362E1,1.843078371E-1,-4.568577962E-1,2.125601469E0,2.181941802E0
1.293960162E1,1.729824199E-1,8.572567785E-1,1.182128080E0,1.470455338E0
1.294960062E1,-2.177522478E-1,4.912103344E-2,1.221024343E0,1.241261199E0
1.295959962E1,-3.813893918E-1,2.526517747E-1,1.262019172E0,1.342379670E0
1.296959762E1,-3.241284860E-1,-2.532629732E-1,1.333416599E0,1.395421526E0
1.297959662E1,-5.131205823E-3,1.005363773E-1,1.392367643E0,1.396001986E0
1.298959562E1,-1.941511678E-1,-4.508054347E-2,1.567790544E0,1.580409479E0
1.299959462E1,-3.279812164E-1,-5.482139992E-1,1.777944737E0,1.889232054E0
1.300959262E1,1.866662201E-1,-3.499260360E-1,1.748471847E0,1.792887701E0
1.301959162E1,-2.704790398E-2,-3.287173808E-1,1.826633917E0,1.856172991E0
1.302959062E1,2.073597356E-1,-1.544583311E-1,1.971447814E0,1.988331441E0
1.303958962E1,5.014254201E-1,-4.998798183E-1,1.958076986E0,2.082155798E0
1.304958762E1,2.781291714E-1,1.004437080E-1,1.837006878E0,1.860655541E0
1.305958662E1,-7.084694061E-1,1.252543577E-1,1.579527075E0,1.735662218E0
1.306958562E1,-4.626884935E-1,-1.856262928E-1,1.940964525E0,2.003966329E0
1.307958362E1,4.629875786E-1,2.866340927E-1,2.000977423E0,2.073747151E0
1.308958262E1,8.473010167E-2,-1.667383062E-1,2.256173303E0,2.263912283E0
1.309958162E1,-6.936054915E-2,1.670003894E-1,2.308830403E0,2.315901087E0
1.310958062E1,-9.289805895E-2,2.815755934E-1,2.229148057E0,2.248780986E0
1.311957862E1,-1.664800603E-1,5.008888650E-1,2.410960795E0,2.468063456E0
1.312957762E1,-2.008482032E-3,2.887098908E-1,2.422441803E0,2.439586384E0
1.313957662E1,8.514468754E-3,-7.870498449E-2,2.450859856E0,2.452138048E0
1.314957462E1,1.289740091E-1,1.283705582E-1,2.457926801E0,2.464653617E0
1.315957362E1,3.625653774E-2,-1.551201811E-1,2.535521691E0,2.540521020E0
1.316957262E1,-1.434878033E-1,1.654731332E-1,2.411194099E0,2.421121040E0
1.317957162E1,-2.612739692E-1,8.363242398E-2,2.573802828E0,2.588381630E0
1.318956962E1,-2.848688731E-1,2.877524458E-1,2.635822490E0,2.666741822E0
1.319956862E1,-7.237162767E-2,2.324292707E-1,2.757414170E0,2.768139072E0
1.320956762E1,1.396042471E-1,2.644854976E-1,2.887850348E0,2.903294949E0
1.321956662E1,7.310806621E-2,-9.060094373E-2,2.982365912E0,2.984637290E0
1.322956462E1,-1.096189944E-1,2.105094845E-1,2.877764486E0,2.887535109E0
1.323956362E1,-4.849273915E-1,1.220128806E-1,2.728768076E0,2.774205639E0
1.324956262E1,-3.425358863E-1,5.256694380E-2,2.678583763E0,2.700908197E0
1.325956063E1,5.017764358E-1,-6.545487405E-2,2.980217060E0,3.022872418E0
1.326955962E1,5.429676946E-1,-2.604806483E-1,2.890285714E0,2.952357633E0
1.327955862E1,5.670775920E-2,-3.374348850E-1,2.826101412E0,2.846739760E0
1.328955762E1,-3.223662083E-1,-1.834284524E-1,2.589721872E0,2.616147042E0
1.329955563E1,-4.081327655E-1,-4.659800556E-2,2.550790526E0,2.583655556E0
1.330955462E1,1.047875132E-1,-3.913773863E-1,2.842559570E0,2.871289186E0
1.331955367E1,3.546918091E-1,-1.220648842E-1,2.893203474E0,2.917418801E0
1.332955167E1,8.226983087E-2,1.906711243E-2,2.997718361E0,2.998907676E0
1.333955067E1,-2.914516868E-1,5.330804184E-2,3.042184682E0,3.056578720E0
1.334954967E1,-4.108663023E-1,8.746263346E-2,3.014159562E0,3.043290768E0
1.335954867E1,-6.586896472E-1,1.473973065E-1,3.030260455E0,3.104525156E0
1.336954667E1,-2.578731007E-1,1.058718428E-1,3.259071359E0,3.270971340E0
1.337954567E1,2.878135675E-1,-1.170338485E-2,3.334683459E0,3.347101341E0
1.338954467E1,4.929441800E-1,-3.781267551E-1,3.363645303E0,3.420538485E0
1.339954367E1,3.110580587E-1,3.128073994E-1,3.246397519E0,3.276232964E0
1.340954167E1,-2.173807121E-1,-1.234243071E-2,3.076109058E0,3.083805059E0
1.341954067E1,-4.045724324E-1,1.048064508E0,2.728520738E0,2.950753037E0
1.342953967E1,-6.377967417E-1,-3.198545368E-1,2.930122209E0,3.015743320E0
1.343953767E1,1.287698133E-1,7.770481094E-1,2.759767674E0,2.869965687E0
1.344953667E1,6.103656989E-1,1.333968978E-1,3.047962900E0,3.111337150E0
1.345953567E1,7.850522167E-1,2.428625855E-1,3.108642966E0,3.215423814E0
1.346953467E1,-3.021856581E-1,-1.496095275E-1,2.743060425E0,2.763707596E0
1.347953267E1,-1.294477359E0,6.251177855E-1,1.901915649E0,2.384056840E0
1.348953167E1,-2.556333430E-1,8.216852786E-2,2.662600983E0,2.676106139E0
1.349953067E1,7.420380519E-1,-2.292598057E-1,2.782438499E0,2.888796381E0
1.350952967E1,3.444088226E-1,-4.988988017E-1,2.816214940E0,2.880726304E0
1.351952767E1,2.822829603E-1,2.757691803E-1,2.416678787E0,2.448687132E0
1.352952667E1,-1.476991033E0,2.446737606E-1,1.524738080E0,2.136865455E0
1.353952567E1,-5.747549131E-1,-2.372122200E-2,2.216653726E0,2.290078524E0
1.354952367E1,3.407125052E-1,-4.629142326E-1,2.125478092E0,2.201824634E0
1.355952267E1,8.118858933E-1,-5.143776606E-1,2.193542022E0,2.394863186E0
1.356952167E1,6.198981953E-1,-8.500535935E-3,2.094550999E0,2.184374034E0
1.357952067E1,-8.143852126E-1,-2.060785193E-1,1.369147180E0,1.606317413E0
1.358951867E1,-7.469899126E-1,2.592093174E-1,1.025988711E0,1.295313180E0
1.359951767E1,1.970280162E-1,-1.394875221E-2,1.533725250E0,1.546391849E0
1.360951667E1,1.062711199E0,-5.925112990E-1,1.743236250E0,2.125863908E0
1.361951467E1,6.197596894E-1,-1.563189699E-1,1.211890408E0,1.370115343E0
1.362951367E1,-1.239282567E0,2.117170076E-1,4.366250414E-1,1.330896990E0
1.363951267E1,-3.170581059E-1,5.786568149E-2,7.164938325E-1,7.856447617E-1
1.364951167E1,1.970322189E-1,1.438231685E-1,5.656245589E-1,6.159853413E-1
1.365950967E1,8.209653036E-1,-3.784489001E-1,9.125223219E-1,1.284486118E0
1.366950867E1,1.200266911E-1,1.651278916E-1,3.720337737E-1,4.243615863E-1
1.367950767E1,-5.270672515E-1,1.934739140E-1,-1.290234911E-1,5.760894933E-1
1.368950667E1,-8.152515507E-1,1.923228166E-1,-2.283238310E-1,8.681906060E-1
1.369950467E1,6.166934095E-1,2.901254104E-2,1.718023056E-1,6.408342384E-1
1.370950367E1,5.431779386E-1,-3.090893377E-1,-1.793200707E-1,6.501801130E-1
1.371950267E1,-2.633339616E-1,1.470989615E-1,-5.150952601E-1,5.969137348E-1
1.372950067E1,-1.049546778E0,2.422401677E-1,-8.376177353E-1,1.364489724E0
1.373949967E1,1.390699395E-1,-3.253379095E-1,-6.105487168E-1,7.056592230E-1
1.374949867E1,9.984207704E-1,-6.759556711E-1,-3.682822001E-1,1.260710864E0
1.375949767E1,1.168465366E-1,5.294541397E-2,-7.790327275E-1,7.895241101E-1
1.376949567E1,-1.085967841E0,4.032903573E-1,-1.423674220E0,1.835433886E0
1.377949467E1,-1.182250177E-1,-6.627736716E-2,-1.058474672E0,1.067116899E0
1.378949367E1,5.361719875E-1,-2.220834997E-1,-7.437190533E-1,9.433554533E-1
1.379949167E1,1.509871498E-1,5.124898139E-1,-1.286689160E0,1.393202040E0
1.380949067E1,-2.342929611E-1,2.555345434E-1,-1.521643733E0,1.560637929E0
1.381948967E1,-5.207685211E-1,8.767662328E-1,-2.078773457E0,2.315430406E0
1.382948867E1,1.466132132E-1,-4.591281239E-1,-1.710697079E0,1.777295295E0
1.383948667E1,1.360738153E0,-4.716257251E-2,-1.569790292E0,2.077997639E0
1.384948567E1,3.105490951E-2,-3.478965040E-1,-2.338533674E0,2.364473753E0
1.385948467E1,-4.346964104E-1,9.922716740E-2,-2.425171868E0,2.465819456E0
1.386948267E1,-4.714071671E-1,2.777898867E-1,-2.542256514E0,2.600473058E0
1.387948167E1,-4.659061432E-1,1.841365867E-2,-2.973210341E0,3.009549357E0
1.388948067E1,8.150790578E-1,4.023476399E-1,-2.622906575E0,2.775946036E0
1.389947967E1,2.988914647E-1,-3.215611929E-1,-2.841255641E0,2.874973274E0
1.390947767E1,9.981982838E-2,1.656091358E-1,-3.384408181E0,3.389927598E0
1.391947667E1,1.978893659E-1,-1.296347993E-1,-3.238109091E0,3.246739267E0
1.392947567E1,-4.685387789E-1,3.233954279E-1,-3.778057941E0,3.820711321E0
1.393947467E1,-7.446714185E-1,-3.067102153E-2,-4.152048778E0,4.218410280E0
1.394947267E1,8.331662865E-2,3.413856659E-1,-3.994602556E0,4.010029353E0
1.395947167E1,4.143649106E-1,-8.884267502E-1,-4.049955223E0,4.166909848E0
1.396947067E1,5.644900529E-1,-5.023703850E-2,-4.412423537E0,4.448668817E0
1.397946867E1,3.243517765E-1,-1.966859358E-1,-4.556965538E0,4.572726140E0
1.398946767E1,-7.312011878E-1,-2.051567971E-1,-5.222338918E0,5.277269016E0
1.399946667E1,-7.561300609E-1,-3.342773520E-1,-5.568614538E0,5.629648469E0
1.400946567E1,2.778440465E-1,-2.513045579E-2,-5.137670651E0,5.145239409E0
1.401946367E1,1.026167417E0,-7.937375978E-1,-5.129668152E0,5.291175133E0
1.402946267E1,5.229572436E-1,-2.549838453E-1,-5.466587057E0,5.497460785E0
1.403946167E1,-8.153205478E-1,-1.757364219E-1,-5.707208167E0,5.767829396E0
1.404946067E1,-3.310059080E-1,-9.691202631E-2,-5.698116331E0,5.708545049E0
1.405945867E1,7.117092752E-1,-6.972240409E-1,-5.240321445E0,5.334193501E0
1.406945767E1,3.915441050E-1,-7.735619263E-1,-5.074879156E0,5.148407840E0
1.407945667E1,2.799891707E-2,3.210248205E-1,-5.377134013E0,5.386781141E0
1.408945467E1,-2.876553455E-1,-9.926609706E-2,-5.423579031E0,5.432109062E0
1.409945367E1,1.540448781E-1,-3.454309890E-1,-4.835180737E0,4.849951046E0
1.410945267E1,5.021180228E-1,-1.753204108E-1,-4.553484106E0,4.584438598E0
1.411945167E1,-7.240937876E-2,-1.604314080E-1,-4.635702390E0,4.639042790E0
1.412944967E1,-2.979109963E-1,3.586722281E-2,-4.171874932E0,4.182652014E0
1.413944867E1,2.993558798E-2,-1.273954527E-1,-3.827349384E0,3.829586016E0
1.414944767E1,6.794811767E-2,1.140826035E-1,-3.627582770E0,3.630012196E0
1.415944567E1,-6.042934751E-2,-4.514262445E-2,-3.204330311E0,3.205217981E0
1.416944467E1,2.901981351E-1,-2.181057120E-2,-2.856640250E0,2.871425461E0
1.417944367E1,3.436203256E-1,1.117106896E-2,-2.556089857E0,2.579107419E0
1.418944267E1,-5.507039264E-2,7.938681551E-2,-2.276934426E0,2.278983413E0
1.419944067E1,6.174378332E-2,-2.005132491E-1,-1.975761305E0,1.986869546E0
1.420943967E1,-2.045216798E-1,1.764704302E-1,-1.835376674E0,1.855149176E0
1.421943867E1,-2.661068026E-1,7.630113018E-2,-1.727176287E0,1.749220575E0
1.422943767E1,-2.945735883E-2,1.150542737E-1,-1.516726225E0,1.521369010E0
1.423943567E1,2.429583337E-1,9.822236907E-2,-1.377657802E0,1.402361368E0
1.424943467E1,1.295013914E-2,3.847305274E-2,-1.287849247E0,1.288488869E0
1.425943367E1,-2.390677791E-1,2.068845397E-1,-1.256875377E0,1.296028676E0
1.426943167E1,-3.832233162E-2,4.743461422E-2,-1.136687613E0,1.138322175E0
1.427943067E1,-1.931899952E-1,5.345272388E-2,-1.030875814E0,1.050183085E0
1.428942967E1,7.888716180E-4,2.037999142E-1,-9.111359471E-1,9.336507599E-1
1.429942867E1,1.264769465E-1,-8.959890456E-2,-7.297032773E-1,7.459834145E-1
1.430942667E1,1.590255912E-1,4.737528325E-2,-6.662235653E-1,6.865765763E-1
1.431942542E1,-1.738759292E-1,-3.322271903E-2,-6.922647250E-1,7.145397381E-1
1.432942442E1,-2.255297024E-1,-9.742385868E-2,-8.066327548E-1,8.432149524E-1
1.433942242E1,-9.383354036E-2,-5.296298303E-4,-7.328338766E-1,7.388169628E-1
1.434942142E1,7.869628675E-2,-2.146014574E-1,-7.608157271E-1,7.944101344E-1
1.435942042E1,1.435882567E-1,-1.072998242E-1,-8.720057952E-1,8.902387021E-1
1.436941942E1,3.215202989E-1,-2.092903035E-2,-9.180637282E-1,9.729616313E-1
1.437941742E1,1.803148466E-1,-2.733113580E-1,-9.551280588E-1,1.009694088E0
1.438941642E1,1.718823028E-1,3.281823789E-2,-1.302211763E0,1.313916298E0
1.439941542E1,-2.353495712E-1,-1.416386945E-1,-1.558455464E0,1.582477290E0
1.440941442E1,-2.856447804E-1,-1.088097032E-1,-1.754688022E0,1.781112727E0
1.441941242E1,8.938386407E-2,-1.259639356E-1,-1.920531430E0,1.926732301E0
1.442941142E1,3.229981096E-1,-4.491036208E-2,-2.065572783E0,2.091156532E0
1.443941042E1,1.663849882E-2,4.609674387E-2,-2.131900674E0,2.132463888E0
1.444940842E1,-6.330943926E-2,4.464254133E-2,-2.299884748E0,2.301189018E0
1.445940742E1,-2.587880803E-1,-2.128798361E-1,-2.390493786E0,2.413866118E0
1.446940642E1,-1.025727158E-1,-7.793347179E-2,-2.381564503E0,2.385045968E0
1.447940542E1,1.838177673E-1,-3.443665582E-2,-2.495531999E0,2.502529683E0
1.448940342E1,1.474510461E-1,-6.475261431E-3,-2.635699698E0,2.639828904E0
1.449940242E1,-2.012746114E-1,2.174887394E-2,-2.522460181E0,2.530571052E0
1.450940142E1,-8.344716774E-2,-2.079481117E-1,-2.513975871E0,2.523941467E0
1.451939942E1,2.140279369E-1,-3.898856520E-1,-2.398446000E0,2.439336384E0
1.452939842E1,1.625183889E-1,1.183902929E-1,-2.220476051E0,2.229561029E0
1.453939742E1,2.393969773E-1,-3.399150181E-1,-2.176732446E0,2.216081513E0
1.454939642E1,4.118471727E-1,-2.251974709E-2,-2.282959982E0,2.319920583E0
1.455939442E1,-5.697275684E-2,-2.209366780E-2,-2.182342849E0,2.183198190E0
1.456939342E1,-5.783428377E-1,-2.461183700E-1,-2.274981456E0,2.360210863E0
1.457939242E1,-1.638643083E-1,1.313823036E-1,-2.328871735E0,2.338323412E0
1.458939042E1,-1.023293803E-1,1.046236267E-1,-1.963796148E0,1.969241660E0
1.459938942E1,7.155371184E-2,-2.673770919E-2,-1.915289986E0,1.916812606E0
1.460938842E1,3.056689906E-1,1.480807364E-2,-1.769484401E0,1.795752727E0
1.461938742E1,-8.939764157E-2,6.916118651E-2,-1.519058679E0,1.523257851E0
1.462938542E1,-1.865983924E-1,3.039178044E-2,-1.432546785E0,1.444968135E0
1.463938442E1,-1.647876933E-2,1.810107018E-2,-1.463683793E0,1.463888467E0
1.464938342E1,-2.475340540E-1,-2.597633776E-2,-1.191259677E0,1.216982948E0
1.465938242E1,1.437994508E-1,1.006097689E-1,-9.987535501E-1,1.014055847E0
1.466938042E1,1.085762165E-2,-1.210147700E-1,-9.089075732E-1,9.169926058E-1
1.467937942E1,7.870595293E-2,-1.408089380E-1,-6.521487325E-1,6.718033592E-1
1.468937842E1,-7.438909980E-2,2.110698670E-3,-4.772813165E-1,4.830482878E-1
1.469937642E1,2.330170255E-3,2.854622559E-2,-5.513234389E-1,5.520668899E-1
1.470937542E1,1.339411640E-1,-1.173571539E-1,-3.628109604E-1,4.041592879E-1
1.471937442E1,2.815412410E-2,1.815389794E-1,-2.808803594E-1,3.356230506E-1
1.472937342E1,8.807586020E-2,-1.684667614E-1,-1.987766808E-1,2.750464973E-1
1.473937142E1,2.271993566E-1,3.048371877E-2,-1.520124042E-1,2.750574045E-1
1.474937042E1,-2.448311786E-1,2.227534444E-1,-4.257182300E-2,3.337270788E-1
1.475936942E1,-2.497833499E-1,-8.803156754E-3,1.394578475E-1,2.862126984E-1
1.476936742E1,-1.732329731E-1,-1.455892652E-1,2.693747932E-1,3.518077263E-1
1.477936642E1,-7.646800423E-2,3.047890760E-1,4.292265594E-1,5.319578704E-1
1.478936542E1,2.210657370E-1,-1.249226926E-1,7.974777693E-1,8.369268377E-1
1.479936442E1,2.218342804E-1,-1.547933765E-1,8.657656467E-1,9.070400170E-1
1.480936242E1,1.761410858E-1,-4.022306956E-2,8.403670961E-1,8.595699120E-1
1.481936142E1,-1.231500361E-1,-2.494307994E-1,8.480240250E-1,8.924832783E-1
1.482936042E1,-3.320462738E-1,2.682750415E-1,5.992016101E-1,7.357097222E-1
1.483935942E1,-2.495647737E-1,1.406862196E-1,6.892773825E-1,7.464439019E-1
1.484935742E1,4.498994269E-1,5.525755836E-3,1.018138824E0,1.113124743E0
1.485935642E1,2.396116432E-1,-1.991003790E-1,1.159903983E0,1.201012885E0
1.486935542E1,-1.669389388E-1,-2.702806913E-2,1.093869622E0,1.106864886E0
1.487935342E1,-3.598062956E-1,1.543790282E-1,1.036952825E0,1.108406341E0
1.488935242E1,-1.954866536E-1,-1.590949538E-1,1.277770987E0,1.302392003E0
1.489935142E1,1.543822442E-1,1.992831959E-1,1.273549297E0,1.298258634E0
1.490935042E1,1.028618789E-1,1.157288231E-1,1.313495135E0,1.322589580E0
1.491934842E1,3.130964711E-2,-1.182916394E-1,1.347143523E0,1.352689497E0
1.492934742E1,-3.703641743E-1,1.871446137E-1,1.271782268E0,1.337767867E0
1.493934642E1,-3.102705849E-1,3.951267854E-2,1.370969172E0,1.406195420E0
1.494934442E1,9.963204140E-2,-1.480553010E-1,1.596058908E0,1.606004656E0
1.495934342E1,1.718778443E-1,1.208830341E-1,1.688539056E0,1.701563647E0
1.496934242E1,2.921171365E-1,5.980376853E-3,1.722220772E0,1.746829291E0
1.497934142E1,1.872653953E-1,-1.053619382E-1,1.661289276E0,1.675127316E0
1.498933942E1,-3.750640932E-1,1.530419892E-1,1.568165935E0,1.619641727E0
1.499933842E1,-1.881873367E-1,1.840337123E-2,1.637018069E0,1.647902095E0
1.500933742E1,-2.728614696E-1,-6.285518552E-1,1.849388942E0,1.972250053E0
1.501933542E1,5.990884665E-1,1.014045188E0,1.818291695E0,2.166420855E0
1.502933442E1,7.330615526E-1,-3.072985183E-1,1.781137317E0,1.950451681E0
1.503933342E1,9.985874891E-2,-1.415811177E-1,1.733877196E0,1.742511726E0
1.504933242E1,-9.116621965E-1,4.133884256E-1,1.427426963E0,1.743435025E0
1.505933042E1,-1.025062220E0,6.183399855E-1,9.203236771E-1,1.509997537E0
1.506932942E1,-6.956196380E-1,1.411517859E-3,1.352789594E0,1.521160202E0
1.507932842E1,-2.999066875E-1,4.927229360E-2,1.418184269E0,1.450385604E0
1.508932742E1,6.543396842E-1,4.291644327E-1,1.292333477E0,1.510784018E0
1.509932542E1,-1.041598328E-2,-8.569880258E-1,1.724874823E0,1.926065971E0
1.510932442E1,1.269065213E0,4.558782597E-2,1.619306268E0,2.057852656E0
1.511932342E1,3.982738117E-1,-3.959424537E-1,1.939103356E0,2.018790301E0
1.512932142E1,-3.075126725E-1,6.757889341E-2,1.108413402E0,1.152263520E0
1.513932042E1,-4.536274471E-2,-4.097653081E-1,1.311614671E0,1.374881242E0
1.514931942E1,-9.803833526E-1,3.109679385E-1,1.024402946E0,1.451638375E0
1.515931842E1,-3.248654544E-1,-4.683609505E-1,1.212855783E0,1.340118910E0
1.516931642E1,3.650876835E-1,6.363897555E-1,1.114789206E0,1.334554574E0
1.517931542E1,3.141998042E-1,-2.097219924E-2,1.504014378E0,1.536626370E0
1.518931442E1,2.720796786E-1,-1.750377527E-1,1.410436708E0,1.447065055E0
1.519931242E1,-7.099309176E-2,5.729886520E-1,8.755924773E-1,1.048817525E0
1.520931142E1,-6.184830961E-1,-2.966532602E-1,1.338790190E0,1.504288427E0
1.521931042E1,-8.435788985E-1,1.929014168E-1,1.143189132E0,1.433777426E0
1.522930942E1,1.522916088E-1,-1.704650839E-1,1.281135474E0,1.301368196E0
1.523930742E1,3.799055146E-1,2.673920206E-1,1.649920535E0,1.714078314E0
1.524930642E1,8.275551157E-1,-1.478966405E-1,2.442467347E0,2.583092648E0
1.525930542E1,5.715281454E-2,-5.404982327E-1,1.945168088E0,2.019674151E0
1.526930442E1,-1.019033558E-1,4.227024189E-1,1.434712009E0,1.499153153E0
1.527930242E1,-1.012798873E-1,1.770314888E-1,2.061172754E0,2.071238973E0
1.528930142E1,4.874370530E-2,8.277516552E-1,1.487456818E0,1.702961108E0
1.529930042E1,-1.169474413E0,-4.808973443E-1,1.826148598E0,2.221204935E0
1.530929842E1,-1.720724835E-1,1.179051275E0,1.842989164E0,2.194625232E0
1.531929792E1,-1.181802683E-2,-1.174376719E-3,2.158018432E0,2.158051111E0
1.532929692E1,5.604687765E-1,1.049874295E0,2.248694714E0,2.544206988E0
1.533929592E1,2.506138373E-1,4.904534854E-3,2.823798779E0,2.834902272E0
1.534929392E1,5.473998841E-3,-4.930333500E-1,2.864828106E0,2.906948903E0
1.535929292E1,-3.707881705E-1,-1.364090544E-1,2.515664547E0,2.546499443E0
1.536929192E1,-7.032029651E-2,-5.160272332E-1,2.925145644E0,2.971145585E0
1.537928992E1,-2.039521793E-1,-3.098086000E-2,2.871521999E0,2.878922523E0
1.538928892E1,2.042803543E-1,-2.041337171E-1,2.866803296E0,2.881312578E0
1.539928792E1,-1.751237433E-1,1.116750435E0,2.251802509E0,2.519606001E0
1.540928692E1,-3.953934733E-1,-2.913712876E-1,2.700216706E0,2.744522452E0
1.541928492E1,6.701599109E-1,-2.066929886E-1,3.124150951E0,3.201898728E0
1.542928392E1,3.966502592E-1,-3.209430691E-1,2.702945602E0,2.750681881E0
1.543928292E1,-3.626377366E-1,1.866661105E-1,2.750693380E0,2.780766879E0
1.544928092E1,-8.088256069E-1,-8.695258449E-1,2.810395206E0,3.050999061E0
1.545927992E1,-5.652551611E-1,3.764016255E-2,2.694508654E0,2.753417344E0
1.546927892E1,2.598166238E-1,-5.140384125E-2,3.049446924E0,3.060926914E0
1.547927792E1,7.868563020E-1,-5.398362914E-1,3.474628379E0,3.603277458E0
1.548927592E1,3.093580538E-1,2.232661356E-1,3.267189049E0,3.289388158E0
1.549927492E1,-4.110796525E-1,2.970690886E-1,2.991441960E0,3.034132746E0
1.550927392E1,-2.755613483E-1,-1.018947677E-2,3.317592632E0,3.329032706E0
1.551927192E1,-3.239875681E-1,1.570535629E-1,3.270079327E0,3.289840813E0
1.552927092E1,-4.431872984E-1,2.544187119E-1,3.018372481E0,3.061325905E0
1.553926992E1,6.275689566E-2,2.622973964E-1,3.240766650E0,3.251969685E0
1.554926892E1,6.674896337E-1,3.065035528E-2,3.541799439E0,3.604278724E0
1.555926692E1,3.294111530E-1,4.993435373E-2,3.176592289E0,3.194016863E0
1.556926592E1,-3.520611468E-1,9.867643277E-2,2.898340253E0,2.921311403E0
1.557926492E1,-4.060286084E-1,4.093773819E-1,3.070030877E0,3.123705917E0
1.558926392E1,-2.221635335E-1,1.706222096E-1,3.048485057E0,3.061328097E0
1.559926192E1,1.584852354E-1,1.343707699E-1,3.166928011E0,3.173736930E0
1.560926092E1,3.922074717E-2,2.695805786E-1,3.370681257E0,3.381671790E0
1.561925992E1,-3.600743904E-1,1.525913060E-1,3.046615117E0,3.071612174E0
1.562925792E1,-1.706630852E-1,1.990754005E-1,2.978678657E0,2.990197894E0
1.563925692E1,2.903343569E-3,-1.340890802E-2,3.228984511E0,3.229013657E0
1.564925592E1,-3.043747643E-1,6.144290753E-3,3.008508228E0,3.023872270E0
1.565925492E1,-9.628429117E-2,-6.680280344E-2,2.915448037E0,2.917802347E0
1.566925292E1,2.664925361E-1,-2.367797819E-1,3.107292843E0,3.127675135E0
1.567925192E1,6.089511478E-2,-3.400112961E-2,2.957045129E0,2.957867507E0
1.568925092E1,-3.132335883E-1,2.725898847E-1,2.328776425E0,2.365506323E0
1.569924892E1,-2.887331335E-1,-1.749250111E-1,2.770486205E0,2.790978215E0
1.570924792E1,2.568817418E-1,1.715970135E-1,2.637425212E0,2.655455801E0
1.571924692E1,1.033792259E0,-2.303678714E-1,2.607314975E0,2.814229409E0
1.572924592E1,2.389699844E-1,-2.768898723E-1,2.838933712E0,2.862397470E0
1.573924392E1,-6.466516920E-1,-2.681452699E-1,2.544632238E0,2.639169097E0
1.574924292E1,-7.617639262E-1,4.965560782E-1,1.907555873E0,2.113201748E0
1.575924192E1,-6.073395456E-1,-9.630656540E-3,2.712377161E0,2.779558227E0
1.576924092E1,6.690748139E-1,-1.374166759E-1,2.719040648E0,2.803520375E0
1.577923892E1,4.613878535E-1,-5.737953850E-1,2.546509779E0,2.650817223E0
1.578923792E1,-5.875752258E-1,4.554231088E-1,2.156811567E0,2.281335352E0
1.579923692E1,-1.000120629E0,2.695547230E-1,1.564550602E0,1.876358070E0
1.580923492E1,-1.919530533E-1,-2.548585870E-1,2.030604680E0,2.055517998E0
1.581923392E1,3.472806095E-1,2.460906323E-1,2.048272626E0,2.092028961E0
1.582923292E1,1.076889162E0,-6.528998805E-1,2.202686482E0,2.537281273E0
1.583923192E1,-3.698517390E-2,3.461681767E-1,1.564773965E0,1.603033959E0
1.584922992E1,-3.369589217E-1,2.678782166E-1,1.696414086E0,1.750177364E0
1.585922892E1,-2.485736707E-1,-3.030943337E-1,1.514250514E0,1.564164206E0
1.586922792E1,-3.076723746E-1,6.999049162E-1,1.085081842E0,1.327377786E0
1.587922592E1,-5.582672998E-2,-8.150908984E-2,1.596109194E0,1.599163817E0
1.588922492E1,3.356898201E-1,1.270184444E-1,1.287283822E0,1.336383545E0
1.589922392E1,3.406908705E-1,5.637895930E-1,9.632346386E-1,1.166940420E0
1.590922292E1,1.043657279E-1,-2.161124327E-1,1.313666459E0,1.335408684E0
1.591922092E1,-1.091507603E-1,5.077548849E-1,6.225507116E-1,8.107393540E-1
1.592921992E1,-3.912074151E-2,-2.064651116E-1,5.118026930E-1,5.532632929E-1
1.593921892E1,-2.737320286E-1,-1.125936192E-1,5.756963879E-1,6.473274887E-1
1.594921692E1,-1.103837188E-1,2.540249385E-1,2.444522059E-1,3.694186185E-1
1.595921592E1,2.634196233E-1,-6.522300088E-1,1.216086370E-1,7.138505046E-1
1.596921492E1,2.577173821E-1,3.734073577E-1,1.710094231E-1,4.848665039E-1
1.597921392E1,-4.076928356E-1,7.169172440E-2,-3.556756032E-1,5.457639473E-1
1.598921192E1,1.203184671E-1,2.308776207E-1,-6.644886965E-1,7.136709585E-1
1.599921092E1,5.687114502E-1,-8.612627790E-1,-1.733471400E-1,1.046544561E0
1.600920992E1,-3.838753355E-1,-4.786612229E-1,-5.601457179E-1,8.308068757E-1
1.601920792E1,-3.427732102E-1,-3.377400000E-1,-1.076739035E0,1.179376416E0
1.602920692E1,-1.267734277E-1,-2.884004635E-1,-9.528178239E-1,1.003547774E0
1.603920592E1,2.570041314E-1,2.174225379E-1,-7.935624737E-1,8.620122291E-1
1.604920492E1,2.970971187E-1,-5.685763065E-1,-9.731719816E-1,1.165594020E0
1.605920292E1,-2.351360930E-2,2.616942561E-1,-1.239506807E0,1.267049288E0
