"Time (s)","Linear Acceleration x (m/s^2)","Linear Acceleration y (m/s^2)","Linear Acceleration z (m/s^2)","Absolute acceleration (m/s^2)"
8.866249991E-3,2.837858409E-2,-1.148540477E-3,-3.507686198E-2,4.513368394E-2
1.886424999E-2,3.024793893E-2,1.948142649E-3,-3.213571250E-2,4.417507315E-2
2.886225004E-2,2.943429887E-2,5.887663653E-3,-1.564773381E-2,3.385105769E-2
3.886025003E-2,2.219310701E-2,9.550583947E-3,-6.191031933E-3,2.494146204E-2
4.885825003E-2,1.577081770E-2,1.198226621E-2,-2.071434617E-2,2.865968478E-2
5.885625002E-2,1.590559602E-2,1.010332170E-2,-3.061368227E-2,3.594805469E-2
6.885425001E-2,1.715339184E-2,-5.673137647E-3,-3.096626937E-2,3.585154364E-2
7.885225001E-2,1.124127209E-2,-1.456851481E-2,-9.980612397E-3,2.093371553E-2
8.885025000E-2,1.841609806E-2,-1.628392343E-2,-2.351750135E-3,2.469513229E-2
9.884825000E-2,3.100836933E-2,-2.830038215E-2,-1.828950584E-2,4.579232055E-2
1.088462500E-1,2.715388477E-2,-4.234521142E-2,-1.198211432E-2,5.171094131E-2
1.188442500E-1,2.196711212E-2,-3.837113759E-2,-6.933628321E-3,4.475459102E-2
1.288422500E-1,2.003899276E-2,-4.344069184E-2,-2.869754970E-2,5.578713380E-2
1.388402500E-1,1.781617373E-2,-5.936031661E-2,-3.781686723E-2,7.260288342E-2
1.488382500E-1,1.518697321E-2,-5.284229284E-2,-1.031975091E-2,5.594148127E-2
1.588362500E-1,2.025767863E-2,-4.653432116E-2,-6.219683290E-3,5.113219191E-2
1.688342500E-1,2.441124827E-2,-3.628247562E-2,-2.548041165E-2,5.061203865E-2
1.788322500E-1,2.335962653E-2,6.159173744E-3,-2.107278049E-2,3.205728701E-2
1.888302500E-1,2.556782752E-2,-3.519142172E-3,-1.877891779E-2,3.191779941E-2
1.988282500E-1,2.318625659E-2,-1.394209415E-2,-2.229543328E-2,3.505810647E-2
2.088262500E-1,2.753190726E-2,4.756560098E-2,-3.202286124E-2,6.360782936E-2
2.188242500E-1,1.822226286E-2,2.419828171E-2,2.022551894E-3,3.035948645E-2
2.288222500E-1,8.848591447E-3,-1.198477183E-2,-1.007182896E-2,1.798260451E-2
2.388202500E-1,2.829935431E-2,3.880962395E-2,-3.282919228E-2,5.817900164E-2
2.488182500E-1,2.997838229E-2,3.797469637E-2,-3.274206877E-2,5.841938066E-2
2.588162500E-1,2.258428574E-2,-1.716560361E-2,-1.496068597E-2,3.207070367E-2
2.688142500E-1,2.109470755E-2,-2.572617743E-2,-1.863039851E-2,3.813023263E-2
2.788122500E-1,1.556031793E-2,-2.572368323E-3,-1.676221311E-2,2.301548091E-2
2.888102500E-1,9.610776007E-3,-3.005918350E-2,-1.427773118E-2,3.463777036E-2
2.988082500E-1,1.909145147E-2,-4.598140754E-2,-2.720417082E-2,5.673482412E-2
3.088062500E-1,1.847047716E-2,-3.348732838E-2,-3.320341408E-2,5.064608964E-2
3.188042500E-1,2.405749172E-2,-3.380819891E-2,-7.131848931E-3,4.210249981E-2
3.288022500E-1,2.277578205E-2,-5.766843846E-2,2.483312488E-3,6.205281527E-2
3.388002500E-1,7.029230297E-3,-4.450906950E-2,-2.852856517E-3,4.515092620E-2
3.487982500E-1,2.337716818E-3,-2.064595659E-2,-1.156228423E-2,2.377828547E-2
3.587962500E-1,1.018087953E-2,-1.308261283E-2,-3.735786080E-2,4.087070871E-2
3.687942500E-1,2.153558761E-2,-7.008843842E-3,-4.170994341E-2,4.746182471E-2
3.787932500E-1,3.639219314E-2,-1.813156478E-3,-3.136154115E-2,4.807520693E-2
3.887912500E-1,3.355307758E-2,-1.025631775E-2,-7.708384395E-3,3.592242000E-2
3.987892500E-1,3.793936640E-2,1.202642182E-2,3.243450522E-3,3.993182084E-2
4.087872500E-1,1.457593918E-2,1.504275027E-3,2.189197540E-3,1.481598570E-2
4.187852500E-1,-3.901262283E-3,-1.053051562E-3,-1.880230665E-2,1.923162761E-2
4.287832500E-1,1.197275877E-2,1.356130451E-2,-3.391677439E-2,3.843960871E-2
4.387812500E-1,1.206192881E-2,3.600058729E-3,-3.724267066E-2,3.931242891E-2
4.487792500E-1,3.206613064E-2,-7.456443632E-3,-1.721303344E-2,3.715001758E-2
4.587772500E-1,3.656030059E-2,-1.048307666E-2,2.916006446E-3,3.814516442E-2
4.687752500E-1,4.199382573E-2,-3.616879752E-4,-6.420827508E-3,4.248339963E-2
4.787732500E-1,3.132236481E-2,-2.419880019E-2,5.980532169E-3,4.003047880E-2
4.887712500E-1,1.291328341E-2,-2.392301946E-2,-1.332814336E-2,3.027710610E-2
4.987692500E-1,8.978399634E-4,-3.026540749E-2,-4.253907859E-2,5.221469347E-2
5.087672500E-1,5.250799656E-3,-2.985200934E-2,-3.744323015E-2,4.817373603E-2
5.187652500E-1,1.697329760E-2,-3.235538280E-2,-2.110201657E-2,4.219311236E-2
5.287632500E-1,2.563010037E-2,-2.617358536E-2,-1.602604866E-2,3.998490779E-2
5.387612500E-1,2.548187345E-2,-1.817103577E-2,5.081230402E-3,3.170696009E-2
5.487592500E-1,2.037140697E-2,-1.559658209E-2,-1.708439469E-2,3.082408372E-2
5.587572500E-1,1.737792492E-2,-3.147748961E-2,-2.606571794E-2,4.440997949E-2
5.687552500E-1,1.536092788E-2,-2.237145622E-2,-2.871801496E-2,3.951157478E-2
5.787532500E-1,1.263407886E-2,-1.969298149E-2,-3.254677176E-2,4.008398459E-2
5.887512500E-1,1.596260637E-2,-1.643813689E-2,-2.354615271E-2,3.285480869E-2
5.987492500E-1,2.206534535E-2,-1.540796713E-2,-2.281642020E-2,3.528277125E-2
6.087472500E-1,2.917468250E-2,-6.127300708E-3,-2.210832238E-2,3.711446930E-2
6.187452500E-1,3.230498940E-2,6.029792677E-4,-2.480973601E-2,4.073694791E-2
6.287432500E-1,2.791256100E-2,-1.451716552E-2,1.507996917E-3,3.149814615E-2
6.387412500E-1,2.473226041E-2,-1.075254879E-2,-4.568429589E-3,2.735274317E-2
6.487392500E-1,1.684465885E-2,2.625380413E-3,-9.932080507E-3,1.973021483E-2
6.587372500E-1,1.065158039E-2,-1.565946022E-4,-3.667666018E-2,3.819238260E-2
6.687352500E-1,1.626724631E-2,-8.987430842E-3,-5.452879429E-2,5.760891096E-2
6.787332500E-1,2.566401422E-2,-1.329246621E-2,-3.299116015E-2,4.386055098E-2
6.887312500E-1,3.887696743E-2,-2.003926228E-2,-9.617500305E-3,4.478266340E-2
6.987292500E-1,3.907840401E-2,-2.034669335E-2,-8.390754461E-4,4.406601454E-2
7.087272500E-1,2.479657978E-2,-5.726509478E-3,-9.254388213E-3,2.707964144E-2
7.187252500E-1,1.118484646E-2,-2.497927786E-2,-2.137332737E-2,3.472584392E-2
7.287232500E-1,-2.604642212E-3,-4.408854506E-2,-4.555214882E-2,6.344747614E-2
7.387212500E-1,4.236015379E-3,-1.557295683E-2,-4.789103508E-2,5.053723431E-2
7.487192500E-1,8.386076689E-3,-2.931113276E-3,-1.820589066E-2,2.025764453E-2
7.587172500E-1,1.884908438E-2,-3.194770168E-2,4.388920069E-3,3.735245968E-2
7.687152500E-1,3.243421286E-2,-3.522503864E-2,-2.216679454E-3,4.793427979E-2
7.787132500E-1,3.171559006E-2,-1.964457066E-2,-3.431496978E-2,5.068831187E-2
7.887112500E-1,2.629931420E-2,-1.328069526E-2,-2.804266155E-2,4.067458249E-2
7.987092500E-1,2.331343353E-2,-3.605883332E-2,-2.661067843E-2,5.051617415E-2
8.087072500E-1,8.460336328E-3,-2.375446890E-2,-1.412453413E-2,2.890250072E-2
8.187052500E-1,1.351700842E-2,4.426773938E-3,-1.106760979E-2,1.802214834E-2
8.287032500E-1,1.759368718E-2,5.242778007E-3,-1.276447177E-2,2.235970235E-2
8.387012500E-1,9.743507802E-3,-1.995239915E-2,-2.911562562E-2,3.661630554E-2
8.486992500E-1,1.908882022E-2,-2.189194799E-2,-2.976115823E-2,4.158565839E-2
8.586972500E-1,2.291553050E-2,6.482531622E-3,-3.054468513E-2,3.873141546E-2
8.686952500E-1,3.138200641E-2,-1.366362621E-2,-1.156988561E-2,3.613014338E-2
8.786932500E-1,2.831806540E-2,-2.240928040E-2,8.600669503E-3,3.712223312E-2
8.886912500E-1,1.774717659E-2,-5.672498108E-3,2.113183737E-3,1.875113482E-2
8.986892500E-1,7.287384868E-3,8.043188882E-3,-1.786558270E-2,2.090401662E-2
9.086882500E-1,7.950459123E-3,-5.336881634E-3,-4.021539509E-2,4.133969168E-2
9.186862500E-1,9.837940335E-3,-2.108357957E-2,-3.755198836E-2,4.417526715E-2
9.286832500E-1,1.755977333E-2,-1.586966305E-2,-2.067049205E-2,3.142389356E-2
9.386822500E-1,2.697846830E-2,-1.466947293E-2,-9.750232100E-3,3.221953156E-2
9.486802500E-1,2.348417222E-2,-1.648139487E-2,-1.187335610E-2,3.105027064E-2
9.586782500E-1,2.340845078E-2,-1.192287014E-2,-9.886472225E-3,2.806871450E-2
9.686762500E-1,2.698139191E-2,-1.972211479E-2,-3.908688247E-2,5.142705224E-2
9.786742500E-1,1.324949831E-2,-1.755767312E-2,-4.131057858E-2,4.680154906E-2
9.886722500E-1,7.200846076E-4,-4.153369554E-2,-5.441418886E-3,4.189481384E-2
9.986702500E-1,1.753989279E-2,-3.126996827E-2,-6.091629267E-3,3.636711017E-2
1.008668250E0,1.561908245E-2,-1.646579011E-2,-1.603891253E-2,2.779073040E-2
1.018666250E0,1.930809081E-2,-2.327190002E-2,-4.151406169E-2,5.135952705E-2
1.028664250E0,2.580668628E-2,-1.520144964E-2,-3.497570515E-2,4.604746550E-2
1.038662250E0,2.971554995E-2,-3.315591231E-2,-1.573719621E-2,4.722274636E-2
1.048660250E0,2.809148580E-2,-1.820836088E-2,-1.033670783E-2,3.503603158E-2
1.058658250E0,2.406743199E-2,-1.417800189E-3,-5.837275386E-3,2.480574981E-2
1.068656250E0,-1.956770718E-3,-1.099266036E-2,-1.630320668E-2,1.976011340E-2
1.078654250E0,4.304135442E-3,-1.627419102E-2,-3.877113283E-2,4.226790290E-2
1.088652250E0,1.116467357E-2,-1.180151644E-2,-3.489208996E-2,3.848874729E-2
1.098650250E0,2.813592464E-2,-7.586225553E-3,-2.670949638E-2,3.952946079E-2
1.108648250E0,3.671642125E-2,-4.108514101E-3,-1.800182283E-2,4.109794523E-2
1.118646250E0,3.928364128E-2,-1.744787795E-2,-1.529514670E-2,4.562427457E-2
1.128644250E0,3.153432637E-2,-1.376083389E-2,-3.301337957E-3,3.456404377E-2
1.138642250E0,2.300791651E-2,-2.837126136E-3,-3.563059330E-2,4.250826609E-2
1.148640250E0,6.864631176E-4,-2.257162971E-2,-3.743621349E-2,4.371978706E-2
1.158638250E0,8.507698774E-5,-1.905809264E-2,-2.075293779E-2,2.817627655E-2
1.168636250E0,1.803573668E-3,-1.186493817E-2,-1.376025259E-2,1.825853738E-2
1.178634250E0,1.728290766E-2,-2.354269463E-4,-2.293804228E-2,2.872121354E-2
1.188632250E0,2.535791248E-2,-8.447003077E-3,-9.620423913E-3,2.840648064E-2
1.198630250E0,3.022747368E-2,-2.943772954E-2,-1.534601748E-2,4.489744244E-2
1.208628250E0,2.491147757E-2,-1.912566225E-2,-3.252162874E-2,4.521093901E-2
1.218626250E0,2.060324907E-2,-6.805594855E-3,-2.262404680E-2,3.134736811E-2
1.228624250E0,1.762964755E-2,-3.211968063E-3,-2.201476693E-2,2.838610883E-2
1.238622250E0,1.958232522E-3,-1.550841818E-2,-2.829467654E-3,1.588557825E-2
1.248620250E0,2.492083311E-3,-2.211363969E-2,-1.011860669E-2,2.444605778E-2
1.258618250E0,8.900631666E-3,-1.166783447E-2,-3.228715539E-2,3.546575825E-2
1.268616250E0,2.951557517E-2,-5.118449300E-3,-4.203972638E-2,5.162079324E-2
1.278614250E0,3.275376320E-2,-1.379811674E-2,-2.096343756E-2,4.126333413E-2
1.288612250E0,3.687926620E-2,-2.177917211E-2,-1.689260602E-3,4.286334348E-2
1.298610250E0,3.014912099E-2,-1.842374398E-2,-8.421744704E-3,3.632257731E-2
1.308608250E0,1.550272286E-2,-1.721993018E-2,-1.634296775E-2,2.835406508E-2
1.318606250E0,1.099919736E-2,-1.176656904E-2,-2.727726102E-2,3.167780703E-2
1.328604250E0,9.530084431E-3,-2.373587887E-2,-3.684272110E-2,4.485087015E-2
1.338602250E0,1.135500044E-2,-8.302093770E-3,-3.697662234E-2,3.956174157E-2
1.348600250E0,1.852251738E-2,-9.094445166E-3,-1.333516002E-2,2.456866044E-2
1.358598250E0,2.632474959E-2,-8.955538392E-3,-8.385491967E-3,2.904325368E-2
1.368596250E0,3.836738259E-2,-1.063454124E-2,-1.890814126E-2,4.407569988E-2
1.378594250E0,2.039391875E-2,-7.687085455E-3,-2.430278242E-2,3.264396480E-2
1.388592250E0,1.499986231E-2,-9.023594500E-3,-2.774854660E-2,3.280858067E-2
1.398590250E0,1.048230350E-2,-2.016672702E-2,-2.102658749E-2,3.096276710E-2
1.408588250E0,2.795261443E-3,-9.875629751E-3,-2.150430501E-2,2.382806503E-2
1.418586250E0,1.331469476E-2,-2.909628184E-3,-1.265045106E-2,1.859518607E-2
1.428584250E0,1.647979259E-2,-1.060632728E-2,-2.356603324E-2,3.065021477E-2
1.438582250E0,2.157505631E-2,-8.174972789E-3,-2.281466603E-2,3.244722209E-2
1.448580250E0,2.842009932E-2,-1.658391871E-2,-1.355618477E-2,3.558789894E-2
1.458578250E0,2.700448841E-2,-2.021458967E-2,-1.141668856E-2,3.561197562E-2
1.468576250E0,1.751679629E-2,-1.931210620E-2,-8.672005534E-3,2.747725019E-2
1.478574250E0,1.000400126E-2,-1.514849922E-2,-9.505233765E-3,2.049162118E-2
1.488572250E0,1.868185401E-3,-1.789924417E-2,-1.588922381E-2,2.400709253E-2
1.498570250E0,1.164999247E-2,-9.185082719E-3,-2.529213130E-2,2.932200496E-2
1.508568250E0,2.226473540E-2,-6.294372333E-3,-4.468909979E-2,5.032348563E-2
1.518566250E0,2.935536146E-2,-1.689986365E-2,-2.804383099E-2,4.397498260E-2
1.528564500E0,3.851180881E-2,-2.305386969E-2,-1.560563385E-2,4.752027076E-2
1.538562500E0,3.660620123E-2,-1.164205304E-2,-1.288960218E-2,4.051781352E-2
1.548560500E0,2.166744232E-2,-1.584268934E-2,-1.766385376E-2,3.213223603E-2
1.558558500E0,7.609274089E-3,-1.128108455E-2,-2.738660395E-2,3.058087632E-2
1.568556500E0,2.306434214E-3,-1.625269336E-2,-3.056398094E-2,3.469332228E-2
1.578554500E0,8.637799323E-3,-1.383884968E-2,-3.937222660E-2,4.261804271E-2
1.588552500E0,5.229749680E-3,-2.135891033E-2,-2.760821342E-2,3.529542153E-2
1.598550500E0,2.132245660E-2,-2.065468630E-2,-4.595911503E-3,3.003973409E-2
1.608548500E0,2.627738714E-2,-1.698679987E-2,-1.985597491E-2,3.705822695E-2
1.618546500E0,3.988531977E-2,-2.339513923E-2,-1.155000508E-2,4.766103115E-2
1.628544500E0,4.643741727E-2,-3.910867934E-3,-3.154572845E-2,5.627487533E-2
1.638542500E0,1.705954403E-2,-1.438243860E-2,-3.103702068E-2,3.822537423E-2
1.648540500E0,1.237036943E-2,-1.841238987E-2,-9.197085500E-3,2.401309065E-2
1.658538500E0,-1.835733354E-3,-1.351109840E-2,-9.488276839E-3,1.661165537E-2
1.668536500E0,-1.622602344E-4,-8.301067081E-3,-2.504128575E-2,2.638181258E-2
1.678534500E0,1.627660185E-2,-2.943346747E-3,-2.011617601E-2,2.604326391E-2
1.688532500E0,3.138522238E-2,-1.562959944E-2,-4.062879324E-2,5.366577496E-2
1.698530500E0,3.019969940E-2,-1.686281149E-2,-2.633352041E-2,4.347218136E-2
1.708528500E0,3.805426419E-2,-1.267585562E-2,-8.712351322E-3,4.104521171E-2
1.718526500E0,2.638731480E-2,-1.612969627E-2,-2.121369839E-3,3.099931764E-2
1.728524500E0,1.152983218E-2,-1.049470028E-2,-1.493495822E-2,2.159001485E-2
1.738522500E0,2.346487641E-3,-8.535548423E-3,-3.703626394E-2,3.807947528E-2
1.748521500E0,-3.631120920E-4,-9.004987335E-3,-5.051585019E-2,5.131347549E-2
1.758519500E0,6.581041217E-3,-2.245073396E-2,-2.818065584E-2,3.662642383E-2
1.768517500E0,2.041116804E-2,-3.401894535E-2,-1.286387444E-3,3.969331450E-2
1.778515500E0,2.995762467E-2,-2.242715780E-2,6.414395571E-4,3.742790574E-2
1.788513500E0,2.957083136E-2,-1.861894619E-2,-1.204877257E-2,3.696311871E-2
1.798511500E0,3.505318075E-2,-8.930788224E-3,-3.213746667E-2,4.838699436E-2
1.808509500E0,1.246567905E-2,-8.418005684E-3,-4.081064165E-2,4.349441856E-2
1.818507500E0,4.121409953E-3,-1.712822483E-2,-4.401433110E-2,4.740910723E-2
1.828505500E0,1.009521782E-2,-7.328887536E-3,-2.306551158E-2,2.622296398E-2
1.838503500E0,8.048984706E-3,-1.396903245E-2,-1.353922784E-2,2.105304522E-2
1.848501500E0,1.574450523E-2,-1.067139240E-2,-4.007096887E-3,1.943771813E-2
1.858499500E0,2.984594285E-2,-7.121865267E-3,-2.883846760E-2,4.210888841E-2
1.868497500E0,3.126243085E-2,-1.338474829E-2,-3.164571583E-2,4.645365863E-2
1.878495500E0,1.901777655E-2,-2.162284131E-2,-5.583506227E-3,2.933255245E-2
1.888493500E0,2.282109797E-2,-1.356707178E-2,-5.999827981E-3,2.721885165E-2
1.898491500E0,2.134876907E-2,-1.422249783E-2,-2.724217772E-2,3.741905440E-2
1.908489500E0,6.853813827E-3,-1.737979900E-2,-2.707904041E-2,3.289842863E-2
1.918487500E0,8.832511604E-3,-2.400829288E-2,-1.044663548E-2,2.763229236E-2
1.928485500E0,1.879587471E-2,-1.446420254E-2,-1.946304202E-2,3.068074422E-2
1.938483500E0,3.301191777E-2,-1.332694080E-2,-2.215977788E-2,4.193387439E-2
1.948481500E0,3.389864802E-2,1.438480146E-3,-1.521153152E-2,3.718303718E-2
1.958479500E0,2.027872860E-2,-1.166128947E-2,-2.337132096E-3,2.350903427E-2
1.968477500E0,2.230829716E-2,-5.826325561E-3,-3.066396832E-2,3.836515535E-2
1.978475500E0,1.188768178E-2,-4.213020519E-3,-3.475526512E-2,3.697289512E-2
1.988473500E0,4.809919596E-3,8.131984334E-3,-1.995888591E-2,2.208215620E-2
1.998471500E0,1.693996847E-2,-8.089296233E-3,-2.788887978E-2,3.361828164E-2
2.008469500E0,3.046896368E-2,-1.555872365E-2,-2.554414630E-2,4.269584335E-2
2.018467500E0,1.867162138E-2,-6.439277072E-3,7.103197575E-3,2.098926273E-2
2.028465500E0,2.541492283E-2,-9.477945997E-3,-1.534601748E-2,3.116488433E-2
2.038463500E0,1.730103403E-2,-2.189810584E-2,-4.500134110E-2,5.295255914E-2
2.048461500E0,1.663386673E-2,-1.111146390E-2,-3.073647380E-2,3.667261886E-2
2.058459500E0,2.566342950E-2,-2.402476102E-2,-2.981202900E-2,4.609292602E-2
2.068457500E0,2.346663058E-2,-2.506531644E-2,-1.930809081E-2,3.939232425E-2
2.078455500E0,1.104188204E-2,-2.013832691E-2,4.940312505E-3,2.349217013E-2
2.088453500E0,6.953216493E-3,-9.840153598E-3,-4.284254909E-3,1.278791158E-2
2.098451500E0,5.075967908E-3,-1.828007264E-2,-3.830744863E-2,4.274794879E-2
2.108449500E0,1.558253735E-2,-2.193550975E-2,-5.049830854E-2,5.721941300E-2
2.118447500E0,1.558779985E-2,-1.403287674E-2,-2.093770981E-2,2.963593808E-2
2.128445500E0,2.776755005E-2,-5.169923070E-3,-1.716625571E-2,3.305215992E-2
2.138443500E0,3.367996216E-2,-6.872093228E-3,-1.817373097E-2,3.888251553E-2
2.148441500E0,1.463294953E-2,-2.189944659E-2,-1.129097342E-3,2.636254604E-2
2.158439500E0,1.564568728E-2,-2.421019084E-2,-4.141582847E-3,2.912170290E-2
2.168437500E0,1.656370014E-2,1.049949454E-2,-4.462828875E-2,4.874709945E-2
2.178435500E0,1.312232137E-2,4.271081543E-3,-4.058610857E-2,4.286804946E-2
2.188433500E0,1.171986669E-2,-2.218810718E-2,-1.493846655E-2,2.920317035E-2
2.198431500E0,1.940603167E-2,-1.282719115E-2,-4.712855816E-4,2.326699396E-2
2.208429500E0,2.377682537E-2,2.705379917E-3,-1.490572214E-2,2.819285473E-2
2.218427500E0,2.838296950E-2,1.639157273E-3,-2.615108728E-2,3.862847603E-2
2.228425500E0,2.401685357E-2,-2.100408256E-2,-2.511671484E-2,4.060578904E-2
2.238423500E0,8.779886663E-3,-1.550050845E-2,-3.602703452E-2,4.019078736E-2
2.248421500E0,1.985743672E-2,-1.229263915E-2,-1.581905723E-2,2.820761142E-2
2.258419500E0,1.977528334E-2,-1.401232469E-2,-6.202141643E-3,2.501746660E-2
2.268417500E0,1.012971640E-2,-1.302385517E-2,-9.898751378E-3,1.924103003E-2
2.278415500E0,1.777231961E-2,-7.949281685E-3,-2.426419079E-2,3.110944195E-2
2.288413500E0,1.093107730E-2,-1.638244559E-2,-2.618617058E-2,3.276566044E-2
2.298411500E0,1.889732391E-2,-6.647038237E-3,-1.913325906E-2,2.770150845E-2
2.308409500E0,2.135227740E-2,-1.838961314E-2,-9.520436525E-3,2.974451770E-2
2.318407500E0,2.676504493E-2,-2.813962483E-2,-9.357883930E-3,3.994716645E-2
2.328405500E0,1.202450663E-2,-2.916867768E-2,-1.530333281E-2,3.506554594E-2
2.338403500E0,1.032413632E-2,-2.069600510E-2,-9.794086218E-3,2.511645960E-2
2.348401500E0,1.248058945E-2,-2.006368126E-3,-2.847184718E-2,3.115183314E-2
2.358399500E0,8.388415575E-3,-1.968437741E-2,-3.440618634E-2,4.051698272E-2
2.368397500E0,1.043172508E-2,-3.252900628E-2,-2.575289190E-2,4.278046960E-2
2.378395500E0,2.597830206E-2,-1.945483765E-2,2.812510729E-4,3.245677107E-2
2.388393500E0,3.005556554E-2,-1.134403462E-2,-5.975854397E-4,3.213069015E-2
2.398391500E0,2.921707481E-2,-6.263628770E-3,-3.005410373E-2,4.238065192E-2
2.408389500E0,1.807900608E-2,-2.038149570E-2,-3.210179865E-2,4.210440956E-2
2.418387500E0,9.335079789E-4,-1.613575476E-2,-1.327317953E-2,2.091438055E-2
2.428385500E0,1.319921225E-2,6.844340652E-3,-1.783751607E-2,2.322156719E-2
2.438383500E0,1.135149211E-2,-5.084839230E-4,-6.258274913E-3,1.297231413E-2
2.448381500E0,1.902391613E-2,-3.368948672E-3,-6.835979819E-3,2.049365316E-2
2.458379500E0,2.885483980E-2,-1.194265246E-2,-4.548198223E-2,5.517100176E-2
2.468377500E0,3.097767144E-2,-1.384878081E-2,-4.599712193E-2,5.715890205E-2
2.478375500E0,2.964538336E-2,-1.556913444E-2,-1.014433444E-2,3.498791538E-2
2.488373500E0,2.915070891E-2,-2.453624164E-2,1.512791634E-2,4.099566851E-2
2.498371500E0,2.122246921E-2,-1.019454169E-2,-4.362022877E-4,2.354808171E-2
2.508369500E0,8.276441395E-3,-5.330561616E-3,-2.419519365E-2,2.612128950E-2
2.518367500E0,3.944824040E-3,-2.645844983E-2,-3.451845288E-2,4.367075444E-2
2.528365375E0,5.043515861E-3,-3.915016945E-2,-5.462995112E-2,6.739884553E-2
2.538363375E0,2.301785678E-2,-2.263804129E-2,-2.753044546E-2,4.242909463E-2
2.548361375E0,3.578992993E-2,-1.753617433E-2,9.319292307E-3,4.093025413E-2
2.558359375E0,3.789229631E-2,-1.846436500E-3,4.911661148E-4,3.794043611E-2
2.568357375E0,2.773071259E-2,-1.464943708E-2,-2.255154133E-2,3.862862208E-2
2.578355375E0,1.347023070E-2,-1.361241054E-2,-2.945944190E-2,3.513692578E-2
2.588353375E0,2.247084975E-3,-6.975627774E-3,-2.077515721E-2,2.202988722E-2
2.598351375E0,8.246912956E-3,6.801930066E-3,-4.263497293E-2,4.395473516E-2
2.608349375E0,1.467417240E-2,-1.349779941E-2,-1.188505054E-2,2.321155640E-2
2.618347375E0,2.530821115E-2,-2.567249954E-2,9.443253279E-3,3.726604106E-2
2.628345375E0,2.716294795E-2,-1.555475851E-2,-2.383675933E-2,3.934421621E-2
2.638343375E0,4.188594460E-2,-1.443500758E-2,-3.287070751E-2,5.516597875E-2
2.648341375E0,2.691794962E-2,-1.676112133E-2,-1.738260269E-2,3.616166584E-2
2.658339375E0,7.219849527E-3,-2.894636700E-2,-1.076355457E-2,3.171549301E-2
2.668337375E0,-1.887481213E-3,-1.833743930E-2,-2.212761819E-2,2.880027348E-2
2.678335375E0,-1.848597229E-3,-1.889187412E-2,-2.525003135E-2,3.158930678E-2
2.688333375E0,1.018438786E-2,-2.744909835E-2,-2.327308774E-2,3.740068675E-2
2.698331375E0,2.779561669E-2,-6.080838185E-3,-3.901847005E-2,4.829092984E-2
2.708329375E0,2.310644209E-2,-9.926811161E-3,-1.321763098E-2,2.841047368E-2
2.718327375E0,2.311404347E-2,-1.548817563E-2,-3.932837248E-3,2.809999642E-2
2.728325375E0,3.206876189E-2,-1.610793709E-2,-2.041321456E-2,4.128644396E-2
2.738323375E0,1.775185436E-2,-1.766235884E-2,-2.652180076E-2,3.647592587E-2
2.748321375E0,5.204314291E-3,-4.784315187E-3,-2.306434214E-2,2.412340021E-2
2.758319375E0,7.105828822E-3,-1.286365402E-2,-1.859765410E-2,2.370314613E-2
2.768317375E0,5.911242664E-3,-1.943749471E-2,-3.206788480E-2,3.796193128E-2
2.778315375E0,1.633098096E-2,-1.295912466E-2,-1.668152153E-2,2.670043093E-2
2.788313375E0,2.607975125E-2,-2.178270556E-2,-4.546210170E-3,3.428276118E-2
2.798311375E0,3.247134268E-2,-1.308037331E-2,-1.302174926E-2,3.735037102E-2
2.808309375E0,2.690362394E-2,-1.201286130E-2,-3.713742077E-2,4.740571526E-2
2.818307375E0,9.638842642E-3,-2.291989307E-2,-2.039918125E-2,3.216139583E-2
2.828305375E0,1.935954630E-2,-3.164729641E-2,-1.606347084E-2,4.042744734E-2
2.838303375E0,1.785915077E-2,-1.021419724E-2,-2.812101424E-2,3.484351494E-2
2.848301375E0,5.490243137E-3,-6.275475092E-3,-2.502842188E-2,2.638079337E-2
2.858299375E0,2.776257992E-3,-2.967200646E-2,-1.231599033E-2,3.224622759E-2
2.868297375E0,1.312729150E-2,-2.402534345E-2,-2.996698022E-2,4.059018125E-2
2.878295375E0,1.879178166E-2,-2.076549103E-2,-2.878233433E-2,4.015917635E-2
2.888293375E0,3.924855798E-2,-1.509515137E-2,-3.285082698E-2,5.336187527E-2
2.898291375E0,2.663582146E-2,-1.859267255E-2,-2.194460034E-2,3.920101965E-2
2.908289375E0,1.302993536E-2,-2.934820091E-2,-3.075635433E-3,3.225764476E-2
2.918287375E0,1.115970343E-2,-1.646285394E-2,-6.402701139E-4,1.989910768E-2
2.928285375E0,-6.610277295E-4,-3.703366010E-4,-1.156520784E-2,1.159000169E-2
2.938283375E0,3.495465517E-3,-1.387182135E-2,-4.047384202E-2,4.292758548E-2
2.948281375E0,1.441104770E-2,-1.940591975E-2,-3.898280203E-2,4.586858262E-2
2.958279375E0,1.236890763E-2,-2.306518268E-2,-1.769835234E-2,3.159468632E-2
2.968277375E0,3.068969607E-2,-1.589311472E-2,-8.385491967E-3,3.556353492E-2
2.978275375E0,4.017738819E-2,-7.660032946E-3,-1.389298439E-2,4.319622254E-2
2.988273375E0,2.396452099E-2,-1.256056040E-2,-1.772992730E-2,3.234835801E-2
2.998271375E0,2.074767530E-2,-8.897898778E-3,-3.759701192E-2,4.385400710E-2
3.008269375E0,1.320827544E-2,-1.007335129E-2,-4.570943892E-2,4.863418297E-2
3.018267375E0,-2.479219437E-4,-8.990171724E-3,-2.609203041E-2,2.759852720E-2
3.028265375E0,7.122493386E-3,-5.617513724E-3,5.718576908E-4,9.089191036E-3
3.038263375E0,1.642746001E-2,-8.074640507E-3,-1.677917004E-2,2.483146812E-2
3.048261375E0,1.606493264E-2,-3.505050611E-3,-2.145343423E-2,2.702993305E-2
3.058259375E0,2.311111987E-2,-1.345222082E-2,-3.380275369E-2,4.310118633E-2
3.068257375E0,2.636714190E-2,-1.564532526E-2,-2.708664179E-2,4.091073866E-2
3.078255375E0,2.259071767E-2,-2.565732875E-2,-2.096694589E-2,4.010301564E-2
3.088253375E0,1.707123846E-2,-2.596718322E-2,-1.302291870E-2,3.369448320E-2
3.098251375E0,1.146317393E-2,-2.008890195E-2,-1.761999965E-2,2.907632586E-2
3.108249375E0,4.072000980E-3,-2.208298749E-2,-2.363853872E-2,3.260398812E-2
3.118247375E0,1.134535253E-2,-2.551554976E-2,-3.429918230E-2,4.422888434E-2
3.128245375E0,1.863273740E-2,-2.408320576E-2,-2.908580482E-2,4.210895089E-2
3.138243375E0,2.792922556E-2,-2.457953387E-2,-9.019330144E-3,3.828241688E-2
3.148241375E0,2.441592604E-2,-3.168200740E-2,3.746895790E-3,4.017370116E-2
3.158239375E0,2.648993343E-2,-2.450319573E-2,-1.527585089E-2,3.918513487E-2
3.168237375E0,9.941436052E-3,-1.994478635E-2,-2.676562965E-2,3.482851682E-2
3.178235375E0,1.633945942E-2,-6.679056311E-3,-2.364263177E-2,2.950528367E-2
3.188233375E0,1.634092122E-2,-8.094624965E-3,-2.611775815E-2,3.185413554E-2
3.198231375E0,1.504927129E-2,-1.523500604E-2,-2.527049661E-2,3.312376751E-2
3.208229375E0,2.075176835E-2,-1.855275503E-2,-1.089277804E-2,2.989135698E-2
3.218227375E0,1.957443148E-2,-2.465058211E-4,-1.761766076E-2,2.633630770E-2
3.228225375E0,2.137566626E-2,4.219468444E-3,-1.701598227E-2,2.764537348E-2
3.238223375E0,1.360617846E-2,-7.743087391E-3,-2.883378983E-2,3.280961643E-2
3.248221375E0,9.861913919E-3,-8.653666747E-3,-2.569149613E-2,2.884781219E-2
3.258219375E0,1.739985198E-2,-4.334819620E-3,-8.080267310E-3,1.966815268E-2
3.268217375E0,2.016441554E-2,-4.365452406E-3,-9.021084309E-3,2.251756627E-2
3.278215375E0,1.701305866E-2,-1.568753713E-2,-1.486303747E-2,2.750368828E-2
3.288213375E0,2.420396447E-2,-1.962484773E-2,-2.563770175E-2,4.035168268E-2
3.298211375E0,2.411274791E-2,-1.003683589E-2,-2.380986214E-2,3.534221585E-2
3.308209375E0,2.312398374E-2,-1.492663736E-2,-2.632299542E-2,3.808442221E-2
3.318207375E0,2.271087795E-2,-1.817927897E-2,-1.717268765E-2,3.378122796E-2
3.328205375E0,2.353972077E-2,-2.006258719E-2,-1.608159721E-2,3.486034463E-2
3.338203375E0,1.757936150E-2,-1.098981441E-2,-1.135763168E-2,2.363907293E-2
3.348201375E0,1.710485995E-2,-1.343357368E-2,-2.080146968E-2,3.009548599E-2
3.358199375E0,1.025016904E-2,-2.097345548E-2,-2.834964037E-2,3.672402360E-2
3.368197375E0,1.413008898E-2,-2.300048872E-2,-3.404424369E-2,4.344758250E-2
3.378195375E0,2.255358785E-2,-1.904487131E-2,-2.608910680E-2,3.939559546E-2
3.388193375E0,2.102220207E-2,-2.474416497E-2,-1.547933400E-2,3.596966029E-2
3.398191375E0,1.868331581E-2,-2.878549548E-2,-4.901720881E-3,3.466551467E-2
3.408189375E0,2.363941580E-2,-3.168999479E-2,-2.016119957E-2,4.437963178E-2
3.418187375E0,5.179463625E-3,-2.321284315E-2,-1.270307600E-2,2.696351369E-2
3.428185375E0,5.032698512E-3,-1.978388514E-2,-2.864960253E-2,3.517854305E-2
3.438183375E0,1.666778058E-2,-3.649672582E-2,-3.885065496E-2,5.584979226E-2
3.448181375E0,1.300040692E-2,-3.635367461E-2,-1.665696323E-2,4.204824207E-2
3.458179375E0,2.026557237E-2,6.733619284E-3,-1.496653318E-2,2.607742640E-2
3.468177375E0,2.271000087E-2,7.544861070E-3,-2.362275124E-2,3.362593410E-2
3.478175375E0,1.417832851E-2,-2.288229045E-2,-1.419177711E-2,3.043075341E-2
3.488173375E0,1.213765025E-2,3.471679226E-3,-1.933206439E-2,2.308904121E-2
3.498171375E0,2.267842591E-2,2.424450212E-2,-2.932787955E-2,4.429708121E-2
3.508169375E0,2.199897945E-2,1.573151573E-2,-2.165574789E-2,3.464689164E-2
3.518167375E0,1.328896701E-2,-1.622436634E-2,-6.782770157E-3,2.204161243E-2
3.528165292E0,1.942620456E-2,2.704413756E-3,-3.035289645E-2,3.613847812E-2
3.538163292E0,1.961565435E-2,-8.048114476E-3,-1.865554154E-2,2.824137518E-2
3.548161292E0,1.267091632E-2,-2.188645938E-2,-1.090330303E-2,2.753999349E-2
3.558159292E0,2.342160702E-2,-2.253410932E-2,-2.618558586E-2,4.173778462E-2
3.568157292E0,1.515364408E-2,-1.779663238E-2,-2.201301277E-2,3.210803302E-2
3.578155292E0,9.787654281E-3,-9.796997263E-3,-1.691131711E-2,2.185799575E-2
3.588153292E0,8.667620122E-3,-3.540093477E-2,-2.614991784E-2,4.485724049E-2
3.598151292E0,4.642396867E-3,-4.476970914E-2,-2.396481335E-2,5.099206785E-2
3.608149292E0,4.623978138E-3,-2.269979109E-2,-1.790709794E-2,2.928012715E-2
3.618147292E0,1.420961112E-2,-1.338263324E-2,-3.167553663E-2,3.720682117E-2
3.628145292E0,2.587275982E-2,-3.011960625E-2,-1.416897297E-2,4.215863110E-2
3.638143292E0,2.360111654E-2,-2.453138799E-2,-4.303550720E-3,3.431212974E-2
3.648141292E0,1.779717028E-2,1.120922661E-3,-7.877368927E-3,1.949483724E-2
3.658139292E0,2.774533063E-2,-5.876642450E-3,-3.905647695E-2,4.826744959E-2
3.668137292E0,9.653460681E-3,-1.459253294E-2,-2.362742901E-2,2.940045446E-2
3.678135292E0,4.688882232E-3,-2.288450828E-2,-1.001920402E-2,2.541792252E-2
3.688133292E0,2.643233836E-2,1.958170852E-3,-3.469737768E-2,4.366246629E-2
3.698131292E0,1.743961304E-2,8.572726208E-4,-2.242874980E-2,2.842400107E-2
3.708129292E0,1.563603938E-2,-1.249475867E-2,-1.255338728E-2,2.362609265E-2
3.718127292E0,1.701188922E-2,-7.538231561E-3,-2.795670748E-2,3.358283494E-2
3.728125292E0,2.734684289E-2,3.804766095E-3,-4.232331634E-2,5.053305024E-2
3.738123292E0,3.670765042E-2,-7.258055143E-3,-3.218132079E-2,4.935350415E-2
3.748121292E0,1.625906020E-2,-1.901510533E-2,-1.651370645E-2,2.997722085E-2
3.758119292E0,8.329066336E-3,-1.128744911E-2,-1.022444129E-2,1.735854409E-2
3.768117292E0,6.666995287E-3,2.510134305E-3,-1.374388039E-2,1.548043438E-2
3.778115292E0,2.802570462E-3,-5.955226973E-3,-1.754164696E-3,6.811477320E-3
3.788113292E0,8.028519452E-3,-1.699394672E-2,-3.574052095E-2,4.038113653E-2
3.798111292E0,1.079863787E-2,-1.140356430E-2,-3.271751046E-2,3.629169808E-2
3.808109292E0,2.171948254E-2,-1.638928181E-2,-1.678501725E-2,3.197000601E-2
3.818107292E0,3.807122111E-2,-2.102758562E-2,-1.355267644E-2,4.555493687E-2
3.828105292E0,3.231668383E-2,-2.930844212E-2,-3.110134006E-3,4.373815002E-2
3.838103292E0,3.004036278E-2,-2.669949673E-2,-1.202713788E-2,4.195162174E-2
3.848101292E0,1.721654177E-2,-1.372966206E-2,-2.846658468E-2,3.598971206E-2
3.858099292E0,1.093517035E-2,-3.001359806E-2,-3.422082961E-2,4.681302381E-2
3.868097292E0,3.863547742E-3,-2.627854745E-2,-1.987059295E-2,3.317121525E-2
3.878095292E0,9.069908559E-3,-3.667369089E-2,3.383198977E-3,3.792978882E-2
3.888093292E0,2.173731655E-2,-2.494724608E-2,-1.595763624E-2,3.673584315E-2
3.898091292E0,3.463130414E-2,-5.531706976E-3,-2.725328743E-2,4.441473500E-2
3.908089292E0,3.102532625E-2,-1.817294182E-2,-3.542477131E-2,5.047515335E-2
3.918087292E0,1.980861247E-2,-2.469553715E-2,-2.119908035E-2,3.810054712E-2
3.928085292E0,1.487034649E-2,-8.572481812E-3,-1.610907912E-2,2.353969157E-2
3.938083292E0,2.180075884E-2,1.136654869E-2,-2.327016413E-2,3.385220899E-2
3.948081292E0,9.468396306E-3,-4.872861675E-3,-1.895959675E-2,2.174538155E-2
3.958079292E0,9.226321578E-3,-1.044547404E-2,-2.903844237E-2,3.220968912E-2
3.968077292E0,2.176129013E-2,2.859769250E-3,-3.235264421E-2,3.909508429E-2
3.978075292E0,2.016997039E-2,-7.511633582E-3,-2.012903988E-2,2.946914643E-2
3.988073292E0,2.500006288E-2,-1.855268194E-2,-2.482786238E-2,3.981994352E-2
3.998071292E0,3.152263194E-2,-1.431785199E-2,-2.558741570E-3,3.471634152E-2
4.008069292E0,1.924201727E-2,-6.612430030E-3,-1.438707411E-2,2.491921670E-2
4.018067292E0,2.062225252E-2,-1.192432624E-2,-3.188311279E-2,3.979949417E-2
4.028065292E0,-1.113309860E-3,-2.536951555E-2,-2.755851209E-2,3.747430275E-2
4.038063292E0,1.345181197E-2,-2.137061847E-2,-2.865135670E-2,3.819103062E-2
4.048061292E0,2.244395256E-2,-2.447483217E-2,-2.595052779E-2,4.214473050E-2
4.058059292E0,2.771229386E-2,-2.981590278E-2,-5.059595704E-3,4.101900534E-2
4.068057292E0,2.779532433E-2,-2.033392541E-2,-2.619552612E-3,3.453853837E-2
4.078055292E0,1.842516124E-2,-8.599810693E-3,-1.950163364E-2,2.817369386E-2
4.088053292E0,1.645318776E-2,-8.749540527E-3,-3.732862473E-2,4.172155403E-2
4.098051292E0,1.080799341E-2,-1.098545070E-2,-2.331577241E-2,2.794848997E-2
4.108049292E0,2.564004064E-3,-9.043170110E-3,4.788869619E-4,9.411821035E-3
4.118047292E0,5.796929598E-3,-7.852039748E-3,-1.683647275E-2,1.946087705E-2
4.128045292E0,9.981781840E-3,-2.722843905E-3,-3.091072083E-2,3.259635731E-2
4.138043292E0,1.459435791E-2,-1.985273610E-2,-2.081608772E-2,3.225578896E-2
4.148041292E0,1.979048610E-2,-2.448526579E-2,-2.554882407E-2,4.054545588E-2
4.158039292E0,2.858089775E-2,-2.295097468E-2,-1.614123881E-2,4.005189815E-2
4.168037292E0,1.052147985E-2,-2.075905910E-2,1.164706886E-2,2.602487821E-2
4.178035292E0,-1.309864014E-2,-5.265019353E-2,7.138748646E-2,8.966487872E-2
4.188033292E0,-5.789094329E-2,-1.302379213E-1,1.587595063E-1,2.133491465E-1
4.198031292E0,-1.810748202E-1,-1.451021373E-1,2.030679524E-1,3.083493377E-1
4.208029292E0,-3.455505645E-1,-1.025746984E-1,2.716364962E-1,4.513459288E-1
4.218027292E0,-3.286655599E-1,-4.705031510E-2,5.597054225E-1,6.507725735E-1
4.228025292E0,5.004631877E-3,4.449436193E-1,1.095492225E0,1.182414092E0
4.238023292E0,-4.549861756E-1,3.060378768E-1,7.228187656E-1,9.072698441E-1
4.248021292E0,-4.277787888E-1,6.031916404E-2,9.792682886E-2,4.429703799E-1
4.258019292E0,1.851465288E-1,-1.778266553E-1,-1.462055343E-1,2.954278503E-1
4.268017292E0,1.361172747E0,-3.604418514E-1,-3.431415702E0,3.709086585E0
4.278015292E0,1.120779386E0,-2.150300035E-1,-3.680518198E-1,1.199102363E0
4.288013292E0,-5.737551123E-1,-2.505797042E-1,1.769729984E0,1.877213183E0
4.298011292E0,-3.810671371E-1,4.129853697E-2,-1.456482947E-1,4.100379957E-1
4.308009292E0,1.092423606E-1,3.277835074E-1,-4.911099815E-1,6.004705947E-1
4.318007292E0,2.517430991E-1,4.434191405E-1,-7.242741376E-1,8.857585159E-1
4.328005292E0,-2.444504517E-1,-6.025986962E-2,4.549367666E-2,2.558455586E-1
4.338003292E0,-2.099659127E-1,-1.233538207E-1,5.057584262E-1,5.613318406E-1
4.348001292E0,-3.746439707E-1,2.671560306E-1,6.735764390E-1,8.157424034E-1
4.357999292E0,-7.597760922E-1,-2.882271483E-1,1.266391135E0,1.504686382E0
4.367997292E0,-6.027008763E-1,-3.165302485E-1,1.615100951E0,1.752709567E0
4.377995292E0,-7.170653978E-1,-2.784269956E-1,1.194691992E0,1.420912852E0
4.387993292E0,-5.229132798E-1,1.642573874E-1,1.047473136E0,1.182209270E0
4.397991292E0,-7.642778635E-1,-3.339913592E-3,1.099020435E0,1.338647722E0
4.407989292E0,-6.862371227E-1,9.490410159E-2,1.540517961E0,1.689119227E0
4.417987292E0,-8.627022904E-1,-1.148380729E-1,1.678419864E0,1.890644405E0
4.427985292E0,-6.375353712E-1,-4.123365115E-2,1.621742803E0,1.743043683E0
4.437983292E0,-6.986264956E-1,3.295006519E-1,1.164282378E0,1.397212624E0
4.447981292E0,-5.581535715E-1,1.553985725E-2,1.616767407E0,1.710471790E0
4.457979292E0,-7.344991636E-1,5.498988836E-2,1.355311498E0,1.542524608E0
4.467977292E0,-6.560999885E-1,8.901358000E-3,1.221857572E0,1.386896663E0
4.477975292E0,-7.103489935E-1,-1.291062658E-1,1.237749134E0,1.432929531E0
4.487973292E0,-9.791419888E-1,-3.026439884E-1,1.096645880E0,1.500981214E0
4.497971292E0,-8.633998632E-1,-1.496076454E-1,1.555827141E0,1.785620302E0
4.507969292E0,-7.560142860E-1,-3.008153540E-2,1.587904966E0,1.758949880E0
4.517967292E0,-6.346202418E-1,2.753210095E-1,1.285260685E0,1.459602527E0
4.527965292E0,-9.092247847E-1,3.521444513E-2,1.503329085E0,1.757250154E0
4.537963292E0,-8.133339563E-1,1.363666073E-1,1.622611114E0,1.820157906E0
4.547961292E0,-1.012424633E0,-8.984071434E-2,2.136470858E0,2.365921114E0
4.557958292E0,-1.092975875E0,-3.989475206E-1,2.174498810E0,2.466211763E0
4.567956292E0,-9.076653323E-1,5.861197807E-2,1.549658328E0,1.796867456E0
4.577955292E0,-6.798227271E-1,3.632161725E-1,1.597638241E0,1.773846915E0
4.587952292E0,-9.164744550E-1,-8.642042208E-2,1.922151693E0,2.131211169E0
4.597950292E0,-1.070165010E0,2.541740333E-2,1.964575582E0,2.237287735E0
4.607949292E0,-1.093496862E0,-2.037785353E-1,2.343948780E0,2.594485877E0
4.617946292E0,-9.767671421E-1,-5.225234533E-2,2.101541346E0,2.318033733E0
4.627945292E0,-1.142891509E0,-6.175624520E-2,1.960247473E0,2.269930613E0
4.637942292E0,-1.082361717E0,-1.790847934E-1,2.260008491E0,2.512213492E0
4.647940292E0,-1.149485999E0,2.051860514E-1,1.810944083E0,2.154747746E0
4.657938292E0,-1.102911757E0,1.559220353E-1,1.808453754E0,2.123965867E0
4.667936292E0,-1.090194063E0,3.323333355E-1,1.370817729E0,1.782725382E0
4.677934292E0,-9.808599007E-1,9.597014951E-2,1.418179007E0,1.726999742E0
4.687932292E0,-8.242463225E-1,-1.126654668E-1,1.252390562E0,1.503515091E0
4.697930292E0,-6.593928480E-1,-1.634344649E-1,1.314390344E0,1.479571468E0
4.707928292E0,-6.487897995E-1,-3.904605063E-1,1.699220164E0,1.860305560E0
4.717926292E0,-7.204474273E-1,-2.313443747E-1,1.449786131E0,1.635372906E0
4.727924292E0,-3.886948299E-1,2.074809191E-1,1.581013438E0,1.641260337E0
4.737922292E0,-4.574753353E-1,1.394025182E-1,1.192612138E0,1.284928191E0
4.747920292E0,-4.550095645E-1,-1.744208349E-1,1.172359722E0,1.269599799E0
4.757918292E0,-4.683040863E-1,2.107550127E-1,8.081366587E-1,9.575026119E-1
4.767916292E0,-4.492874792E-1,-3.094412533E-2,9.625996310E-1,1.062739304E0
4.777914292E0,-5.471055499E-1,-1.589979997E-1,8.322108150E-1,1.008553264E0
4.787912292E0,-4.876110077E-1,3.793239542E-3,6.911525846E-1,8.458550577E-1
4.797910292E0,-4.009856772E-1,1.762548598E-2,5.772499931E-1,7.030773255E-1
4.807908292E0,-4.029240292E-1,-8.243489594E-2,4.538708192E-1,6.124883721E-1
4.817906292E0,-2.355910429E-1,-5.582620008E-2,3.591049951E-1,4.331005676E-1
4.827904292E0,-1.178547245E-1,1.207890583E-1,2.073025060E-1,2.673089256E-1
4.837902292E0,-3.678951144E-2,-7.439470033E-2,2.381927615E-1,2.522376483E-1
4.847900292E0,-1.095794526E-1,3.106160183E-2,4.887348425E-1,5.018308737E-1
4.857898292E0,-1.741330057E-2,7.393556600E-2,3.326785040E-1,3.412399126E-1
4.867896292E0,3.784347206E-2,5.477338149E-2,1.894497871E-2,6.921823399E-2
4.877894292E0,4.794366002E-2,8.856313426E-2,-1.717625445E-1,1.991090028E-1
4.887892292E0,1.668415278E-1,4.450669407E-2,-4.152230626E-1,4.496967122E-1
4.897890292E0,9.023013890E-2,-1.831252011E-1,-2.788040131E-1,3.455546194E-1
4.907888292E0,1.424878746E-1,-1.164690075E-1,-2.650501925E-1,3.226754231E-1
4.917886292E0,1.787227777E-1,-1.283317381E-1,-4.161305505E-1,4.707180699E-1
4.927884292E0,2.335930493E-1,-6.947397600E-2,-3.972405356E-1,4.660390426E-1
4.937882292E0,2.180584592E-1,2.813227013E-2,-4.416524774E-1,4.933536531E-1
4.947880292E0,1.835908771E-1,-1.570190278E-2,-3.229282719E-1,3.717994468E-1
4.957878292E0,9.195097446E-2,4.939762501E-2,-8.345672429E-2,1.336418044E-1
4.967876292E0,1.702516240E-1,1.369716434E-2,-2.277584052E-1,2.846877569E-1
4.977874292E0,3.248245239E-1,2.846733386E-2,-4.683783460E-1,5.707010035E-1
4.987872292E0,3.384087753E-1,4.643611078E-2,-5.740363634E-1,6.679779623E-1
4.997870292E0,3.644309315E-1,-5.153337991E-2,-5.306014913E-1,6.457581093E-1
5.007868292E0,3.044493163E-1,-7.587522447E-2,-5.586160862E-1,6.407014653E-1
5.017866292E0,2.864261511E-1,-6.227252693E-2,-5.985964233E-1,6.665099291E-1
5.027864292E0,2.984696612E-1,5.008209642E-2,-7.850454193E-1,8.413611980E-1
5.037862292E0,2.871880433E-1,3.716339292E-2,-8.555827206E-1,9.032606943E-1
5.047860292E0,2.745615658E-1,-1.156968233E-2,-7.517162901E-1,8.003719709E-1
5.057858292E0,2.818635687E-1,-1.153692193E-3,-7.082878500E-1,7.623123250E-1
5.067856292E0,4.032178518E-1,-5.581710035E-2,-7.821019310E-1,8.816936062E-1
5.077854292E0,5.379818469E-1,-4.068700501E-3,-8.702416903E-1,1.023113689E0
5.087852292E0,6.145724782E-1,-1.240600776E-2,-8.497969007E-1,1.048812668E0
5.097850292E0,5.642782375E-1,-8.791180925E-2,-6.667673564E-1,8.779049625E-1
5.107848292E0,4.840047374E-1,-1.049276271E-1,-5.851910967E-1,7.666283405E-1
5.117846292E0,4.597811848E-1,-5.638312453E-2,-7.193355793E-1,8.555825327E-1
5.127844292E0,4.387917271E-1,3.859303029E-2,-8.898246002E-1,9.928823802E-1
5.137842292E0,4.426070353E-1,5.718858305E-2,-9.943698925E-1,1.089927981E0
5.147840292E0,4.217608345E-1,8.699244423E-2,-9.793425483E-1,1.069841911E0
5.157838292E0,4.625375623E-1,1.144084030E-1,-1.080329810E0,1.180738234E0
5.167836292E0,5.071205351E-1,4.686870881E-2,-1.112828050E0,1.223827676E0
5.177834292E0,6.100756770E-1,-3.930925939E-2,-1.242773647E0,1.384999598E0
5.187832292E0,7.431156206E-1,-8.137512465E-2,-1.417979617E0,1.602968786E0
5.197830292E0,7.657253417E-1,-6.793179571E-2,-1.321952548E0,1.529218286E0
5.207828292E0,7.571258417E-1,-1.921169169E-2,-1.181732224E0,1.403602393E0
5.217826292E0,7.417628673E-1,2.561136415E-2,-1.268942860E0,1.470062610E0
5.227824292E0,6.930672553E-1,1.208642544E-2,-1.313627867E0,1.485296763E0
5.237822292E0,6.089910185E-1,-5.075861927E-2,-1.234118598E0,1.377132968E0
5.247820292E0,5.589052311E-1,-7.721763555E-2,-1.174392214E0,1.302894736E0
5.257818292E0,5.761875540E-1,-1.062570829E-1,-1.294899820E0,1.421284000E0
5.267816292E0,5.927848756E-1,-6.453871585E-2,-1.197239624E0,1.337513317E0
5.277814292E0,5.903307992E-1,-6.525730211E-3,-1.161078104E0,1.302549577E0
5.287812292E0,6.290843904E-1,1.032241687E-1,-1.245042366E0,1.398761200E0
5.297810292E0,6.013817444E-1,7.236657988E-2,-1.059059978E0,1.220043016E0
5.307808292E0,6.304675493E-1,3.737339704E-2,-1.068099774E0,1.240855845E0
5.317806292E0,6.528343186E-1,-1.120537567E-1,-9.785847491E-1,1.181683885E0
5.327804292E0,7.596822444E-1,-5.334288759E-2,-1.204245758E0,1.424840490E0
5.337802292E0,7.689913040E-1,-1.184034218E-2,-1.299681673E0,1.510185509E0
5.347800292E0,7.360185626E-1,8.674399238E-2,-1.384209023E0,1.570121799E0
5.357798292E0,7.037431017E-1,8.602220843E-2,-1.457243670E0,1.620559560E0
5.367796292E0,6.777414107E-1,-3.996768785E-2,-1.460701128E0,1.610769574E0
5.377794292E0,6.919328955E-1,-6.670040407E-2,-1.485172310E0,1.639803911E0
5.387792292E0,7.761594057E-1,-1.014129388E-1,-1.572761262E0,1.756782854E0
5.397790292E0,8.768174690E-1,-4.500385358E-2,-1.713000882E0,1.924891229E0
5.407788292E0,1.003623404E0,-3.168289590E-2,-1.891590636E0,2.141583264E0
5.417786292E0,1.118311861E0,5.817141778E-2,-2.084702534E0,2.366429798E0
5.427784292E0,1.203201445E0,6.017853850E-3,-2.224972560E0,2.529472835E0
5.437782292E0,1.239191350E0,-6.129399539E-2,-2.254950065E0,2.573742790E0
5.447780292E0,1.211458883E0,-1.233015886E-1,-2.179712772E0,2.496794680E0
5.457778292E0,1.191413459E0,-5.485526992E-2,-2.192287209E0,2.495715997E0
5.467776292E0,1.178886384E0,2.752705133E-2,-2.210289032E0,2.505176331E0
5.477774292E0,1.156969265E0,7.824820731E-2,-2.226773502E0,2.510621615E0
5.487772292E0,1.144485460E0,3.763463053E-2,-2.229658518E0,2.506519587E0
5.497770292E0,1.153899477E0,4.712215363E-2,-2.196539889E0,2.481630912E0
5.507768292E0,1.110955479E0,-8.640489955E-3,-2.075339972E0,2.354003555E0
5.517766292E0,9.830374038E-1,-1.974164586E-2,-1.840015855E0,2.086243182E0
5.527764625E0,8.279508260E-1,1.277589211E-3,-1.536477535E0,1.745355957E0
5.537762625E0,7.138228244E-1,-1.472888772E-1,-1.271961193E0,1.465988511E0
5.547760625E0,6.492949989E-1,-3.611418544E-2,-1.157556326E0,1.327714155E0
5.557758625E0,5.984356248E-1,-1.877812065E-2,-1.187737899E0,1.330112451E0
5.567756625E0,6.206945130E-1,3.841439785E-2,-1.105227839E0,1.268174247E0
5.577754625E0,6.199492854E-1,8.405233629E-2,-1.092737601E0,1.259157408E0
5.587752625E0,5.389665180E-1,-1.910957098E-2,-1.086376415E0,1.212874189E0
5.597750625E0,5.517730898E-1,3.190079833E-2,-1.128179330E0,1.256288105E0
5.607748625E0,4.984113997E-1,-6.460504064E-2,-1.166574486E0,1.270229809E0
5.617746625E0,4.386920321E-1,-4.749074292E-2,-8.810806739E-1,9.853980027E-1
5.627744625E0,3.932308075E-1,-1.994205917E-2,-6.878208411E-1,7.925437925E-1
5.637742625E0,3.521231273E-1,-7.545653185E-2,-5.828364229E-1,6.851150858E-1
5.647740625E0,3.103895026E-1,-2.236498774E-2,-4.583246434E-1,5.539885511E-1
5.657738625E0,2.158163443E-1,-6.898957986E-2,-3.990970266E-1,4.589277647E-1
5.667736625E0,1.883531418E-1,-5.985618790E-3,-2.357363462E-1,3.018018532E-1
5.677734625E0,2.051004446E-1,-1.114718902E-2,-2.753255045E-1,3.435033997E-1
5.687732625E0,2.454415548E-1,1.109364360E-2,-3.947893828E-1,4.649981533E-1
5.697730625E0,3.035090840E-1,7.196635167E-2,-5.082241970E-1,5.963126313E-1
5.707728625E0,2.550248489E-1,2.949027226E-3,-5.543669146E-1,6.102204899E-1
5.717726625E0,8.759333700E-2,-2.736655668E-2,-3.037394643E-1,3.172998318E-1
5.727724625E0,-6.330663443E-2,-3.867839964E-2,-2.493837476E-3,7.422915725E-2
5.737722625E0,-1.123767605E-1,-2.804033408E-2,3.596563876E-2,1.212778785E-1
5.747720625E0,-3.354723036E-2,-2.825965035E-2,-1.761064410E-2,4.726689421E-2
5.757718625E0,1.373119193E-1,1.424111299E-2,-2.978431320E-1,3.282802214E-1
5.767716625E0,2.217188162E-1,1.942815059E-3,-4.233524466E-1,4.779019795E-1
5.777714625E0,2.062289572E-1,2.309378607E-2,-2.598198581E-1,3.325207729E-1
5.787712625E0,1.863133407E-1,-1.309244575E-2,-1.572918552E-1,2.441819010E-1
5.797710625E0,1.889881495E-1,-6.006403815E-3,-2.002431625E-1,2.754086448E-1
5.807708625E0,1.848293173E-1,-1.316740888E-2,-2.472062445E-1,3.089436591E-1
5.817706625E0,1.709310704E-1,3.678286937E-4,-2.786970091E-1,3.269397330E-1
5.827704625E0,1.173080099E-1,-2.367135165E-2,-2.832870734E-1,3.075273451E-1
5.837702625E0,1.100861138E-1,-2.981891776E-2,-1.854994082E-1,2.177570912E-1
5.847700625E0,1.096782705E-1,-7.307562330E-3,-1.635600704E-1,1.970650150E-1
5.857698625E0,1.218179673E-1,-3.685077701E-2,-1.504336560E-1,1.970479175E-1
5.867696625E0,1.912507296E-1,5.215689867E-2,-2.695396847E-1,3.345875450E-1
5.877694625E0,1.959203160E-1,-5.469206865E-2,-4.452906150E-1,4.895505330E-1
5.887692625E0,1.483847916E-1,-2.630716683E-2,-3.939649254E-1,4.218038358E-1
5.897690625E0,9.660418868E-2,-2.070597277E-2,-2.989698905E-1,3.148715643E-1
5.907688625E0,4.245487869E-2,-4.888839648E-2,-2.818223459E-1,2.891648780E-1
5.917686625E0,1.546939373E-2,-6.219932253E-3,-1.153334051E-1,1.165323305E-1
5.927684625E0,5.121546954E-2,-1.462513573E-2,-8.542489707E-2,1.006694192E-1
5.937682625E0,8.554359555E-2,-7.065722861E-3,-9.401679575E-2,1.273058878E-1
5.947680625E0,1.401352474E-1,4.552002568E-3,-1.616380906E-1,2.139754206E-1
5.957678625E0,1.656843638E-1,-1.840383489E-2,-2.281542617E-1,2.825674728E-1
5.967676625E0,1.332261774E-1,3.006905296E-2,-1.426404870E-1,1.974833431E-1
5.977674625E0,3.386648834E-2,-1.447990095E-2,6.046605706E-2,7.080078121E-2
5.987672625E0,-2.077515721E-3,-5.722491802E-2,1.540086436E-1,1.643096760E-1
5.997670625E0,4.522207350E-2,-6.554498512E-2,7.478705764E-2,1.092441531E-1
6.007668625E0,9.652759016E-2,-3.915633186E-2,-1.988947946E-1,2.245215653E-1
6.017666625E0,1.453880936E-1,-2.073161145E-2,-4.280161858E-1,4.525100582E-1
6.027664625E0,1.820551059E-1,6.805121139E-2,-4.702254814E-1,5.088094263E-1
6.037662625E0,1.209902939E-1,3.083305564E-2,-3.230031163E-1,3.462951655E-1
6.047660625E0,5.720214128E-2,7.431067402E-2,-9.195272863E-2,1.313372207E-1
6.057658625E0,3.376386970E-2,1.270099979E-2,-4.519605339E-2,5.782730786E-2
6.067656625E0,5.635751098E-2,-6.060802563E-2,-1.173407543E-1,1.435909274E-1
6.077654625E0,1.363187698E-1,-5.029710950E-2,-2.622335887E-1,2.997983677E-1
6.087652625E0,2.076422292E-1,-5.160401702E-2,-3.497131974E-1,4.099726702E-1
6.097650625E0,2.020031744E-1,-5.092176572E-2,-3.679611880E-1,4.228400934E-1
6.107648625E0,2.248207641E-1,-6.539823828E-2,-3.072238201E-1,3.862742305E-1
6.117646625E0,1.860323820E-1,-1.012967071E-2,-3.008579564E-1,3.538730949E-1
6.127644625E0,1.232996517E-1,1.698614091E-2,-2.266123509E-1,2.585430152E-1
6.137642625E0,1.007457715E-1,1.704309873E-2,-2.721177220E-1,2.906685954E-1
6.147640625E0,1.099700466E-1,1.732803172E-2,-2.874654937E-1,3.082694955E-1
6.157638625E0,1.179944730E-1,1.964677478E-2,-2.243757910E-1,2.542699097E-1
6.167636625E0,1.255546305E-1,1.555950937E-2,-1.558709818E-1,2.007531483E-1
6.177634625E0,1.132427332E-1,-3.004613690E-2,-9.164107203E-2,1.487439849E-1
6.187632625E0,1.500278592E-1,-3.159824147E-2,-2.468419629E-1,2.905817649E-1
6.197630625E0,1.755155799E-1,-2.422231696E-2,-3.239503652E-1,3.692374284E-1
6.207628625E0,2.341719237E-1,6.409619583E-3,-4.344264883E-1,4.935625055E-1
6.217626625E0,2.898192903E-1,2.584419069E-3,-5.265920556E-1,6.010832665E-1
6.227624625E0,2.665681297E-1,-4.783347655E-2,-4.714615828E-1,5.437119028E-1
6.237622625E0,2.407222670E-1,-1.238921985E-2,-3.804028934E-1,4.503410529E-1
6.247620625E0,1.846246648E-1,-5.628482735E-2,-3.544529504E-1,4.035977486E-1
6.257618625E0,1.496007201E-1,-3.888733253E-2,-3.899028647E-1,4.194244199E-1
6.267616625E0,1.465268388E-1,-5.754547791E-2,-3.817781585E-1,4.129602388E-1
6.277614625E0,2.043841606E-1,-1.622318434E-2,-4.791126645E-1,5.211381986E-1
6.287612625E0,2.179587641E-1,2.760012097E-2,-4.232372564E-1,4.768622073E-1
6.297610625E0,2.167650551E-1,2.597092452E-2,-4.021463495E-1,4.575841611E-1
6.307608625E0,3.084561208E-1,3.746659161E-2,-5.679295313E-1,6.473738306E-1
6.317606625E0,2.736669418E-1,1.820605739E-2,-4.593519992E-1,5.350040324E-1
6.327604625E0,1.755784374E-1,-1.796024136E-2,-2.262901694E-1,2.869801364E-1
6.337602625E0,-1.557552069E-2,-9.369309755E-2,2.554742074E-1,2.725583681E-1
6.347600625E0,-1.517451864E-1,-7.425320685E-2,4.539643747E-1,4.843798033E-1
6.357598625E0,-1.211487535E-1,-5.409085611E-2,1.994257218E-1,2.395275760E-1
6.367596625E0,-5.902910382E-2,-7.356427694E-2,-1.006802827E-1,1.379588970E-1
6.377594625E0,1.045189798E-3,7.489826437E-2,-1.879944152E-1,2.023678397E-1
6.387592625E0,2.285881251E-2,6.180091244E-3,-1.435438818E-1,1.454838989E-1
6.397590625E0,3.322446406E-2,2.467083952E-2,-1.191031051E-1,1.260875290E-1
6.407588625E0,1.013059348E-2,1.828220367E-2,2.490738451E-2,3.251531483E-2
6.417586625E0,-6.065316796E-3,9.765409736E-3,-1.829009056E-2,2.160274769E-2
6.427584625E0,4.315186679E-2,-2.993035746E-2,-5.769798517E-2,7.801901947E-2
6.437582625E0,1.658717671E-1,1.343919249E-2,-2.668043572E-1,3.144497098E-1
6.447580625E0,2.009193930E-1,1.016059700E-2,-3.012011880E-1,3.622071173E-1
6.457578625E0,2.005480948E-1,-5.207876068E-2,-1.928932124E-1,2.830892563E-1
6.467576625E0,2.161867654E-1,7.601930809E-3,-1.977896708E-1,2.931130512E-1
6.477574625E0,1.607525298E-1,-3.493235581E-2,-2.790794170E-1,3.239551918E-1
6.487572625E0,1.103077233E-1,-8.351003445E-2,-2.882104290E-1,3.196982500E-1
6.497570625E0,4.934962302E-2,-1.000308489E-1,-1.969944495E-1,2.263810265E-1
6.507568625E0,1.435763338E-1,1.045551594E-2,-3.352723289E-1,3.648712320E-1
6.517566625E0,2.270544004E-1,7.034709320E-2,-4.209737992E-1,4.834473642E-1
6.527564000E0,1.685649946E-1,1.408450126E-2,-2.864843309E-1,3.326947587E-1
6.537562000E0,1.847989118E-1,4.503117561E-2,-3.982316387E-1,4.413240109E-1
6.547560000E0,1.768689179E-1,5.444011761E-2,-3.923019773E-1,4.337593595E-1
6.557558000E0,1.587165293E-1,-6.936120240E-3,-3.336690223E-1,3.695592820E-1
6.567556000E0,7.106647432E-2,-7.191250247E-2,-2.054968858E-1,2.290214441E-1
6.577554000E0,-1.358202946E-1,-5.536007192E-2,3.125909793E-1,3.452897484E-1
6.587552000E0,-2.125076973E-1,-7.530979872E-2,6.046886373E-1,6.453521792E-1
6.597550000E0,-2.464013752E-1,-8.612515597E-2,6.195200998E-1,6.722621023E-1
6.607548000E0,-2.295956004E-1,-4.242485232E-2,4.052243239E-1,4.676759139E-1
6.617546000E0,-1.576733860E-1,3.817468942E-2,2.607583362E-1,3.071044016E-1
6.627544000E0,-1.143057570E-1,7.607901364E-3,7.077118993E-2,1.346560343E-1
6.637542000E0,-1.403609499E-1,5.669772757E-2,1.425808454E-1,2.079546250E-1
6.647540000E0,-2.284083232E-1,3.671959153E-2,4.241593623E-1,4.831457908E-1
6.657538000E0,-3.452073330E-1,2.577411546E-4,6.431030899E-1,7.298970841E-1
6.667536000E0,-3.778298262E-1,-1.325267088E-2,7.636726767E-1,8.521308397E-1
6.677534000E0,-2.976092434E-1,-3.996341208E-2,6.616557205E-1,7.266062403E-1
6.687532000E0,-1.921693271E-1,-5.172331392E-2,4.258579785E-1,4.700631546E-1
6.697530000E0,-8.593272775E-2,-5.055549248E-2,2.572307110E-1,2.758766576E-1
6.707528000E0,-6.136126578E-2,-1.706971270E-3,1.638530159E-1,1.749740824E-1
6.717526000E0,-1.465201145E-1,2.592535964E-2,2.979168069E-1,3.330085466E-1
6.727524000E0,-2.563919279E-1,4.286739975E-3,5.041329002E-1,5.656016071E-1
6.737522000E0,-2.490247285E-1,7.269607962E-3,3.960050189E-1,4.678526880E-1
6.747520000E0,-1.611577418E-1,2.071664394E-2,2.908428454E-1,3.331524543E-1
6.757518000E0,-1.017131934E-1,-1.013370438E-2,1.809707397E-1,2.078429078E-1
6.767516000E0,-4.593455672E-2,-3.291740758E-2,8.625754058E-2,1.031208152E-1
6.777514000E0,-3.581916600E-2,-3.949304012E-2,1.018725300E-1,1.149814126E-1
6.787512000E0,-8.491121918E-2,-2.943015329E-2,1.765122378E-1,1.980722574E-1
6.797510000E0,-6.115281254E-2,-3.587398594E-2,1.009077394E-1,1.233246983E-1
6.807508000E0,4.888564646E-3,-2.680644367E-2,-3.246023297E-2,4.238101239E-2
6.817506000E0,9.883256257E-3,1.833158067E-2,-1.194761574E-2,2.400981312E-2
6.827504000E0,2.243284285E-3,-3.541423262E-3,2.986757755E-2,3.016034138E-2
6.837502000E0,1.667625904E-3,-9.505450751E-3,-2.168147564E-3,9.891179606E-3
6.847500000E0,-2.461239249E-2,4.862807204E-3,3.362909138E-2,4.195631710E-2
6.857498000E0,-5.307517648E-2,9.473852946E-3,8.547635257E-2,1.010590674E-1
6.867496000E0,-6.751429081E-2,-2.674206035E-2,1.378989798E-1,1.558507166E-1
6.877494000E0,-1.710573703E-2,-1.541483418E-2,1.247076613E-1,1.268157093E-1
6.887492000E0,1.257765323E-2,-2.372272492E-3,9.367824197E-2,9.454860155E-2
6.897490000E0,5.205922276E-2,-1.019571684E-2,-2.997107327E-2,6.092930780E-2
6.907488000E0,5.035388231E-2,-4.231480133E-2,-7.609274089E-2,1.005791285E-1
6.917486000E0,2.295763046E-2,-1.633047846E-2,-5.258050203E-2,5.965271592E-2
6.927484000E0,-3.387584388E-2,-2.783758416E-2,8.900631666E-3,4.474064299E-2
6.937482000E0,-3.734207332E-2,-3.606622457E-2,4.722269833E-2,7.017967108E-2
6.947480000E0,-1.339597106E-3,-2.903804266E-2,-5.833299279E-2,6.517469210E-2
6.957478000E0,4.153774291E-2,-1.644463164E-3,-1.011761266E-1,1.093832571E-1
6.967476000E0,8.694488078E-2,-3.660320453E-3,-1.967991525E-1,2.151806605E-1
6.977474000E0,9.134432584E-2,-1.186772359E-3,-2.184835517E-1,2.368127038E-1
6.987472000E0,6.907842100E-2,3.055899253E-2,-1.454407185E-1,1.638861888E-1
6.997470000E0,-1.235867500E-2,4.534734095E-2,2.015301347E-2,5.113963366E-2
7.007468000E0,-6.858199239E-2,1.006087228E-2,1.616708350E-1,1.759038650E-1
7.017466000E0,-1.058249554E-1,-3.133025626E-2,2.855914611E-1,3.061747684E-1
7.027464000E0,-8.760006130E-2,-4.819419494E-2,2.870667136E-1,3.039798500E-1
7.037462000E0,-7.468560845E-2,-7.304818707E-2,1.942351484E-1,2.205476607E-1
7.047460000E0,-4.029228598E-2,-7.200840594E-2,5.036206841E-3,8.266826607E-2
7.057458000E0,-5.133036733E-2,-6.110998169E-2,2.818357944E-3,7.985724521E-2
7.067456000E0,-9.458719164E-2,1.347554344E-2,1.171191448E-1,1.511463568E-1
7.077454000E0,-8.558715731E-2,4.143641706E-2,2.391505355E-1,2.573618402E-1
7.087452000E0,-7.172048539E-2,3.146690981E-2,1.605563557E-1,1.786402469E-1
7.097450000E0,-4.454116523E-2,2.951371594E-2,1.222682029E-1,1.334334601E-1
7.107448000E0,-2.844436526E-2,7.081083222E-2,1.412266302E-1,1.605248173E-1
7.117446000E0,-6.877699703E-2,-1.130435807E-3,1.097200781E-1,1.294992230E-1
7.127444000E0,-1.514882013E-1,-4.462696399E-2,3.065607458E-1,3.448474038E-1
7.137442000E0,-2.030609357E-1,-8.337979686E-2,4.475353611E-1,4.984714972E-1
7.147440000E0,-2.456584865E-1,-8.284943612E-2,4.374150002E-1,5.084722249E-1
7.157438000E0,-2.342432597E-1,-5.663380106E-2,3.369510645E-1,4.142623710E-1
7.167436000E0,-1.148460397E-1,-1.801741617E-2,1.249778026E-1,1.706859434E-1
7.177434000E0,-4.828689158E-2,7.735089725E-4,1.844445705E-2,5.169545638E-2
7.187432000E0,-7.607344508E-2,2.800456328E-2,1.383650029E-1,1.603630214E-1
7.197430000E0,-1.024864876E-1,3.665738493E-2,2.688660854E-1,2.900624345E-1
7.207428000E0,-1.628689295E-1,5.575516555E-3,3.571485168E-1,3.925715701E-1
7.217426000E0,-2.017754254E-1,8.084243874E-3,4.462758708E-1,4.898375549E-1
7.227424000E0,-1.969207746E-1,-1.755530340E-2,4.815322423E-1,5.205374919E-1
7.237422000E0,-2.384950626E-1,-4.874744204E-2,4.567494035E-1,5.175676048E-1
7.247420000E0,-1.967061818E-1,-3.437614856E-2,4.349749571E-1,4.786212018E-1
7.257418000E0,-1.590609303E-1,-6.306150818E-2,3.877353019E-1,4.238110401E-1
7.267416000E0,-1.880584422E-1,-3.815712037E-2,2.352387482E-1,3.035773578E-1
7.277414000E0,-1.893395671E-1,1.484769538E-2,2.331004214E-1,3.006754599E-1
7.287412000E0,-1.540609762E-1,5.875981669E-2,3.039487946E-1,3.457923802E-1
7.297410000E0,-1.959553993E-1,2.193674772E-2,3.477368385E-1,3.997507326E-1
7.307408000E0,-2.017631462E-1,-5.323232040E-3,4.026878017E-1,4.504377533E-1
7.317406000E0,-1.516492921E-1,-1.087964464E-2,3.970627803E-1,4.251761117E-1
7.327404000E0,-1.787397346E-1,-1.486567785E-3,3.984123176E-1,4.366720479E-1
7.337402000E0,-2.019216058E-1,-8.385844627E-2,3.970785677E-1,4.532945652E-1
7.347400000E0,-1.957563016E-1,-1.111370960E-1,4.097518229E-1,4.675131443E-1
7.357398000E0,-1.307297087E-1,-1.769301218E-3,3.218617398E-1,3.474023124E-1
7.367396000E0,-1.187777075E-1,-1.478511190E-2,1.988298905E-1,2.320777212E-1
7.377394000E0,-8.822571337E-2,-1.307779573E-2,7.026832938E-2,1.135448958E-1
7.387392000E0,-5.181480914E-2,5.642128675E-2,3.375012875E-3,7.667807220E-2
7.397390000E0,-4.765626937E-2,7.256191799E-2,1.427012980E-2,8.797720476E-2
7.407388000E0,-5.654082119E-2,2.597232922E-2,3.890094101E-2,7.338058025E-2
7.417386000E0,-3.284234852E-2,1.164603418E-2,7.060980678E-2,7.874004560E-2
7.427384000E0,-2.212001681E-3,-2.648549777E-2,9.845307827E-2,1.019773659E-1
7.437382000E0,-3.711637080E-2,-7.005513442E-2,2.363695997E-1,2.493109193E-1
7.447380000E0,-8.267787516E-2,-9.007056473E-2,2.851728004E-1,3.102770758E-1
7.457378000E0,-6.309438050E-2,-8.484139063E-2,1.402986771E-1,1.756777766E-1
7.467376000E0,-4.427833289E-2,-2.700147572E-2,5.130873263E-2,7.295365994E-2
7.477374000E0,-4.677597106E-2,8.247004319E-3,-7.858073115E-3,4.814305621E-2
7.487372000E0,-1.722531259E-2,3.923887810E-2,-4.829215407E-3,4.312449733E-2
7.497370000E0,-3.731605321E-2,1.751495990E-2,-1.495659292E-2,4.385158286E-2
7.507368000E0,-2.070089757E-2,3.345367263E-2,3.390975773E-2,5.193791527E-2
7.517366000E0,-3.695352584E-2,4.691981713E-3,1.028560317E-1,1.093935145E-1
7.527365042E0,-6.982978821E-2,3.183936831E-3,1.278593105E-1,1.457200743E-1
7.537363042E0,-6.328178376E-2,-4.173533312E-2,1.416663408E-1,1.606728798E-1
7.547361042E0,-6.546805769E-2,-7.179513789E-2,1.973704255E-1,2.199902117E-1
7.557359042E0,-8.685658783E-2,-5.122185580E-2,2.127269679E-1,2.354156075E-1
7.567357042E0,-6.861152083E-2,-2.442115427E-2,1.374347109E-1,1.555385268E-1
7.577355042E0,-3.681962460E-2,-2.215573051E-2,8.590436876E-2,9.605270284E-2
7.587353042E0,-6.163608491E-2,2.011797129E-2,1.039529693E-1,1.225151401E-1
7.597351042E0,-9.117797256E-2,1.448480941E-2,1.733009470E-1,1.963579655E-1
7.607349042E0,-1.470905104E-1,5.616428792E-3,2.614956701E-1,3.000785697E-1
7.617347042E0,-2.184236178E-1,1.965951303E-2,3.800865591E-1,4.388179185E-1
7.627345042E0,-2.415940869E-1,4.723079307E-3,4.575744456E-1,5.174595478E-1
7.637343042E0,-2.587492329E-1,-3.128719015E-2,4.808896333E-1,5.469779641E-1
7.647341042E0,-2.633258486E-1,-4.065062894E-2,4.229139054E-1,4.998491248E-1
7.657339042E0,-2.247046968E-1,-1.627631863E-3,4.764913577E-1,5.268195743E-1
7.667337042E0,-2.414841592E-1,-2.372910204E-2,5.073079383E-1,5.623513259E-1
7.677335042E0,-2.359892383E-1,-3.590901441E-2,5.070541692E-1,5.604322514E-1
7.687333042E0,-2.322022891E-1,-5.117594602E-2,4.745255238E-1,5.307648757E-1
7.697331042E0,-2.416242000E-1,1.997166070E-2,4.350924861E-1,4.980829176E-1
7.707329042E0,-2.483227703E-1,1.339612409E-2,4.083169162E-1,4.780861413E-1
7.717327042E0,-2.459499702E-1,-1.350905073E-2,4.132338399E-1,4.810780484E-1
7.727325042E0,-2.999715185E-1,9.637960992E-3,5.217447138E-1,6.019080898E-1
7.737323042E0,-3.651776209E-1,-1.940236345E-3,6.706241798E-1,7.636067378E-1
7.747321042E0,-4.070892933E-1,-2.568997038E-2,8.088570356E-1,9.058870633E-1
7.757319042E0,-4.806867349E-1,-5.320703119E-2,9.940494651E-1,1.105452425E0
7.767317042E0,-5.823867720E-1,-3.676224880E-2,1.138697886E0,1.279515022E0
7.777315042E0,-6.528118068E-1,-2.336784689E-2,1.255418835E0,1.415198136E0
7.787313042E0,-6.701724824E-1,-1.046444437E-2,1.310426517E0,1.471889369E0
7.797311042E0,-6.409977999E-1,-4.997471322E-3,1.132715600E0,1.301517493E0
7.807309042E0,-5.997345838E-1,2.783114537E-2,1.023219470E0,1.186353331E0
7.817307042E0,-6.317735249E-1,3.112888592E-2,1.119175787E0,1.285558725E0
7.827305042E0,-7.544621426E-1,1.534654967E-2,1.327362392E0,1.526872477E0
7.837303042E0,-8.991263509E-1,-3.360641515E-2,1.698080542E0,1.921727117E0
7.847301042E0,-1.023065980E0,-5.530100591E-2,2.064081743E0,2.304377496E0
7.857299042E0,-1.128616701E0,-4.124808647E-2,2.261557419E0,2.527868474E0
7.867297042E0,-1.128730430E0,-2.941724373E-2,2.247038198E0,2.514772041E0
7.877295042E0,-1.063523450E0,-2.956119259E-3,2.094594269E0,2.349130907E0
7.887293042E0,-1.014862044E0,9.739202333E-3,1.897026207E0,2.151452591E0
7.897291042E0,-9.948560885E-1,6.747807462E-2,1.801094449E0,2.058696952E0
7.907289042E0,-9.520661643E-1,2.581283043E-3,1.654089600E0,1.908520120E0
7.917287042E0,-9.319575897E-1,5.667418339E-3,1.582300410E0,1.836369150E0
7.927285042E0,-9.135265812E-1,-3.259745753E-2,1.557418168E0,1.805863993E0
7.937283042E0,-8.484298217E-1,-2.666206998E-2,1.619171782E0,1.828185245E0
7.947281042E0,-8.520486635E-1,-1.308661224E-1,1.819772210E0,2.013624533E0
7.957279042E0,-7.686585975E-1,-9.936697980E-2,1.699680340E0,1.868053290E0
7.967277042E0,-6.934227660E-1,4.924634658E-2,1.524259193E0,1.675298905E0
7.977275042E0,-7.792826959E-1,1.270816948E-2,1.648476273E0,1.823435505E0
7.987273042E0,-8.766902921E-1,-3.186990630E-3,1.783873814E0,1.987662398E0
7.997271042E0,-9.594877428E-1,2.757367146E-2,1.824013780E0,2.061165521E0
8.007269042E0,-9.802263549E-1,-1.248758784E-2,1.711106969E0,1.972026041E0
8.017267042E0,-1.017067614E0,2.202915656E-3,1.596990954E0,1.893359842E0
8.027265042E0,-1.010415529E0,1.733382641E-2,1.476644146E0,1.789334496E0
8.037263042E0,-8.975894102E-1,5.119366582E-2,1.220854774E0,1.516170808E0
8.047261042E0,-8.194498515E-1,1.162670182E-2,1.293117004E0,1.530942463E0
8.057259042E0,-6.775396818E-1,1.431381490E-2,1.301301937E0,1.467191751E0
8.067257042E0,-5.833416224E-1,-9.587933494E-2,1.595128031E0,1.701150708E0
8.077255042E0,-4.969504729E-1,-1.550471091E-1,1.439585663E0,1.530818820E0
8.087253042E0,-3.234738171E-1,1.144174388E-1,1.103253234E0,1.155376285E0
8.097251042E0,-4.890467915E-1,-1.192218035E-1,1.231822397E0,1.330701702E0
8.107249042E0,-6.222527960E-1,-4.034164470E-2,1.394794237E0,1.527834073E0
8.117247042E0,-8.245246500E-1,2.648861781E-2,1.603051593E0,1.802863543E0
8.127245042E0,-9.042859340E-1,-1.834931920E-1,1.609411025E0,1.855156772E0
8.137243042E0,-8.102708924E-1,4.058693083E-2,1.237176692E0,1.479456787E0
8.147241042E0,-6.950020990E-1,7.621031561E-2,9.783596313E-1,1.202507172E0
8.157239042E0,-6.229676181E-1,1.220671318E-1,7.241367280E-1,9.629969049E-1
8.167237042E0,-5.210594201E-1,5.032746021E-2,4.899381995E-1,7.169903848E-1
8.177234042E0,-3.460604417E-1,3.052037121E-2,3.793410391E-1,5.143821015E-1
8.187232042E0,-1.776360726E-1,9.115271989E-2,1.978013653E-1,2.810494133E-1
8.197230042E0,-6.089290380E-2,-1.499284383E-1,3.065999222E-1,3.466842867E-1
8.207228042E0,1.027443498E-1,-2.397320776E-1,3.339046651E-1,4.236982368E-1
8.217226042E0,1.844162115E-1,-2.671808905E-2,1.477263951E-1,2.377946240E-1
8.227224042E0,1.386754900E-1,-2.640127731E-2,8.198498011E-2,1.632466108E-1
8.237222042E0,1.821524620E-1,1.015863270E-1,-1.765929294E-1,2.732844012E-1
8.247220042E0,1.061556154E-1,2.696861940E-2,-2.156915063E-1,2.419073108E-1
8.257218042E0,-4.838775605E-2,-7.205903918E-2,-5.297285020E-2,1.016858049E-1
8.267216042E0,-6.771543503E-2,-5.599907666E-2,-1.939071196E-1,2.128878761E-1
8.277214042E0,4.639239371E-2,-9.564389315E-2,-3.518316436E-1,3.675398127E-1
8.287212042E0,1.381568420E-1,-1.730920871E-2,-5.038569117E-1,5.227415319E-1
8.297210042E0,1.388690329E-1,5.866965537E-2,-4.116317028E-1,4.383690175E-1
8.307208042E0,2.045160154E-1,1.965719699E-2,-2.250564069E-1,3.047352822E-1
8.317206042E0,1.889726543E-1,2.915733956E-2,-1.518311405E-1,2.441587798E-1
8.327204042E0,2.315968099E-1,-2.593352061E-3,-1.150550777E-1,2.586145370E-1
8.337202042E0,2.927510843E-1,3.541338294E-2,-2.390692592E-1,3.796200939E-1
8.347200042E0,3.934404302E-1,2.878802623E-2,-5.636183792E-1,6.879606093E-1
8.357198042E0,3.651214877E-1,-3.256284704E-3,-5.751666301E-1,6.812789125E-1
8.367196042E0,2.636930537E-1,4.400287421E-2,-6.579146719E-1,7.101563173E-1
8.377194042E0,1.745300317E-1,-5.684409069E-2,-6.408723772E-1,6.666403726E-1
8.387192042E0,1.530897537E-1,-1.654890851E-1,-5.962592912E-1,6.374545100E-1
8.397190042E0,1.354025111E-1,-1.827211037E-1,-5.140790141E-1,5.621370602E-1
8.407188042E0,2.999846748E-1,-2.059504470E-1,-7.059939873E-1,7.942505284E-1
8.417186042E0,4.381266063E-1,-2.613049412E-2,-8.653212583E-1,9.702672858E-1
8.427184042E0,4.863132182E-1,1.701225284E-1,-9.733637702E-1,1.101307972E0
8.437182042E0,4.566640341E-1,1.788964217E-1,-8.725443238E-1,1.000939342E0
8.447180042E0,4.162761462E-1,1.230875440E-1,-6.499700600E-1,7.815992914E-1
8.457178042E0,4.234261215E-1,4.429058463E-2,-5.649550527E-1,7.074076250E-1
8.467176042E0,4.389832234E-1,2.018238431E-2,-5.014326560E-1,6.667445595E-1
8.477174042E0,4.216722491E-1,-4.989626917E-2,-5.450049376E-1,6.908889241E-1
8.487172042E0,4.409014025E-1,-3.579968518E-2,-6.396965021E-1,7.777449961E-1
8.497170042E0,4.135440347E-1,-2.336090333E-2,-7.430729359E-1,8.507183956E-1
8.507168042E0,3.184580755E-1,-1.940479279E-1,-6.715743524E-1,7.681681163E-1
8.517166042E0,2.295435601E-1,-1.441683827E-1,-4.993598181E-1,5.681857060E-1
8.527163875E0,1.066137448E-1,-1.102001528E-1,-5.514152402E-1,5.723367290E-1
8.537161875E0,2.146083096E-1,1.689792790E-3,-6.046710956E-1,6.416281757E-1
8.547159875E0,2.362742901E-1,1.273819219E-1,-6.904743075E-1,7.408147296E-1
8.557157875E0,3.460157105E-1,1.836617745E-1,-8.142768198E-1,9.036068053E-1
8.567155875E0,2.995703995E-1,6.941804830E-2,-6.196417218E-1,6.917493427E-1
8.577153875E0,2.122808254E-1,-1.171528668E-1,-3.435671890E-1,4.205072608E-1
8.587151875E0,1.796147704E-1,-2.944146400E-2,-1.961857796E-1,2.676137621E-1
8.597149875E0,1.038977131E-1,-1.101301872E-1,3.779406309E-2,1.560505820E-1
8.607147875E0,2.265503705E-1,3.260499267E-2,-2.079357594E-1,3.092336268E-1
8.617145875E0,1.029358461E-1,-2.018891903E-2,-1.373224443E-1,1.728028778E-1
8.627143875E0,8.474135756E-2,-3.773178796E-2,1.148966181E-1,1.476686099E-1
8.637141875E0,-1.925780475E-3,-8.266096392E-2,3.274967015E-2,8.893303369E-2
8.647139875E0,8.659083188E-2,-5.683204908E-2,-1.300631261E-1,1.662656631E-1
8.657137875E0,8.268138349E-2,-7.865900618E-3,-2.468390393E-1,2.604373147E-1
8.667135875E0,9.707985967E-2,-3.744443386E-2,-2.871403885E-1,3.054115052E-1
8.677133875E0,9.129082382E-2,-1.382088320E-2,-2.424267304E-1,2.594142458E-1
8.687131875E0,1.602128318E-1,7.398209247E-2,-3.610474402E-1,4.018665892E-1
8.697129875E0,2.075176835E-1,1.736662700E-1,-3.768226433E-1,4.639168749E-1
8.707127875E0,2.048569080E-1,1.806057456E-1,-4.897160053E-1,5.607196750E-1
8.717125875E0,2.387339213E-1,1.641726211E-1,-4.595332628E-1,5.432470473E-1
8.727123875E0,2.602502131E-1,7.752174558E-4,-6.127092630E-1,6.656901797E-1
8.737121875E0,3.579598179E-1,-8.503124242E-2,-6.708124602E-1,7.650848974E-1
8.747119875E0,3.221026450E-1,-3.575785795E-1,-6.043992001E-1,7.726001213E-1
8.757117875E0,3.324346751E-1,-3.433570912E-1,-5.148520160E-1,7.024809632E-1
8.767115875E0,4.009219426E-1,-8.482737559E-2,-7.285250634E-1,8.358725116E-1
8.777113875E0,4.761048567E-1,1.217904123E-1,-9.598485160E-1,1.078340351E0
8.787111875E0,4.272367519E-1,7.989025164E-2,-9.877514291E-1,1.079150861E0
8.797109875E0,4.290286312E-1,-9.735531835E-3,-9.164767939E-1,1.011973350E0
8.807107875E0,4.293440884E-1,-6.291583029E-2,-8.661661810E-1,9.687820194E-1
8.817105875E0,5.939788771E-1,1.292353888E-2,-1.010711106E0,1.172397059E0
8.827103875E0,6.693015397E-1,2.389125492E-2,-1.108168404E0,1.294825298E0
8.837101875E0,7.548398727E-1,5.630802435E-2,-1.216993858E0,1.433188012E0
8.847099875E0,7.676739264E-1,1.566533256E-2,-1.273785524E0,1.487312416E0
8.857097875E0,8.382547894E-1,-3.212228675E-2,-1.394661505E0,1.627508417E0
8.867095875E0,8.760801351E-1,2.072426816E-4,-1.605278213E0,1.828779535E0
8.877093875E0,9.089555204E-1,-3.642787714E-2,-1.770196007E0,1.990256524E0
8.887091875E0,9.307603723E-1,-2.135180460E-2,-1.881554475E0,2.099289883E0
8.897089875E0,9.830844739E-1,4.495163977E-2,-1.965629835E0,2.198221185E0
8.907087875E0,9.384997469E-1,1.234543197E-2,-1.939136100E0,2.154340502E0
8.917085875E0,1.013164305E0,9.579447722E-2,-1.971130895E0,2.218340708E0
8.927083875E0,1.029012306E0,2.553128699E-2,-2.030442127E0,2.276447540E0
8.937081875E0,1.174121780E0,1.262991546E-1,-2.198161907E0,2.495281387E0
8.947079875E0,1.185838138E0,9.868151254E-2,-2.122610033E0,2.433397519E0
8.957077875E0,1.098785961E0,-9.689241987E-2,-1.907087511E0,2.203111778E0
8.967075875E0,9.429126406E-1,-2.118306080E-1,-1.701801710E0,1.957060427E0
8.977073875E0,7.933891037E-1,-3.482844668E-1,-1.604154963E0,1.823206375E0
8.987071875E0,8.538227087E-1,-1.537056117E-1,-1.750376285E0,1.953575126E0
8.997069875E0,8.478199571E-1,-8.283025908E-2,-1.809632553E0,2.000107374E0
9.007067875E0,9.314880583E-1,-1.152627817E-2,-1.782472236E0,2.011221055E0
9.017065875E0,8.346330240E-1,4.481718579E-2,-1.624975144E0,1.827338251E0
9.027063875E0,8.040734285E-1,9.368754270E-2,-1.382865332E0,1.602381965E0
9.037061875E0,6.939694807E-1,1.055386246E-1,-1.181004245E0,1.373864283E0
9.047059875E0,6.256816033E-1,2.417926364E-1,-9.028481036E-1,1.124755905E0
9.057057875E0,4.369539472E-1,-4.497301865E-2,-8.198129636E-1,9.300777493E-1
9.067055875E0,3.773945010E-1,3.839298700E-2,-6.762597263E-1,7.753888368E-1
9.077053875E0,2.353293800E-1,-4.796431257E-2,-5.658976239E-1,6.147524812E-1
9.087051875E0,1.974566719E-1,-2.800521196E-2,-4.433996254E-1,4.861858256E-1
9.097049875E0,6.083150804E-2,-2.003968529E-1,-1.131675965E-1,2.380467936E-1
9.107047875E0,1.559484574E-1,1.004717381E-1,-1.759000343E-1,2.556468533E-1
9.117045875E0,7.816967189E-2,-1.091597869E-1,-4.630141103E-1,4.820875678E-1
9.127043875E0,1.197199863E-1,-1.391060918E-1,-6.069158417E-1,6.340585295E-1
9.137041875E0,1.343652150E-1,-1.035443677E-3,-4.911316162E-1,5.091810558E-1
9.147039875E0,1.741733515E-1,-4.872636009E-2,-3.154970455E-1,3.636605564E-1
9.157037875E0,1.840411127E-1,2.510148467E-2,-2.399410790E-1,3.034352272E-1
9.167035875E0,2.730439210E-1,1.409454705E-1,-2.008536118E-1,3.670977824E-1
9.177033875E0,2.949315110E-1,2.282021404E-2,-1.876710641E-1,3.503224039E-1
9.187031875E0,3.175511724E-1,1.104137497E-2,-3.431976449E-1,4.677021301E-1
9.197029875E0,2.982194003E-1,7.626742646E-2,-3.970376372E-1,5.023847295E-1
9.207026875E0,1.884259397E-1,-1.179115156E-1,-3.513878399E-1,4.157894591E-1
9.217024875E0,1.259683210E-1,-2.860192488E-2,-3.001890349E-1,3.268019962E-1
9.227022875E0,6.998590887E-2,-9.476982577E-2,-2.856212819E-1,3.089641791E-1
9.237020875E0,1.115262830E-1,-1.835152744E-2,-3.179616469E-1,3.374529586E-1
9.247018875E0,1.451308161E-1,-1.799110370E-2,-4.564114344E-1,4.792682245E-1
9.257016875E0,1.484420943E-1,-4.029991477E-2,-6.624328154E-1,6.800561546E-1
9.267014875E0,1.395107648E-1,-3.967878515E-2,-4.843774974E-1,5.056275502E-1
9.277012875E0,1.362369087E-1,3.229831306E-2,-2.907802802E-1,3.227334003E-1
9.287010875E0,1.260343945E-1,-4.938669803E-2,-1.173916250E-1,1.791773093E-1
9.297008875E0,2.274669215E-1,1.147890659E-1,-5.816810131E-2,2.613450938E-1
9.307006875E0,2.890015572E-1,-1.762277707E-3,-3.181136745E-1,4.297921772E-1
9.317004875E0,3.085835901E-1,1.052098192E-2,-4.706137365E-1,5.628603842E-1
9.327002875E0,2.779310238E-1,-1.280984251E-2,-4.274694711E-1,5.100391110E-1
9.337000875E0,1.458772132E-1,-5.818073678E-2,-3.502505565E-1,3.838497255E-1
9.346998875E0,4.854007602E-2,-8.135666938E-2,-3.566731381E-1,3.690403421E-1
9.356996875E0,6.663954735E-2,2.465375697E-3,-2.587650204E-1,2.672194662E-1
9.366994875E0,9.404252350E-2,-6.802392134E-2,-2.127731609E-1,2.423709308E-1
9.376992875E0,2.073612705E-1,1.094287406E-1,-3.553657007E-1,4.257442037E-1
9.386990875E0,1.491671491E-1,-4.510131022E-2,-3.121512687E-1,3.488887804E-1
9.396988875E0,1.283115926E-1,-1.080537496E-1,-1.912881517E-1,2.544221582E-1
9.406986875E0,1.234239051E-1,1.099276771E-2,-2.621406180E-1,2.899517285E-1
9.416984875E0,1.125062764E-1,-6.271456730E-2,-1.751024741E-1,2.173744594E-1
9.426982875E0,1.560271025E-1,3.204251565E-2,-1.006305814E-1,1.884083157E-1
9.436980875E0,1.754419050E-1,2.087570191E-4,-2.111552364E-1,2.745294874E-1
9.446978875E0,2.379606271E-1,5.716158536E-2,-4.422687739E-1,5.054645143E-1
9.456976875E0,2.477579293E-1,3.261954904E-2,-5.518058342E-1,6.057538321E-1
9.466974875E0,2.123296496E-1,-1.417812752E-4,-5.606351298E-1,5.994961626E-1
9.476972875E0,1.601689777E-1,-5.253295686E-2,-5.130352861E-1,5.400176087E-1
9.486970875E0,1.292667353E-1,-1.711434569E-2,-3.559311265E-1,3.790643171E-1
9.496968875E0,1.166539988E-1,-7.031710338E-2,-2.305106896E-1,2.677458281E-1
9.506966875E0,1.999151337E-1,-4.518026134E-2,-3.225856251E-1,3.821894847E-1
9.516964875E0,3.151295480E-1,-3.300277693E-2,-5.539020610E-1,6.381248377E-1
9.526962875E0,4.083385509E-1,-2.905491964E-2,-7.935531181E-1,8.929227916E-1
9.536960875E0,4.357146299E-1,-1.311724845E-2,-7.816674829E-1,8.949990808E-1
9.546958875E0,3.935883647E-1,3.192289898E-2,-6.636928904E-1,7.722817654E-1
9.556956875E0,3.474292749E-1,1.250322457E-2,-5.434226811E-1,6.451136660E-1
9.566954875E0,3.107315648E-1,4.719916786E-2,-4.135566062E-1,5.194332809E-1
9.576952875E0,3.193284336E-1,-1.826986513E-2,-4.121228689E-1,5.216796867E-1
9.586950875E0,3.666081423E-1,-7.167407311E-5,-5.304412776E-1,6.448018952E-1
9.596948875E0,3.780435419E-1,-5.208625699E-2,-7.482553232E-1,8.399499547E-1
9.606946875E0,3.438221276E-1,-3.662015689E-2,-8.747095478E-1,9.405697658E-1
9.616944875E0,2.331726345E-1,-6.671715086E-2,-7.253541183E-1,7.648262892E-1
9.626942875E0,1.458830604E-1,-4.396800105E-3,-5.033932275E-1,5.241239745E-1
9.636940875E0,6.885301083E-2,-3.553557376E-2,-2.123392975E-1,2.260342704E-1
9.646938875E0,1.255522916E-1,2.811944737E-2,-1.957495773E-1,2.342476857E-1
9.656936875E0,1.703247142E-1,1.093682859E-3,-3.620531613E-1,4.001177277E-1
9.666934875E0,2.268880472E-1,3.880686480E-2,-4.188144225E-1,4.779013279E-1
9.676932875E0,3.132736418E-1,-1.130916375E-2,-5.368141580E-1,6.216411441E-1
9.686930875E0,3.370019352E-1,2.167368240E-2,-5.686756361E-1,6.613864467E-1
9.696928875E0,2.143179953E-1,-1.289471165E-2,-3.240977150E-1,3.887644603E-1
9.706926875E0,1.262103957E-1,1.878371662E-2,-2.112043530E-1,2.467573114E-1
9.716924875E0,1.291623625E-1,-4.203940661E-2,-7.859593391E-2,1.569316680E-1
9.726922875E0,1.091417885E-1,-7.937269997E-2,3.473012209E-2,1.393489751E-1
9.736920875E0,1.668812889E-1,-7.895970382E-2,-1.835119396E-1,2.603087232E-1
9.746918875E0,1.438599238E-1,-1.291891592E-2,-3.303343552E-1,3.605320545E-1
9.756916875E0,2.809148580E-2,-1.166728012E-1,-2.370648336E-1,2.657092574E-1
9.766914875E0,6.216964334E-2,-5.462044939E-2,-2.601870632E-1,2.730307051E-1
9.776912875E0,5.247583687E-2,-1.077661716E-2,-7.155705571E-2,8.938826072E-2
9.786910875E0,9.913691014E-2,5.798465406E-2,-1.500389689E-1,1.889498326E-1
9.796908875E0,9.281256169E-2,2.946435036E-2,-3.401179165E-1,3.537831492E-1
9.806906875E0,3.215559304E-2,9.210042564E-2,-1.708842927E-1,1.967686765E-1
9.816904875E0,-4.543578923E-3,5.450272393E-2,-1.458430070E-1,1.557606295E-1
9.826902875E0,5.290911555E-2,1.517730247E-2,-1.482964987E-1,1.581820993E-1
9.836900875E0,4.949755758E-2,1.224078052E-4,-8.689254820E-2,1.000016906E-1
9.846898875E0,6.294527650E-2,-5.611863852E-2,7.654473066E-2,1.138881259E-1
9.856896875E0,1.113485277E-1,-8.022037265E-2,-5.508077145E-4,1.372374081E-1
9.866894875E0,9.918164134E-2,-6.358001917E-2,-8.187622190E-2,1.434682283E-1
9.876892875E0,7.816177815E-2,-1.136857054E-1,-2.469331795E-1,2.828598563E-1
9.886890875E0,1.097984308E-1,-7.345742821E-2,-3.307617867E-1,3.561671640E-1
9.896888875E0,1.390929812E-1,-2.972349850E-4,-1.264840454E-1,1.880030838E-1
9.906886875E0,9.350399494E-2,2.669682437E-2,4.007681608E-3,9.732306517E-2
9.916884875E0,1.056536320E-1,1.871584552E-2,-6.952865660E-2,1.278561962E-1
9.926882875E0,1.174682236E-1,1.123835031E-1,-2.224315917E-1,2.755079823E-1
9.936880875E0,4.227916986E-2,2.373440565E-2,-2.120060062E-1,2.174796471E-1
9.946878875E0,-2.868439347E-2,8.356392933E-3,-6.326921225E-2,6.996868549E-2
9.956876875E0,2.860340953E-2,-6.076947274E-4,-4.050366282E-2,4.958902128E-2
9.966874875E0,8.242761433E-2,-4.825217830E-2,-1.311770207E-1,1.622651998E-1
9.976872875E0,8.152451187E-2,-7.794283647E-2,-4.580708742E-2,1.217358659E-1
9.986869875E0,1.313667628E-1,-8.539333125E-4,-2.529166353E-1,2.849996140E-1
9.996867875E0,1.552152166E-1,-9.383792120E-3,-4.324086142E-1,4.595182571E-1
1.000686588E1,1.579753947E-1,-4.055187494E-2,-4.668732727E-1,4.945415378E-1
1.001686388E1,1.462376940E-1,-1.166256855E-3,-3.347250295E-1,3.652775228E-1
1.002686188E1,9.959006935E-2,-1.838073382E-2,-9.794086218E-2,1.408845122E-1
1.003685988E1,1.132781088E-1,-1.345508961E-2,-1.594728667E-1,1.960728553E-1
1.004685788E1,1.123729599E-1,-2.227841240E-2,-2.402866495E-1,2.661985794E-1
1.005685588E1,7.519607037E-2,-6.355911994E-2,-2.225040972E-1,2.433151948E-1
1.006685388E1,2.475184858E-2,-1.196032658E-2,-4.796880305E-2,5.528751655E-2
1.007685187E1,7.836409181E-2,-6.921415406E-3,-6.526545167E-2,1.022174939E-1
1.008684987E1,4.316268414E-2,4.714564299E-3,-4.923121691E-2,6.564264724E-2
1.009684787E1,6.978856534E-2,3.243365783E-2,-7.970222712E-2,1.107918364E-1
1.010684588E1,5.940478742E-2,3.785457721E-2,-2.111780405E-2,7.353814950E-2
1.011684388E1,2.740765393E-2,9.326587622E-3,1.111356890E-1,1.148447043E-1
1.012684188E1,9.073153764E-2,-2.649319965E-2,-1.326090038E-1,1.628473194E-1
1.013683988E1,9.235501707E-2,-5.884265073E-2,-2.635000956E-1,2.853492721E-1
1.014683788E1,-6.452987194E-3,-6.427168082E-2,-1.486239427E-1,1.620542081E-1
1.015683588E1,-1.331560108E-1,-6.885310220E-2,9.323385358E-2,1.765327855E-1
1.016683388E1,-9.417145461E-2,4.074401536E-3,1.168384784E-1,1.501202640E-1
1.017683187E1,3.560954332E-3,1.018053418E-1,-1.585881829E-2,1.030946659E-1
1.018682987E1,1.006428605E-1,-3.212017170E-3,-1.786394548E-1,2.050642759E-1
1.019682787E1,1.854877138E-1,9.910544024E-3,-2.854154599E-1,3.405376566E-1
1.020682588E1,2.162379286E-1,2.444162638E-2,-3.839316881E-1,4.413159593E-1
1.021682388E1,2.118142176E-1,2.012934823E-2,-3.590576327E-1,4.173641540E-1
1.022682188E1,1.394283190E-1,-5.156459856E-2,-2.801786935E-1,3.171738707E-1
1.023681988E1,1.029972419E-1,-2.123540618E-2,-1.468732864E-1,1.806409050E-1
1.024681788E1,3.921902955E-2,-9.755708383E-2,6.298035979E-2,1.225644427E-1
1.025681588E1,-2.964275211E-2,-7.709349185E-2,8.671654701E-2,1.197574998E-1
1.026681388E1,-4.917508364E-2,-1.615063090E-2,3.166735053E-2,6.067827304E-2
1.027681187E1,-1.182260227E-1,-3.470967739E-2,1.485257095E-1,1.929819695E-1
1.028680987E1,-8.801872194E-2,-4.307760715E-2,1.432369030E-1,1.735505287E-1
1.029680788E1,-7.692655385E-2,1.598858765E-2,2.055021483E-1,2.200101420E-1
1.030680588E1,-1.147203246E-1,1.232705664E-2,3.196275187E-1,3.398153320E-1
1.031680388E1,-9.990435719E-2,2.901236973E-2,1.383731890E-1,1.731176987E-1
1.032680188E1,-7.808576435E-2,8.037403565E-2,1.003428984E-1,1.504196445E-1
1.033679988E1,-1.314535940E-1,7.639341569E-4,1.749165326E-1,2.188068197E-1
1.034679788E1,-1.617614669E-1,2.655810831E-2,1.697581190E-1,2.359871273E-1
1.035679588E1,-1.761526340E-1,1.646145152E-2,3.618473393E-1,4.027831014E-1
1.036679388E1,-2.202537963E-1,-4.660401723E-2,5.623360848E-1,6.057272831E-1
1.037679187E1,-2.091385317E-1,-6.269309705E-2,4.001413393E-1,4.558315931E-1
1.038678987E1,-1.391695797E-1,-5.815625156E-2,2.146588880E-1,2.623523579E-1
1.039678788E1,-2.646578443E-1,-5.418004442E-2,4.215789860E-1,5.007075926E-1
1.040678588E1,-3.858723789E-1,-1.085035375E-2,6.610932183E-1,7.655452085E-1
1.041678388E1,-3.477689981E-1,-1.465878235E-2,7.151881492E-1,7.953943957E-1
1.042678188E1,-2.755371737E-1,-2.434335433E-2,6.119690055E-1,6.715797768E-1
1.043677988E1,-1.690067518E-1,-1.908156145E-2,3.303068733E-1,3.715239140E-1
1.044677788E1,-5.392214566E-2,2.451557082E-3,1.559598595E-1,1.650366193E-1
1.045677588E1,-9.288594425E-2,4.653945118E-2,1.922810090E-1,2.185536675E-1
1.046677387E1,-2.227663448E-1,3.310931731E-2,3.525830108E-1,4.183728610E-1
1.047677187E1,-2.655024746E-1,-5.041839355E-2,4.820532292E-1,5.526381223E-1
1.048676987E1,-2.912752470E-1,-5.104950911E-2,5.461486530E-1,6.210681711E-1
1.049676788E1,-2.942716527E-1,3.138376514E-3,5.861225581E-1,6.558546395E-1
1.050676588E1,-1.580090162E-1,-2.624976590E-2,3.387444055E-1,3.747047794E-1
1.051676388E1,-8.011182457E-2,-6.051428746E-2,7.849302292E-2,1.274403314E-1
1.052676188E1,-7.108109236E-2,-9.771384860E-3,2.658319652E-2,7.651580222E-2
1.053675979E1,-4.453882635E-2,6.345270518E-2,1.292328215E-1,1.507019409E-1
1.054675779E1,-1.435526526E-1,2.672210672E-2,2.318187118E-1,2.739732654E-1
1.055675579E1,-2.333907357E-1,2.074980177E-2,4.538784206E-1,5.107909655E-1
1.056675379E1,-1.578052408E-1,2.147601910E-2,3.943794930E-1,4.253221108E-1
1.057675179E1,-2.075021884E-1,-2.078890959E-2,4.216199166E-1,4.703750535E-1
1.058674979E1,-1.848521215E-1,-3.526514917E-2,3.317487967E-1,3.814068716E-1
1.059674779E1,-1.067073002E-1,-8.414792913E-2,2.175976986E-1,2.565464487E-1
1.060674579E1,-1.530169559E-1,-9.138945904E-2,2.586527538E-1,3.141137836E-1
1.061674379E1,-1.764561045E-1,-4.294538699E-2,3.293403286E-1,3.760932266E-1
1.062674179E1,-2.077942568E-1,9.124922636E-4,4.112013477E-1,4.607231643E-1
1.063673879E1,-2.560308623E-1,2.632816884E-2,4.544391686E-1,5.222642366E-1
1.064673779E1,-2.632483730E-1,4.935122187E-2,4.695939821E-1,5.406049917E-1
1.065673479E1,-2.604247525E-1,7.235935309E-2,4.836150205E-1,5.540220355E-1
1.066673279E1,-3.660085103E-1,2.300526014E-2,6.497829491E-1,7.461295816E-1
1.067673079E1,-3.723156095E-1,-4.153220176E-2,7.094146085E-1,8.022548994E-1
1.068672879E1,-3.139112806E-1,-5.722523779E-2,6.582573187E-1,7.315174076E-1
1.069672679E1,-2.609053937E-1,-5.430489618E-2,4.854814517E-1,5.538166539E-1
1.070672479E1,-2.505414963E-1,-6.350201822E-2,3.751175952E-1,4.555400728E-1
1.071672279E1,-2.816428363E-1,-1.321808323E-2,4.399480140E-1,5.225434528E-1
1.072672079E1,-4.216807276E-1,2.216399655E-2,7.027634007E-1,8.198672308E-1
1.073671879E1,-4.996287900E-1,2.647253796E-2,9.508192456E-1,1.074424014E0
1.074671679E1,-5.643732548E-1,1.261725669E-2,1.070597704E0,1.210312278E0
1.075671479E1,-5.907219779E-1,6.882533706E-2,1.185232367E0,1.326071320E0
1.076671279E1,-6.101584151E-1,1.987652468E-2,1.258186907E0,1.398471545E0
1.077671079E1,-6.123365030E-1,-6.855957197E-2,1.223769611E0,1.370134471E0
1.078670879E1,-6.014226750E-1,-4.358466125E-2,1.180867420E0,1.325917313E0
1.079670679E1,-6.025111341E-1,-3.484250740E-2,1.199035304E0,1.342355887E0
1.080670479E1,-7.170288527E-1,-6.406330981E-2,1.314659901E0,1.498854609E0
1.081670279E1,-9.264930743E-1,-3.532467429E-2,1.677237557E0,1.916445426E0
1.082670079E1,-1.080864245E0,2.141857706E-2,2.081364359E0,2.345379258E0
1.083669879E1,-1.178099056E0,8.966698351E-3,2.276076055E0,2.562912405E0
1.084669679E1,-1.171175660E0,1.143698480E-2,2.165120460E0,2.461611229E0
1.085669479E1,-1.035207724E0,2.036592064E-2,1.901040321E0,2.164722639E0
1.086669279E1,-9.102518481E-1,4.457324726E-2,1.544442612E0,1.793278613E0
1.087669079E1,-9.268570635E-1,4.614332059E-2,1.593938123E0,1.844405585E0
1.088668879E1,-9.484762663E-1,-5.405918065E-2,1.673916339E0,1.924714403E0
1.089668679E1,-9.644862351E-1,-6.119276547E-2,1.797053438E0,2.040436059E0
1.090668479E1,-9.677326092E-1,-3.200108265E-2,1.888051316E0,2.121854907E0
1.091668279E1,-9.859563339E-1,-9.399113196E-2,2.008051384E0,2.239020899E0
1.092668079E1,-9.645973322E-1,-1.125812578E-1,2.021614586E0,2.242776869E0
1.093667879E1,-9.318236884E-1,-2.541969654E-3,1.934172399E0,2.146933794E0
1.094667679E1,-9.305194670E-1,6.142079317E-2,1.855311586E0,2.076492252E0
1.095667479E1,-9.886787975E-1,4.714836560E-2,1.880818310E0,2.125367321E0
1.096667279E1,-1.047090435E0,7.731056060E-2,1.923908781E0,2.191757355E0
1.097667079E1,-1.003241873E0,6.460812413E-2,1.840501174E0,2.097167861E0
1.098666879E1,-8.583630717E-1,-2.606022932E-2,1.496597770E0,1.725477089E0
1.099666679E1,-7.204874808E-1,-4.450554747E-2,1.181490734E0,1.384558885E0
1.100666479E1,-7.026350543E-1,-4.869376643E-2,1.125051654E0,1.327331280E0
1.101666279E1,-7.432916218E-1,-8.482049597E-2,1.294305158E0,1.494959128E0
1.102666079E1,-7.906210318E-1,-8.523987838E-2,1.571043350E0,1.760830673E0
1.103665879E1,-7.512873968E-1,-6.115953684E-2,1.643517834E0,1.808127239E0
1.104665679E1,-6.642331731E-1,-2.549764723E-2,1.529128169E0,1.667359828E0
1.105665479E1,-6.238406074E-1,2.806636561E-2,1.418513467E0,1.549885570E0
1.106665279E1,-6.566657066E-1,4.257011452E-2,1.348582522E0,1.500565521E0
1.107665079E1,-7.589571896E-1,2.441793145E-2,1.397684516E0,1.590639575E0
1.108664879E1,-8.417967403E-1,3.558743582E-2,1.428105825E0,1.658123778E0
1.109664679E1,-8.642284137E-1,2.138265094E-3,1.386987619E0,1.634206223E0
1.110664479E1,-7.833760393E-1,-1.660373758E-2,1.222793711E0,1.452300989E0
1.111664279E1,-6.454180026E-1,-2.087787863E-2,1.010568434E0,1.199270130E0
1.112664079E1,-4.276004487E-1,-1.009950959E-2,7.486886019E-1,8.622521478E-1
1.113663879E1,-2.992774540E-1,-2.982029733E-2,6.868350005E-1,7.497990148E-1
1.114663679E1,-2.745384693E-1,-2.989027434E-2,7.672289532E-1,8.154171119E-1
1.115663479E1,-3.712952703E-1,-1.046594728E-2,1.030772903E0,1.095656192E0
1.116663279E1,-4.596961078E-1,-1.551002959E-2,1.225766435E0,1.309222833E0
1.117663079E1,-4.389653894E-1,-3.425228351E-2,1.075443876E0,1.162085781E0
1.118662879E1,-4.522061169E-1,-4.502500406E-2,8.481649429E-1,9.622377011E-1
1.119662679E1,-4.577615565E-1,-2.662851929E-2,7.122610331E-1,8.470953310E-1
1.120662479E1,-3.591403708E-1,7.220653519E-3,3.627741230E-1,5.105281658E-1
1.121662279E1,-3.905369952E-1,1.743351001E-2,3.032219857E-1,4.947389660E-1
1.122662079E1,-4.041241702E-1,3.376252667E-2,3.963388950E-1,5.670456532E-1
1.123661879E1,-3.791767323E-1,4.162222604E-2,5.205776095E-1,6.453746598E-1
1.124661579E1,-3.288184646E-1,-4.325977533E-2,6.167005724E-1,7.002232407E-1
1.125661379E1,-1.774831679E-1,-2.836870092E-2,5.142678791E-1,5.447719795E-1
1.126661179E1,-8.487291992E-2,-1.057950204E-2,4.852604270E-1,4.927403174E-1
1.127660979E1,-2.353504300E-4,1.533180829E-2,3.253922886E-1,3.257533748E-1
1.128660779E1,1.232037574E-2,3.425915171E-2,2.798869175E-1,2.822448719E-1
1.129660579E1,-8.432065040E-2,-1.313850399E-2,4.299609697E-1,4.383480670E-1
1.130660379E1,-2.002507639E-1,-8.872222421E-2,4.362438029E-1,4.881399974E-1
1.131660179E1,-2.089148757E-1,-9.710817299E-2,3.214688069E-1,3.954966704E-1
1.132659979E1,-2.332772997E-1,-9.097163893E-2,2.943652081E-1,3.864518255E-1
1.133659779E1,-1.397572249E-1,-3.911875437E-2,7.461514950E-2,1.631863334E-1
1.134659579E1,-6.099727660E-2,2.960562914E-2,-1.082594436E-1,1.277390628E-1
1.135659379E1,-4.402251720E-2,3.240920231E-2,-9.643988192E-2,1.108557136E-1
1.136659179E1,-6.929242909E-2,7.960956702E-2,9.516343474E-3,1.059702066E-1
1.137658979E1,-6.426323891E-2,4.851946001E-2,1.354630297E-1,1.575884967E-1
1.138658779E1,-4.565505981E-2,4.384671701E-3,2.031492287E-1,2.082623801E-1
1.139658579E1,-3.376562387E-2,3.415950236E-2,2.298183793E-1,2.347838930E-1
1.140658379E1,-3.140539527E-3,-4.398884090E-2,1.413283718E-1,1.480492816E-1
1.141658179E1,4.868128628E-2,-4.287197703E-2,-1.455371976E-2,6.648071003E-2
1.142657979E1,-1.514721215E-2,-4.592066959E-2,1.639968574E-2,5.105972604E-2
1.143657779E1,-5.319942981E-2,-9.027892660E-2,7.393511832E-2,1.282453338E-1
1.144657579E1,-4.161258727E-2,2.315002212E-2,-9.340400755E-2,1.048419743E-1
1.145657379E1,7.650496960E-3,-1.459008442E-2,-1.401308620E-1,1.410959218E-1
1.146657179E1,6.527042180E-2,5.292397114E-2,-1.927119488E-1,2.102357483E-1
1.147656979E1,8.777869374E-2,-5.251576239E-2,-1.270722753E-1,1.631268449E-1
1.148656779E1,1.645155054E-1,-4.487673146E-2,-2.318824464E-1,2.878345732E-1
1.149656579E1,1.749092236E-1,-2.583715347E-2,-2.043619412E-1,2.702306386E-1
1.150656379E1,1.594494778E-1,9.299302138E-3,-1.884159994E-1,2.470044571E-1
1.151656179E1,2.046385145E-1,-5.013142317E-3,-2.530593073E-1,3.254858926E-1
1.152655979E1,2.717090017E-1,4.616804335E-2,-4.288482445E-1,5.097725833E-1
1.153655737E1,2.479128805E-1,-2.743304820E-2,-3.708274931E-1,4.469075945E-1
1.154655538E1,1.977654049E-1,-4.616454873E-2,-3.718548489E-1,4.236960580E-1
1.155655338E1,1.463984925E-1,-4.039796070E-2,-3.388432235E-1,3.713209446E-1
1.156655138E1,1.380723497E-1,2.145926774E-2,-4.691115868E-1,4.894794733E-1
1.157654938E1,1.970052668E-1,4.968826817E-2,-6.224285048E-1,6.547497558E-1
1.158654738E1,1.890460369E-1,1.997771577E-2,-5.715711772E-1,6.023546496E-1
1.159654538E1,2.514217946E-1,-5.667911698E-3,-6.556734341E-1,7.022483152E-1
1.160654338E1,2.969894385E-1,-3.330022433E-2,-6.342550832E-1,7.011356089E-1
1.161654137E1,2.430824956E-1,-6.708729789E-2,-4.387008029E-1,5.060120549E-1
1.162653937E1,2.705319571E-1,-1.317802523E-2,-3.793919098E-1,4.661538603E-1
1.163653737E1,3.309655622E-1,-1.973177411E-2,-4.590368342E-1,5.662529130E-1
1.164653538E1,3.430812854E-1,-1.245246114E-2,-4.233957160E-1,5.450906020E-1
1.165653338E1,4.149032199E-1,-4.180627629E-2,-5.508463061E-1,6.908864593E-1
1.166653138E1,3.954682446E-1,-4.532996376E-2,-5.616490370E-1,6.884036453E-1
1.167652938E1,2.953840855E-1,-9.292449019E-2,-3.275797319E-1,4.507717822E-1
1.168652738E1,2.837317541E-1,-1.690245492E-2,-4.610921305E-1,5.416598140E-1
1.169652538E1,2.563998216E-1,5.715192832E-2,-5.125768644E-1,5.759707053E-1
1.170652338E1,2.496837097E-1,6.408834320E-2,-5.945641834E-1,6.480399978E-1
1.171652137E1,2.013307446E-1,4.073184585E-2,-5.567426383E-1,5.934269267E-1
1.172651937E1,2.085280824E-1,2.646648290E-2,-5.142719722E-1,5.555718650E-1
1.173651737E1,1.875748774E-1,2.106698124E-2,-5.837129205E-1,6.134728404E-1
1.174651538E1,1.831757247E-1,-3.008664714E-2,-5.116588515E-1,5.442915880E-1
1.175651338E1,2.208113283E-1,-2.119700413E-2,-5.720360309E-1,6.135406884E-1
1.176651138E1,3.144705668E-1,4.617792880E-3,-6.724520195E-1,7.423643175E-1
1.177650938E1,5.323465928E-1,3.165088011E-2,-1.042637488E0,1.171105292E0
1.178650738E1,8.051884925E-1,1.215695063E-2,-1.548600567E0,1.745462694E0
1.179650538E1,1.021491910E0,-5.148151785E-2,-1.888695095E0,2.147851305E0
1.180650237E1,1.137366183E0,-1.652208441E-1,-1.999362422E0,2.306154777E0
1.181650137E1,1.191364050E0,-9.474700335E-2,-2.059857715E0,2.381457348E0
1.182649838E1,1.140424569E0,-5.888033329E-2,-1.906152542E0,2.222037939E0
1.183649638E1,1.135186341E0,3.037049977E-2,-1.992259809E0,2.293178916E0
1.184649438E1,1.087414881E0,1.467932800E-1,-2.027017413E0,2.304955310E0
1.185649238E1,1.022030731E0,7.193754500E-2,-1.972082822E0,2.222348416E0
1.186649038E1,1.049413242E0,-4.951131681E-2,-2.096574136E0,2.345067724E0
1.187648838E1,1.231807194E0,2.904544761E-2,-2.344532332E0,2.648589145E0
1.188648638E1,1.280841359E0,-1.046309996E-1,-2.572296000E0,2.875449347E0
1.189648438E1,1.462606151E0,-4.231317507E-2,-2.686027268E0,3.058716993E0
1.190648237E1,1.476260569E0,-6.030387449E-2,-2.744918670E0,3.117300167E0
1.191648037E1,1.545648308E0,-1.671272420E-2,-2.833435575E0,3.227640805E0
1.192647838E1,1.502195017E0,6.278822394E-3,-2.752607174E0,3.135837296E0
1.193647638E1,1.428593482E0,6.913015058E-2,-2.648187597E0,3.009743488E0
1.194647438E1,1.337111455E0,5.567661186E-2,-2.565317348E0,2.893409757E0
1.195647238E1,1.258270815E0,8.407442780E-2,-2.493076753E0,2.793876456E0
1.196647038E1,1.134340541E0,5.650234377E-2,-2.339748141E0,2.600834931E0
1.197646838E1,1.028868465E0,5.245659588E-2,-2.213293916E0,2.441309479E0
1.198646638E1,9.910197303E-1,5.207433416E-2,-2.132895285E0,2.352461294E0
1.199646437E1,9.799839878E-1,1.440627628E-2,-1.986530707E0,2.215147942E0
1.200646237E1,9.703928000E-1,-1.308936134E-1,-1.743565448E0,1.999703927E0
1.201646037E1,9.996136755E-1,-8.884090441E-2,-1.624048945E0,1.909098002E0
1.202645838E1,9.782435641E-1,-1.609813752E-1,-1.721711479E0,1.986747566E0
1.203645638E1,9.398203406E-1,-1.624677374E-1,-1.810047120E0,2.045954207E0
1.204645438E1,8.917737696E-1,-1.260964115E-1,-1.513424302E0,1.761139938E0
1.205645238E1,7.603423950E-1,-4.247734479E-2,-1.278429968E0,1.488055128E0
1.206645038E1,6.887020165E-1,1.098910544E-1,-1.079421152E0,1.285121214E0
1.207644838E1,5.800984642E-1,1.495443950E-1,-8.546436578E-1,1.043692261E0
1.208644638E1,4.667133513E-1,4.422944925E-2,-8.113555509E-1,9.370567893E-1
1.209644437E1,3.651407835E-1,6.993940523E-2,-7.500328767E-1,8.371192438E-1
1.210644237E1,2.639383444E-1,6.123724999E-4,-6.742289883E-1,7.240501041E-1
1.211644037E1,1.846468842E-1,-1.014722607E-3,-6.642665023E-1,6.894530350E-1
1.212643838E1,1.715581843E-1,-4.428707630E-2,-5.839146495E-1,6.102047801E-1
1.213643638E1,2.194100431E-1,5.407907031E-3,-5.898092276E-1,6.293210130E-1
1.214643438E1,3.720846444E-1,-1.245531395E-2,-8.739406389E-1,9.499338702E-1
1.215643238E1,4.093653220E-1,-5.608544187E-2,-9.021867836E-1,9.923036511E-1
1.216643038E1,3.236264294E-1,1.460862877E-3,-6.830799186E-1,7.558666385E-1
1.217642838E1,1.875970969E-1,-8.047796077E-2,-4.157370329E-1,4.631486300E-1
1.218642638E1,1.594678965E-1,3.217611083E-2,-3.061485171E-2,1.655372504E-1
1.219642437E1,7.530395150E-2,2.118612054E-2,1.262027943E-1,1.484812517E-1
1.220642237E1,1.312474796E-1,-2.282583970E-2,1.550669897E-1,2.044326078E-1
1.221642037E1,2.524245921E-1,-9.645850165E-5,-2.164943290E-1,3.325477086E-1
1.222641838E1,2.379992187E-1,-4.573453627E-2,-3.767068684E-1,4.479322947E-1
1.223641638E1,1.625444090E-1,-2.003258595E-2,-3.445682323E-1,3.815091822E-1
1.224641438E1,3.361271918E-2,-8.111608386E-2,-1.510142845E-1,1.746852829E-1
1.225641238E1,-1.088234076E-1,-6.995649006E-2,1.174711472E-1,1.747452859E-1
1.226641038E1,-2.241965738E-1,-2.740644794E-2,3.819424653E-1,4.437288180E-1
1.227640838E1,-1.801024282E-1,1.449745630E-2,1.333194405E-1,2.245465076E-1
1.228640638E1,-8.500272810E-2,7.963437201E-2,-5.329503179E-2,1.280915977E-1
1.229640437E1,-2.807131290E-2,6.544744169E-2,-1.364266509E-1,1.538947605E-1
1.230640237E1,4.111177325E-2,8.389083437E-2,-1.706328624E-1,1.945338627E-1
1.231640037E1,1.150097618E-1,5.258826330E-2,-2.032433689E-1,2.393755161E-1
1.232639838E1,1.461222115E-1,-9.583127357E-3,-1.904847443E-1,2.402664663E-1
1.233639638E1,1.658647504E-1,-2.228877065E-2,-1.791996181E-1,2.451946326E-1
1.234639438E1,1.702200490E-1,-9.683814126E-2,-1.132365936E-1,2.262189577E-1
1.235639238E1,1.807985392E-1,-2.409401855E-2,-1.731138361E-1,2.514697472E-1
1.236638938E1,1.077261776E-1,-1.067824918E-1,-1.739406323E-1,2.307872905E-1
1.237638737E1,1.077024963E-1,-1.970557585E-2,-1.868922150E-1,2.166029489E-1
1.238638537E1,1.628130886E-1,-3.913113859E-2,-2.433657932E-1,2.954086274E-1
1.239638337E1,1.308039683E-1,-7.332732766E-3,-3.077752125E-1,3.344981742E-1
1.240638138E1,1.179047182E-1,-7.257098118E-3,-2.928776765E-1,3.158029788E-1
1.241637938E1,9.554701209E-2,2.559144708E-2,-3.134049118E-1,3.286438686E-1
1.242637738E1,1.506233981E-1,5.338158885E-2,-3.536787790E-1,3.881052445E-1
1.243637538E1,1.582458284E-1,3.063057067E-3,-4.535533154E-1,4.803766589E-1
1.244637338E1,2.189840734E-1,6.834188196E-2,-4.481633520E-1,5.034630347E-1
1.245637138E1,1.534212908E-1,4.748152899E-2,-1.821343356E-1,2.428281373E-1
1.246636938E1,1.018807161E-1,-4.488714681E-2,1.018701911E-2,1.117958479E-1
1.247636737E1,1.833417857E-1,-6.302181107E-2,-2.014348251E-1,2.795745836E-1
1.248636537E1,2.256148160E-1,-7.278546436E-2,-3.789077604E-1,4.469573356E-1
1.249636337E1,2.321058100E-1,-8.429227313E-2,-5.189117378E-1,5.746718072E-1
1.250636138E1,1.095282894E-1,-5.752065922E-2,-2.752810657E-1,3.018024810E-1
1.251635938E1,-2.248137474E-2,4.117503738E-2,7.217218280E-3,4.746455681E-2
1.252635738E1,-6.333674759E-2,5.048858754E-2,2.210247517E-4,8.099808590E-2
1.253635542E1,-4.589918107E-2,-2.876457798E-3,-1.304069424E-1,1.382786298E-1
1.254635342E1,5.073921382E-3,4.509085832E-2,-1.314945245E-1,1.391033434E-1
1.255635142E1,5.862710774E-2,1.641074977E-2,-2.349031180E-1,2.426642234E-1
1.256634942E1,1.250342283E-1,-8.096938727E-3,-2.899944144E-1,3.159048576E-1
1.257634742E1,7.957885087E-2,-1.283354886E-2,2.060207963E-2,8.319819209E-2
1.258634542E1,7.458883703E-2,-3.013477247E-2,1.284411085E-1,1.515543383E-1
1.259634342E1,1.018921182E-1,-2.642446289E-2,3.307068229E-2,1.103355156E-1
1.260634142E1,1.220658892E-1,-9.084515178E-3,-1.931329483E-1,2.286546423E-1
1.261633942E1,1.193463492E-1,-1.566183565E-2,-1.544138557E-1,1.957868305E-1
1.262633742E1,6.386299700E-2,-3.643153165E-2,-4.597782612E-2,8.671620021E-2
1.263633542E1,9.107330739E-3,-3.806547896E-2,5.365054250E-2,6.641012628E-2
1.264633342E1,-2.160195351E-2,-9.486792195E-2,7.141789198E-2,1.206941685E-1
1.265633142E1,-8.466855973E-2,-2.123653907E-2,-7.523612380E-3,8.761484088E-2
1.266632942E1,-1.696952614E-1,2.165766879E-2,9.182701349E-2,1.941590502E-1
1.267632742E1,-1.425773370E-1,2.710441184E-2,-1.899292588E-2,1.463682937E-1
1.268632542E1,-9.394955277E-2,6.523077951E-2,-1.833335996E-2,1.158347320E-1
1.269632342E1,-9.767042845E-2,7.865831640E-2,1.759058815E-1,2.160312998E-1
1.270632142E1,2.126339972E-3,5.191296014E-2,3.427403927E-2,6.224296362E-2
1.271631942E1,7.436284214E-2,1.522778038E-2,-8.672122478E-2,1.152488109E-1
1.272631742E1,1.465350249E-1,-1.399010299E-3,-1.761099494E-1,2.291051833E-1
1.273631542E1,1.564235437E-1,-6.043125699E-2,-1.461330289E-1,2.224300429E-1
1.274631342E1,-1.356027782E-2,-1.445384657E-1,1.977230126E-1,2.452950038E-1
1.275631142E1,-6.524966419E-2,-9.022827510E-2,3.283287603E-1,3.466964596E-1
1.276630942E1,-8.025800496E-2,-5.258205063E-2,2.177900720E-1,2.379889385E-1
1.277630742E1,-1.226020789E-1,-4.256886742E-2,1.443151295E-1,1.940882141E-1
1.278630542E1,-5.161541909E-2,9.203709299E-3,7.806617618E-3,5.300757523E-2
1.279630342E1,-3.597324014E-2,5.556552846E-2,-6.086951494E-3,6.647294892E-2
1.280630142E1,-6.147294760E-2,5.290050918E-2,-1.795446038E-2,8.306473262E-2
1.281629942E1,-1.149088973E-1,2.500899816E-2,1.252163690E-1,1.717808014E-1
1.282629742E1,-1.719309443E-1,1.184577141E-2,2.427945203E-1,2.977410804E-1
1.283629542E1,-1.453033090E-1,-2.002339029E-2,2.409906542E-1,2.821178534E-1
1.284629342E1,-8.517989874E-2,-1.796206405E-2,1.579584378E-1,1.803583072E-1
1.285629142E1,-1.243264228E-2,-2.124012278E-2,9.367590308E-2,9.685498556E-2
1.286628942E1,1.055092058E-1,-1.220471736E-2,-9.049267888E-2,1.395352019E-1
1.287628742E1,1.597245893E-1,1.383277406E-2,-2.319099283E-1,2.819317380E-1
1.288628542E1,1.158637476E-1,-1.143753069E-2,-2.619295335E-1,2.866396791E-1
1.289628242E1,-7.732445687E-2,-3.100058294E-2,6.498887837E-2,1.056582324E-1
1.290628042E1,-1.850971198E-1,-1.188572434E-2,3.451137775E-1,3.917980776E-1
1.291627842E1,-7.916077495E-2,-2.329845917E-2,2.163674444E-1,2.315688180E-1
1.292627642E1,2.347540140E-2,-6.796959705E-2,-2.598327219E-2,7.645973468E-2
1.293627442E1,1.564948797E-1,-4.495150730E-2,-3.011959255E-1,3.423890637E-1
1.294627242E1,1.902686897E-1,-6.473372506E-3,-3.999396104E-1,4.429399178E-1
1.295627042E1,8.638881058E-2,1.673178246E-2,-2.107424229E-1,2.283754539E-1
1.296626842E1,-5.674752027E-2,2.902026576E-2,1.123244280E-1,1.291481088E-1
1.297626642E1,-1.765154538E-1,3.602620084E-2,3.755929738E-1,4.165641302E-1
1.298626442E1,-2.269222534E-1,3.740718527E-2,4.971355373E-1,5.477561036E-1
1.299626242E1,-2.114341486E-1,1.469968773E-2,4.506057340E-1,4.979618535E-1
1.300626042E1,-1.490937665E-1,-3.350657394E-2,2.769217944E-1,3.162867717E-1
1.301625842E1,-1.362716997E-1,-5.998770000E-2,2.008524424E-1,2.500204070E-1
1.302625642E1,-1.915483528E-1,-4.913522207E-2,2.604086727E-1,3.269827493E-1
1.303625442E1,-2.460607749E-1,-6.092492645E-2,3.540354592E-1,4.354295098E-1
1.304625242E1,-2.328732571E-1,-2.053059742E-2,3.952361101E-1,4.591982600E-1
1.305625042E1,-2.047528276E-1,1.346949980E-2,3.671197736E-1,4.205735085E-1
1.306624842E1,-7.129831642E-2,5.891867367E-2,1.399595386E-1,1.677603424E-1
1.307624642E1,1.501184911E-2,4.540219971E-2,5.517432690E-3,4.813686130E-2
1.308624442E1,2.705126613E-2,3.958916743E-2,-2.336196542E-2,5.333717846E-2
1.309624242E1,-3.333497643E-2,-1.944678859E-4,8.008463502E-2,8.674564679E-2
1.310624042E1,-7.386670589E-2,-4.615140163E-2,1.494413835E-1,1.729710068E-1
1.311623842E1,-1.259846932E-1,-7.611069367E-2,3.556048518E-1,3.848633410E-1
1.312623642E1,-1.844951490E-1,-8.853068221E-2,4.607067990E-1,5.041100042E-1
1.313623442E1,-1.838224268E-1,-5.453336243E-2,4.178092861E-1,4.597055272E-1
1.314623242E1,-1.450746828E-1,-8.064651133E-3,2.171579880E-1,2.612839335E-1
1.315623042E1,-1.599193016E-1,8.471322698E-3,1.717087501E-1,2.347974472E-1
1.316622842E1,-1.537794328E-1,5.919272992E-2,2.137601709E-1,2.698986919E-1
1.317622642E1,-1.502541465E-1,6.510557143E-2,2.776380783E-1,3.223320439E-1
1.318622442E1,-1.042166787E-1,4.365681041E-2,1.718385583E-1,2.056587546E-1
1.319622242E1,-8.901596457E-2,9.960804954E-3,1.506014711E-1,1.752251770E-1
1.320622042E1,-1.166545835E-1,-3.307824712E-2,2.571289694E-1,2.842846623E-1
1.321621842E1,-1.330028138E-1,-7.542044814E-2,2.432055795E-1,2.872750361E-1
1.322621642E1,-1.957332051E-1,-1.546478174E-1,2.884355468E-1,3.813430209E-1
1.323621442E1,-1.374352956E-1,-3.895539321E-2,2.275081444E-1,2.686371882E-1
1.324621242E1,-2.663874507E-2,5.308275959E-2,9.769937217E-2,1.143353376E-1
1.325621042E1,-1.979984164E-2,1.200016759E-2,2.051904917E-2,3.093653391E-2
1.326620842E1,-3.024238408E-2,5.698747995E-2,6.902579606E-2,9.448140127E-2
1.327620642E1,5.320673883E-3,6.609834643E-2,4.719229281E-2,8.139049988E-2
1.328620442E1,-2.017406344E-2,-2.998214643E-3,6.046254873E-2,6.380988894E-2
1.329620242E1,-6.956315517E-2,-1.707049157E-2,1.227780801E-1,1.421439102E-1
1.330620042E1,-5.737375706E-2,-5.390815803E-2,1.543816960E-1,1.732961210E-1
1.331619842E1,-7.438915461E-2,-9.856311556E-2,1.395174891E-1,1.863157638E-1
1.332619642E1,-6.376359433E-2,-7.327319523E-2,8.421393871E-2,1.285563868E-1
1.333619442E1,-2.479219437E-4,-4.465935208E-2,2.593240142E-3,4.473526671E-2
1.334619242E1,1.578660518E-2,1.642744859E-2,-4.707944155E-2,5.230250268E-2
1.335619042E1,-1.053872913E-2,5.401838718E-2,-1.231657505E-2,5.639812928E-2
1.336618842E1,-3.007515371E-2,5.619213985E-2,2.672177553E-2,6.910951265E-2
1.337618642E1,-8.692733914E-2,2.571566843E-2,1.219278949E-1,1.519344249E-1
1.338618442E1,-1.090552497E-1,3.902772053E-2,1.856046581E-1,2.187813968E-1
1.339618242E1,-1.334805313E-1,3.119322814E-3,2.975349838E-1,3.261193784E-1
1.340618042E1,-1.937702948E-1,-9.299997409E-2,4.287511808E-1,4.796076494E-1
1.341617742E1,-2.477859959E-1,-1.152026102E-1,4.348311156E-1,5.135636672E-1
1.342617542E1,-2.154938704E-1,-4.777388977E-2,4.290751165E-1,4.825198528E-1
1.343617342E1,-2.290523940E-1,-4.085433131E-2,3.999343479E-1,4.626894836E-1
1.344617142E1,-2.674887738E-1,-1.258338167E-2,4.076602739E-1,4.877453070E-1
1.345616942E1,-2.404462785E-1,6.516117480E-2,4.639058107E-1,5.265633796E-1
1.346616742E1,-2.186025426E-1,5.852260703E-2,4.832770514E-1,5.336372135E-1
1.347616542E1,-2.243702361E-1,3.919459915E-2,4.279132748E-1,4.847555984E-1
1.348616342E1,-2.441481507E-1,3.683409875E-2,4.399304724E-1,5.044837865E-1
1.349616142E1,-3.378907120E-1,-1.985363146E-2,6.550553834E-1,7.373342901E-1
1.350615942E1,-4.561070868E-1,-7.148279607E-2,8.436602479E-1,9.617203745E-1
1.351615742E1,-4.735896769E-1,-1.015409563E-1,9.449492258E-1,1.061850643E0
1.352615542E1,-4.174394497E-1,-1.056777335E-1,8.728472096E-1,9.732860468E-1
1.353615350E1,-3.544313157E-1,-3.420237433E-2,6.762702513E-1,7.642858187E-1
1.354615150E1,-3.766869879E-1,1.913470031E-2,6.351590627E-1,7.387057997E-1
1.355614950E1,-4.580483624E-1,5.374084543E-2,7.984402210E-1,9.220646220E-1
1.356614750E1,-5.705487916E-1,5.204195520E-2,9.792080623E-1,1.134496680E0
1.357614550E1,-6.523080692E-1,6.391728474E-2,1.179371703E0,1.349262335E0
1.358614350E1,-6.759296510E-1,3.841360300E-2,1.285329682E0,1.452731527E0
1.359614150E1,-7.121154374E-1,-9.928652120E-3,1.334859692E0,1.512963110E0
1.360613950E1,-7.459380716E-1,-6.211462470E-2,1.420897962E0,1.605999020E0
1.361613750E1,-8.279476100E-1,-9.321423800E-2,1.600142019E0,1.804062255E0
1.362613550E1,-9.254508081E-1,-8.995037704E-2,1.755639948E0,1.986660992E0
1.363613350E1,-1.000541629E0,-4.846476571E-2,1.867487243E0,2.119184038E0
1.364613150E1,-9.588746622E-1,-3.314441659E-3,1.787792033E0,2.028706967E0
1.365612950E1,-9.120729634E-1,4.994287787E-2,1.716260705E0,1.944202199E0
1.366612750E1,-8.617801845E-1,8.517664623E-2,1.632983490E0,1.848392606E0
1.367612550E1,-9.146425223E-1,4.796333956E-2,1.738601747E0,1.965097315E0
1.368612350E1,-1.037204548E0,-2.271244026E-2,1.995598569E0,2.249160461E0
1.369612150E1,-1.107346577E0,-7.794682902E-2,2.132516971E0,2.404146581E0
1.370611950E1,-1.115491456E0,-1.004057742E-1,2.147099926E0,2.421660712E0
1.371611750E1,-1.082576018E0,-7.993474530E-2,1.993549120E0,2.269933587E0
1.372611550E1,-1.013045607E0,-7.418451577E-3,1.868992901E0,2.125900021E0
1.373611350E1,-9.493551028E-1,5.158970505E-2,1.747093658E0,1.989038174E0
1.374611150E1,-8.828012171E-1,5.354214974E-2,1.635657422E0,1.859456897E0
1.375610950E1,-8.381162104E-1,4.270048002E-2,1.535796919E0,1.750124078E0
1.376610750E1,-8.304364774E-1,2.281462035E-2,1.557398288E0,1.765116052E0
1.377610550E1,-7.825100666E-1,-4.985289470E-2,1.516825043E0,1.707502716E0
1.378610350E1,-7.327564010E-1,-7.714295564E-2,1.401229098E0,1.583138012E0
1.379610150E1,-6.216943869E-1,-1.959495840E-2,1.181139316E0,1.334907471E0
1.380609950E1,-4.648290861E-1,3.740790475E-3,8.881376785E-1,1.002431349E0
1.381609750E1,-5.333894438E-1,-2.681858578E-2,1.005951473E0,1.138930156E0
1.382609550E1,-6.143084764E-1,-4.227925208E-3,1.189650523E0,1.338902964E0
1.383609350E1,-6.277982953E-1,-1.051637038E-2,1.211621436E0,1.364649331E0
1.384609150E1,-6.149186334E-1,-4.608308514E-2,1.228956676E0,1.374984759E0
1.385608950E1,-4.976343048E-1,-1.892855626E-3,9.837764919E-1,1.102478875E0
1.386608750E1,-4.264008924E-1,3.738564421E-2,8.220805138E-1,9.268396726E-1
1.387608550E1,-4.481920034E-1,2.405149376E-3,8.168636280E-1,9.317446235E-1
1.388608350E1,-5.364580625E-1,2.041902067E-2,9.687643504E-1,1.107568759E0
1.389608150E1,-5.735332105E-1,-9.018546708E-3,1.065152192E0,1.209781332E0
1.390607950E1,-5.054909161E-1,-5.655036403E-2,9.347838414E-1,1.064208551E0
1.391607750E1,-4.125777823E-1,-3.250345669E-2,7.563659960E-1,8.621869989E-1
1.392607550E1,-3.814290798E-1,-4.440480634E-4,6.714205706E-1,7.722007011E-1
1.393607250E1,-4.063963982E-1,-5.052542500E-4,7.285747647E-1,8.342538436E-1
1.394607050E1,-4.147786742E-1,3.278691417E-3,7.607022911E-1,8.664410391E-1
1.395606850E1,-3.835446024E-1,8.056485588E-3,7.039661729E-1,8.017105099E-1
1.396606650E1,-3.409014434E-1,-2.743373342E-2,6.602833790E-1,7.435997205E-1
1.397606450E1,-3.516547653E-1,-5.978214297E-2,7.497311604E-1,8.302600746E-1
1.398606250E1,-3.759052151E-1,-2.660278241E-2,7.715389359E-1,8.586528800E-1
1.399606050E1,-4.145102870E-1,8.720112587E-3,8.609568965E-1,9.555844265E-1
1.400605850E1,-4.713054621E-1,2.228554555E-2,9.365701658E-1,1.048708329E0
1.401605650E1,-4.566309974E-1,5.391456713E-2,8.738038141E-1,9.873964522E-1
1.402605450E1,-3.058716515E-1,2.238958716E-2,6.108106720E-1,6.834825805E-1
1.403605250E1,-2.449582824E-1,-1.171337080E-2,4.000898838E-1,4.692693025E-1
1.404605050E1,-2.014158216E-1,-8.227790734E-3,3.360406530E-1,3.918664954E-1
1.405604850E1,-1.694049472E-1,-4.887843794E-2,2.796430886E-1,3.305864408E-1
1.406604650E1,-1.162084410E-1,-3.903359972E-2,1.634144747E-1,2.042848849E-1
1.407604450E1,-1.084860232E-1,-5.909510426E-2,1.963857543E-1,2.320103728E-1
1.408604250E1,-8.242878377E-2,-2.314264915E-2,1.562077814E-1,1.781318545E-1
1.409604050E1,-3.867436141E-2,-3.611336318E-3,9.045934975E-2,9.844613724E-2
1.410603850E1,9.706377983E-2,-1.229953361E-2,-1.239603871E-1,1.579203390E-1
1.411603650E1,8.133184612E-2,-2.462016745E-2,-1.091183996E-1,1.383034597E-1
1.412603450E1,2.011266768E-2,-1.790790193E-2,6.024971008E-3,2.759551826E-2
1.413603250E1,-4.303609192E-2,-4.885144939E-2,1.574842286E-1,1.704108317E-1
1.414603050E1,-1.094072521E-2,4.926630934E-3,-5.262201726E-2,5.397265846E-2
1.415602850E1,-4.906691015E-2,2.305024030E-2,2.801517963E-2,6.102233640E-2
1.416602650E1,-5.953108728E-2,2.442952082E-2,4.201224446E-2,7.684907628E-2
1.417602450E1,-7.311036855E-2,3.898102960E-2,5.152274072E-2,9.756658992E-2
1.418602250E1,-2.010886699E-2,-7.126029124E-3,7.532675564E-2,7.828963494E-2
1.419602050E1,3.610684901E-2,-2.829781028E-2,-4.176490724E-2,6.203852101E-2
1.420601850E1,2.185923100E-2,-2.936717923E-2,-4.268584371E-2,5.623467301E-2
1.421601650E1,7.894384325E-2,4.267048563E-2,-6.759673655E-2,1.123486516E-1
1.422601450E1,9.407409847E-2,4.711301279E-2,-3.280340606E-1,3.444937110E-1
1.423601250E1,5.756203741E-2,-2.444898108E-2,-9.455941737E-2,1.133694149E-1
1.424601050E1,7.554164082E-2,-1.371451549E-1,-8.169846654E-2,1.766068301E-1
1.425600850E1,2.337719741E-1,-8.730259334E-2,-3.663187051E-1,4.432386179E-1
1.426600650E1,3.334646621E-1,-7.212716837E-2,-6.610417628E-1,7.438932864E-1
1.427600450E1,4.248312074E-1,2.565957171E-2,-7.411421853E-1,8.546529748E-1
1.428600250E1,3.273145607E-1,9.987354968E-2,-6.430949038E-1,7.284782790E-1
1.429600050E1,2.572029367E-1,3.306513428E-2,-4.826204091E-1,5.478769142E-1
1.430599850E1,2.042201462E-1,3.773169431E-3,-3.925440520E-1,4.425052968E-1
1.431599650E1,1.822612202E-1,-8.375998464E-2,-3.201151764E-1,3.777679362E-1
1.432599450E1,2.540583041E-1,-7.042925572E-4,-4.537784332E-1,5.200586355E-1
1.433599250E1,3.680374941E-1,3.572576587E-2,-7.130007058E-1,8.031798889E-1
1.434599050E1,4.447512093E-1,6.071384196E-2,-8.356495625E-1,9.485778830E-1
1.435598850E1,4.388908374E-1,4.779775372E-2,-8.405588847E-1,9.494466974E-1
1.436598650E1,4.192804456E-1,-3.394592368E-2,-8.193498641E-1,9.210225934E-1
1.437598450E1,3.850496757E-1,-9.489360401E-2,-6.930991226E-1,7.985326810E-1
1.438598250E1,3.942894459E-1,-1.204177236E-1,-7.126077729E-1,8.232705712E-1
1.439598050E1,3.481590074E-1,-4.096878599E-2,-6.515447152E-1,7.398673204E-1
1.440597850E1,3.518737435E-1,1.036865510E-2,-5.843759948E-1,6.822154672E-1
1.441597550E1,3.870956165E-1,2.503321385E-2,-7.854132092E-1,8.759814994E-1
1.442597450E1,3.812878695E-1,1.195412991E-2,-8.115520173E-1,8.967385447E-1
1.443597150E1,3.890994573E-1,-2.362476122E-3,-7.925649387E-1,8.829287349E-1
1.444596950E1,3.593198803E-1,-1.540028923E-2,-7.679890913E-1,8.480301820E-1
1.445596750E1,3.699539191E-1,1.210980060E-2,-7.176585978E-1,8.074939087E-1
1.446596550E1,3.439855573E-1,3.943903560E-3,-5.733422989E-1,6.686277063E-1
1.447596350E1,3.331284472E-1,-4.002650262E-2,-5.323726130E-1,6.292831495E-1
1.448596150E1,3.368423063E-1,-7.296614789E-3,-5.786416304E-1,6.695835395E-1
1.449595950E1,3.989976239E-1,-1.087816365E-1,-6.734437072E-1,7.902904372E-1
1.450595750E1,4.744509718E-1,4.256929225E-2,-8.729811108E-1,9.944907687E-1
1.451595550E1,5.202104044E-1,-2.447907597E-2,-9.638854337E-1,1.095578943E0
1.452595350E1,5.499092898E-1,-5.218068953E-3,-1.018909487E0,1.157844548E0
1.453595125E1,5.425730807E-1,3.489275234E-2,-1.034322163E0,1.168514180E0
1.454594925E1,5.899726573E-1,4.536662763E-3,-1.157931717E0,1.299574615E0
1.455594725E1,6.723830223E-1,5.342212650E-2,-1.385852675E0,1.541278848E0
1.456594525E1,6.872995618E-1,9.571812537E-2,-1.436650946E0,1.595465006E0
1.457594325E1,7.983063197E-1,8.659901798E-2,-1.645785384E0,1.831229614E0
1.458594125E1,8.417145869E-1,1.841530320E-4,-1.671378647E0,1.871360484E0
1.459593925E1,9.295967764E-1,-4.415267714E-2,-1.671247669E0,1.912895292E0
1.460593725E1,8.817317614E-1,-2.249498231E-1,-1.480237845E0,1.737572272E0
1.461593525E1,8.580859137E-1,-2.804760427E-1,-1.380058669E0,1.649102839E0
1.462593325E1,9.080907172E-1,-2.204613405E-2,-1.645585409E0,1.879645212E0
1.463593125E1,8.793773800E-1,3.582171503E-2,-1.704958622E0,1.918716153E0
1.464592925E1,8.399589604E-1,-1.766759507E-2,-1.645897066E0,1.847923254E0
1.465592725E1,9.571216670E-1,2.123099564E-2,-1.857040608E0,2.089289942E0
1.466592525E1,1.098906999E0,1.219914103E-1,-2.051935322E0,2.330861871E0
1.467592325E1,1.085473605E0,-4.913181881E-2,-2.047093243E0,2.317597383E0
1.468592125E1,1.104212177E0,6.050434262E-2,-2.041394547E0,2.321688395E0
1.469591925E1,1.030497791E0,7.006015023E-4,-1.967746527E0,2.221250229E0
1.470591725E1,1.022087449E0,4.237769544E-3,-1.910658406E0,2.166863230E0
1.471591525E1,1.002423847E0,-2.983958858E-2,-1.948594556E0,2.191521096E0
1.472591325E1,1.045067299E0,3.969996760E-2,-2.050987489E0,2.302236179E0
1.473591125E1,9.542562389E-1,-3.107037722E-2,-1.890236421E0,2.117678933E0
1.474590925E1,9.260247123E-1,9.450441699E-2,-1.823809712E0,2.047616839E0
1.475590725E1,8.048578325E-1,1.919130866E-2,-1.682411174E0,1.865119780E0
1.476590525E1,7.468151540E-1,8.251762491E-2,-1.482957385E0,1.662439364E0
1.477590325E1,6.874273235E-1,4.477469754E-2,-1.304205664E0,1.474962207E0
1.478590125E1,5.685575223E-1,-1.568932761E-1,-8.728437012E-1,1.053436891E0
1.479589925E1,5.514994401E-1,-2.874722591E-2,-6.715755218E-1,8.694778415E-1
1.480589725E1,4.744679287E-1,-2.138681800E-1,-9.646128273E-1,1.096055345E0
1.481589525E1,4.461054245E-1,-1.867393834E-1,-1.138994924E0,1.237413062E0
1.482589325E1,4.582559386E-1,-9.693148658E-2,-9.821152979E-1,1.088092219E0
1.483589125E1,4.080327415E-1,6.677137465E-2,-8.479901111E-1,9.434173855E-1
1.484588925E1,4.131101713E-1,1.123845264E-1,-6.183132344E-1,7.520648584E-1
1.485588725E1,3.673700345E-1,8.280308780E-2,-4.878916740E-1,6.163240861E-1
1.486588525E1,3.367472890E-1,6.906118541E-2,-5.770687294E-1,6.716967340E-1
1.487588325E1,2.852681100E-1,4.037155230E-2,-5.165126252E-1,5.914330468E-1
1.488588025E1,2.426097482E-1,3.362739432E-2,-4.209433937E-1,4.870150227E-1
1.489587925E1,2.097343630E-1,-5.112684768E-2,-5.839006162E-1,6.225290251E-1
1.490587725E1,1.880353457E-1,-3.313891427E-2,-4.100921309E-1,4.523616194E-1
1.491587425E1,1.556943959E-1,-8.788979540E-3,-2.212791055E-1,2.707072840E-1
1.492587225E1,1.487245148E-1,-4.360636904E-2,-2.236062974E-1,2.720666701E-1
1.493587025E1,1.738716352E-1,-5.760348869E-2,-3.409078753E-1,3.869983035E-1
1.494586825E1,1.622172573E-1,-4.989178782E-2,-5.187035769E-1,5.457627963E-1
1.495586625E1,2.048151004E-1,-3.837327548E-2,-5.293051636E-1,5.688459281E-1
1.496586425E1,2.288722998E-1,-2.204744053E-2,-4.693326116E-1,5.226296198E-1
1.497586225E1,2.515328917E-1,4.076487348E-2,-3.970236039E-1,4.717608638E-1
1.498586025E1,2.074951717E-1,-3.712932375E-2,-2.717388225E-1,3.439110650E-1
1.499585825E1,1.750252908E-1,5.950120709E-2,-1.806105512E-1,2.584461594E-1
1.500585625E1,1.447048464E-1,-1.647089615E-2,-2.324946499E-1,2.743438449E-1
1.501585425E1,1.569594410E-1,-2.472748899E-2,-3.114607126E-1,3.496505259E-1
1.502585225E1,1.188157144E-1,-6.444776424E-2,-3.345203769E-1,3.607971326E-1
1.503585025E1,1.226666906E-1,-1.021346177E-2,-3.526905996E-1,3.735533306E-1
1.504584825E1,1.761660826E-1,-1.475837687E-2,-2.973192215E-1,3.459060824E-1
1.505584625E1,1.715178385E-1,6.477672494E-2,-2.544474363E-1,3.136206162E-1
1.506584425E1,1.493104059E-1,-1.799905682E-2,-2.264667553E-1,2.718542893E-1
1.507584225E1,2.071300131E-1,3.481401136E-2,-3.804666281E-1,4.345914320E-1
1.508584025E1,2.486388123E-1,-1.617230443E-2,-5.693620992E-1,6.214949737E-1
1.509583825E1,2.048376122E-1,-1.011480782E-1,-4.306678981E-1,4.875081738E-1
1.510583625E1,2.384158328E-1,4.728060404E-2,-3.807332611E-1,4.517027573E-1
1.511583425E1,1.903210223E-1,-9.330584742E-2,-2.788730103E-1,3.502830692E-1
1.512583225E1,2.025282544E-1,4.395038632E-2,-2.811657035E-1,3.492899700E-1
1.513583025E1,2.529572734E-1,2.834229937E-3,-5.334332979E-1,5.903782671E-1
1.514582825E1,2.665596512E-1,-2.391693014E-2,-5.665115815E-1,6.265472362E-1
1.515582625E1,2.307375616E-1,2.066470879E-2,-4.697653055E-1,5.237807698E-1
1.516582425E1,1.537507814E-1,-2.903519443E-2,-3.207887757E-1,3.569142529E-1
1.517582225E1,1.587937126E-1,7.108855213E-3,-3.054854429E-1,3.443651184E-1
1.518582025E1,1.312851942E-1,-3.220284128E-2,-2.507607669E-1,2.848750382E-1
1.519581825E1,1.307197684E-1,1.355465673E-2,-2.439972925E-1,2.771390722E-1
1.520581625E1,1.494460613E-1,-2.116789596E-2,-3.306617993E-1,3.634823662E-1
1.521581425E1,1.027475658E-1,6.405585918E-3,-2.737923646E-1,2.925070131E-1
1.522581225E1,8.417827070E-2,-4.871132635E-2,-2.134298033E-1,2.345443572E-1
1.523581025E1,1.836382395E-1,-2.181446325E-2,-3.742785197E-1,4.174724951E-1
1.524580825E1,2.571576208E-1,-3.088575367E-2,-3.578963757E-1,4.417847750E-1
1.525580625E1,2.522509298E-1,-6.692677811E-2,-3.494991893E-1,4.361873548E-1
1.526580425E1,2.156713334E-1,-2.794960631E-2,-3.376930761E-1,4.016614472E-1
1.527580225E1,1.335390034E-1,5.686097452E-4,-2.125152987E-1,2.509895236E-1
1.528580025E1,9.830835968E-2,1.663599548E-2,-2.245862907E-1,2.457240157E-1
1.529579825E1,1.044871125E-1,4.787596480E-2,-2.691017282E-1,2.926181894E-1
1.530579625E1,1.312685296E-1,4.559028363E-2,-2.962836796E-1,3.272520735E-1
1.531579425E1,1.361959782E-1,6.434987363E-2,-2.822211260E-1,3.199046962E-1
1.532579225E1,8.643734246E-2,-5.389508859E-3,-2.735029274E-1,2.868872815E-1
1.533579025E1,7.636288226E-2,2.866460430E-3,-2.056471592E-1,2.193860991E-1
1.534578825E1,7.356615901E-2,-6.785116809E-2,-2.293611270E-1,2.502444552E-1
1.535578625E1,1.539835006E-1,-4.848792616E-2,-2.139794415E-1,2.680470086E-1
1.536578325E1,2.148574010E-1,-6.007829530E-2,-2.586445677E-1,3.415700759E-1
1.537578125E1,1.963436544E-1,-1.104615325E-2,-2.918228388E-1,3.518997263E-1
1.538577925E1,6.279821903E-2,-2.555786670E-2,-7.215581059E-2,9.901152390E-2
1.539577725E1,-1.089897609E-1,7.819458651E-3,1.811397243E-1,2.115455308E-1
1.540577525E1,-1.698148370E-1,2.234016220E-2,2.807932359E-1,3.289088066E-1
1.541577325E1,-1.602601942E-1,-2.691790394E-2,2.863042367E-1,3.292081702E-1
1.542577125E1,-1.276257142E-1,-5.410473868E-2,2.190916622E-1,2.592620337E-1
1.543576925E1,1.857192636E-2,-2.292708104E-2,-4.326237917E-2,5.236602854E-2
1.544576725E1,1.206189957E-1,-7.924423025E-3,-2.761230648E-1,3.014227687E-1
1.545576525E1,5.173177868E-2,-6.524843536E-2,-2.473430693E-1,2.609830055E-1
1.546576325E1,-5.581898242E-2,-9.356280514E-3,2.038807154E-2,6.015789428E-2
1.547576125E1,-1.239124399E-1,3.216794071E-2,2.413256997E-1,2.731797257E-1
1.548575925E1,-1.397978631E-1,4.313660465E-2,3.136235976E-1,3.460693141E-1
1.549575725E1,-2.651741534E-2,2.016530861E-2,1.016532594E-1,1.069728850E-1
1.550575525E1,4.577229649E-2,3.756525423E-2,1.633302748E-2,6.142490731E-2
1.551575325E1,1.088810027E-2,-2.072857820E-2,-6.560575962E-4,2.342338774E-2
1.552575125E1,9.401504159E-2,-3.190094451E-2,-2.084865671E-1,2.309180525E-1
1.553574950E1,8.205426961E-2,-3.303764552E-2,-1.912846434E-1,2.107467769E-1
1.554574750E1,-1.648330092E-2,-4.095390757E-2,2.491732478E-2,5.069314380E-2
1.555574550E1,-1.055524752E-1,-6.057481071E-2,2.163914180E-1,2.482657417E-1
1.556574350E1,-1.492665517E-1,-1.731597184E-2,3.575127983E-1,3.878089057E-1
1.557574150E1,-1.845191225E-1,-3.046926290E-2,2.545129251E-1,3.158362101E-1
1.558573950E1,-1.068210286E-1,2.728648637E-2,2.015447527E-1,2.297293447E-1
1.559573750E1,-2.277198136E-2,-2.183010684E-2,1.808134496E-2,3.636002936E-2
1.560573550E1,1.360103291E-1,3.269290419E-2,-2.544298947E-1,2.903484233E-1
1.561573350E1,2.107582104E-1,3.298585655E-3,-3.448149848E-1,4.041376964E-1
1.562573150E1,1.989646688E-1,8.299711486E-3,-4.136799824E-1,4.591154022E-1
1.563572950E1,1.904841596E-1,-1.441585338E-3,-3.244643354E-1,3.762491172E-1
1.564572750E1,1.371970215E-1,7.816053105E-3,-2.866299266E-1,3.178691998E-1
1.565572550E1,3.533881724E-2,-3.264579984E-2,-1.434538347E-1,1.513062554E-1
1.566572350E1,-1.367438623E-1,-6.563833958E-2,2.026329195E-1,2.531153405E-1
1.567572150E1,-1.474977690E-1,-2.591598582E-2,2.316830564E-1,2.758700215E-1
1.568571950E1,-4.068492651E-2,-2.508650803E-2,5.532576978E-2,7.311317892E-2
1.569571750E1,3.419627130E-2,-3.583165758E-2,-8.123770595E-2,9.514650557E-2
1.570571550E1,4.652571023E-2,-2.673075421E-2,-1.170612574E-1,1.287731063E-1
1.571571350E1,-7.288612783E-2,2.829352994E-2,2.003729707E-1,2.150865846E-1
1.572571150E1,-2.342952999E-1,1.897175485E-2,5.200981379E-1,5.707506356E-1
1.573570950E1,-2.407629052E-1,5.706622093E-3,5.328982776E-1,5.847904893E-1
1.574570750E1,-1.292854464E-1,4.557463776E-3,3.165185541E-1,3.419349239E-1
1.575570550E1,-3.244736910E-2,3.918428886E-2,1.171366864E-1,1.277076488E-1
1.576570350E1,2.722229719E-2,-2.495556466E-2,-1.529467893E-1,1.573421559E-1
1.577570150E1,6.782857865E-2,-2.951593377E-2,-1.909712327E-1,2.047972610E-1
1.578569950E1,-3.456172228E-2,-3.994079066E-2,-3.057509065E-3,5.290678375E-2
1.579569750E1,-1.312167817E-1,-5.868555249E-2,1.837785727E-1,2.333160981E-1
1.580569550E1,-1.108149692E-1,-8.156942580E-2,1.810531855E-1,2.274066503E-1
1.581569350E1,-4.155353040E-2,-2.565495789E-2,8.181190252E-2,9.527885467E-2
1.582569150E1,1.675373465E-2,2.068388583E-2,-9.469741166E-2,9.836722285E-2
1.583568850E1,5.092866361E-2,2.527521778E-2,-6.496490479E-2,8.633078399E-2
1.584568650E1,-1.826202393E-2,4.666970705E-2,2.084473908E-2,5.427767700E-2
1.585568450E1,-4.826847285E-2,6.376154780E-2,1.173308140E-1,1.419926067E-1
1.586568250E1,-3.130686969E-2,-1.702768812E-2,9.306954682E-2,9.965943406E-2
1.587568050E1,-5.949015677E-2,-2.622661915E-2,1.672777301E-1,1.794679729E-1
1.588567850E1,-5.962171912E-2,-3.479949154E-2,2.117539912E-1,2.227229373E-1
1.589567650E1,-8.563013434E-2,-1.050345306E-1,1.853035265E-1,2.295695308E-1
1.590567450E1,-1.187575346E-1,-6.056347716E-2,1.264670885E-1,1.837531258E-1
