"Time (s)","Linear Acceleration x (m/s^2)","Linear Acceleration y (m/s^2)","Linear Acceleration z (m/s^2)","Absolute acceleration (m/s^2)"
1.063199999E-2,7.391191218E-3,-4.363846477E-2,-2.919807136E-2,5.302332210E-2
2.063099999E-2,2.544734747E-2,-5.571044348E-2,-2.454953492E-2,6.598409408E-2
3.062999999E-2,4.274045122E-2,-3.340232905E-2,-1.636635661E-3,5.426914715E-2
4.062900000E-2,2.931708047E-2,-1.940442368E-2,-3.292099357E-2,4.816445456E-2
5.062800000E-2,2.228088833E-2,-3.210103121E-2,-3.322855711E-2,5.129377347E-2
6.062700000E-2,1.238168014E-2,-2.163232248E-2,1.167864382E-2,2.752551726E-2
7.062600000E-2,-5.665147975E-3,-2.589969356E-2,-1.198094487E-3,2.653909302E-2
8.062500000E-2,-2.122020341E-2,-1.255821124E-2,-3.653691173E-2,4.407892491E-2
9.062400000E-2,-2.914156350E-2,-5.086617149E-2,-2.696151137E-2,6.452535332E-2
1.006230000E-1,-3.015246486E-2,-2.583804198E-2,-2.591895282E-2,4.741906437E-2
1.106220000E-1,-1.268531509E-2,-5.802371163E-2,-3.686727941E-2,6.990611290E-2
1.206210000E-1,1.106446691E-2,-7.185895476E-2,-9.560197592E-4,7.271207452E-2
1.306200000E-1,6.858336283E-3,-8.790404342E-2,1.654762030E-2,8.971054210E-2
1.406190000E-1,2.199178007E-2,-8.787604988E-2,-1.820413649E-2,9.239712722E-2
1.506180000E-1,5.853556227E-3,-1.128663187E-1,-2.256265104E-2,1.152481810E-1
1.606170000E-1,5.631873664E-3,-7.207471702E-2,-1.418359101E-2,7.367263460E-2
1.706160000E-1,-4.350794395E-3,-9.896006841E-2,-8.954426050E-3,9.945957117E-2
1.806150000E-1,-4.388198303E-3,-7.933217146E-2,5.408089757E-3,7.963728490E-2
1.906140000E-1,-1.433123320E-2,-4.650787622E-2,1.210373640E-3,4.868091823E-2
2.006130000E-1,2.057525553E-3,-5.459621999E-2,4.953176379E-3,5.485904306E-2
2.106120000E-1,3.514724784E-4,-4.938598540E-2,-3.022718132E-2,5.790320869E-2
2.206110000E-1,1.177550660E-2,-2.721451309E-2,-4.505162716E-2,5.393460288E-2
2.306100000E-1,1.377079586E-2,-1.685507420E-2,-1.048990488E-3,2.179056507E-2
2.406090000E-1,1.640181449E-2,-1.225262113E-2,5.078891516E-3,2.109363369E-2
2.506080000E-1,9.917471604E-3,-2.376823727E-2,-8.256268501E-3,2.704535664E-2
2.606070000E-1,-1.744644698E-2,-4.694809847E-2,-2.906943262E-2,5.790970881E-2
2.706060000E-1,-1.741750326E-2,-2.690581664E-2,-3.625449121E-2,4.839091363E-2
2.806050000E-1,1.053229719E-3,-2.590926837E-2,-4.231045246E-3,2.627358415E-2
2.906040000E-1,1.984124724E-3,-6.488688100E-2,2.284799516E-2,6.882059982E-2
3.006030000E-1,-1.177687705E-2,-7.333490163E-2,-8.590144515E-3,7.476960086E-2
3.106020000E-1,-2.188583583E-2,-1.003289381E-1,-2.355609298E-2,1.053554705E-1
3.206010000E-1,-4.626426660E-3,-7.966378167E-2,-3.253683150E-2,8.617637343E-2
3.306000000E-1,1.826871168E-2,-6.106762592E-2,-1.966477096E-2,6.670610151E-2
3.405990000E-1,2.410566729E-2,-8.035854053E-2,-1.143832326E-2,8.467238907E-2
3.505980000E-1,2.482473778E-2,-6.547141984E-2,1.954490304E-2,7.269647623E-2
3.605970000E-1,2.286186403E-2,-8.113351587E-2,9.064938426E-3,8.477903829E-2
3.705960000E-1,-3.258077698E-3,-6.584045224E-2,-3.988502741E-2,7.704800862E-2
3.805950000E-1,-3.138865761E-2,-3.622284316E-2,-3.898455620E-2,6.178298969E-2
3.905940000E-1,-2.400483937E-2,-3.824535850E-2,-5.008140206E-3,4.543150040E-2
4.005930000E-1,-1.208110585E-2,-3.491222631E-2,-7.542908192E-5,3.694350219E-2
4.105920000E-1,-6.811732147E-3,-2.173234642E-2,-2.463022649E-2,3.354612694E-2
4.205910000E-1,1.398846759E-2,-2.153708596E-2,-6.966957450E-3,2.660943053E-2
4.305900000E-1,1.920454027E-2,5.239799581E-3,-9.060260653E-3,2.187140119E-2
4.405890000E-1,3.031496264E-2,-7.746537477E-3,-1.954607248E-2,3.689247555E-2
4.505880000E-1,2.398965488E-2,-4.517401669E-2,-3.677255452E-2,6.299536563E-2
4.605870000E-1,5.611243956E-3,-3.028506875E-2,-2.629726768E-2,4.049960167E-2
4.705860000E-1,5.804649750E-3,-6.222318191E-2,1.516241491E-2,6.430643165E-2
4.805850000E-1,3.361335872E-3,-4.844816510E-2,-8.345730901E-3,4.927651068E-2
4.905840000E-1,-2.590547682E-2,-6.845430382E-2,-2.646625221E-2,7.783025084E-2
5.005830000E-1,-3.331441982E-2,-5.844200682E-2,-1.463908911E-2,6.884491019E-2
5.105820000E-1,-2.212904345E-2,-6.386138901E-2,-2.497170389E-2,7.205246398E-2
5.205810000E-1,-5.602555359E-3,-7.076969158E-2,-8.959103823E-3,7.155419914E-2
5.305800000E-1,-7.022688724E-4,-8.205225963E-2,2.247260392E-2,8.507693236E-2
5.405790000E-1,4.723764528E-3,-4.519090053E-2,-1.375966787E-2,4.747483440E-2
5.505780000E-1,4.715231247E-3,-6.144897401E-2,-4.490953982E-2,7.625664941E-2
5.605770000E-1,5.925275981E-3,-4.002174262E-2,-2.964070559E-2,5.015396500E-2
5.705760000E-1,1.009862565E-2,-3.768709559E-2,5.089416504E-3,3.934719271E-2
5.805750000E-1,1.167652421E-2,-3.782980420E-2,9.575400352E-3,4.073234090E-2
5.905740000E-1,-7.874829043E-4,-4.475652549E-2,-1.033729255E-2,4.594155331E-2
6.005730000E-1,-1.646416957E-2,-5.310587436E-2,-4.641753674E-2,7.242851985E-2
6.105720000E-1,-1.509980402E-2,-5.747228265E-2,-3.638605356E-2,6.967791794E-2
6.205710000E-1,-2.960381331E-3,-5.415614393E-2,1.420931876E-2,5.606742835E-2
6.305700000E-1,9.181307154E-3,-6.989092816E-2,-6.745347977E-3,7.081340240E-2
6.405690000E-1,-1.287538614E-3,-8.462770231E-2,-1.228149176E-2,8.552391943E-2
6.505680000E-1,-5.591738010E-3,-6.776393037E-2,-1.497296512E-2,6.962332568E-2
6.605670000E-1,1.730693607E-3,-6.106338669E-2,-3.443659186E-2,7.012568255E-2
6.705660000E-1,-7.936690757E-3,-4.364979375E-2,-1.872161508E-2,4.815386200E-2
6.805650000E-1,-2.014814383E-2,-5.918774609E-2,2.124527335E-2,6.603407171E-2
6.905640000E-1,-1.628666089E-2,-1.868602015E-2,1.233762503E-4,2.478785779E-2
7.005630000E-1,-2.771360035E-2,2.756596729E-4,-2.188378930E-2,3.531316846E-2
7.105620000E-1,-2.435527945E-2,6.163257658E-3,-3.715905547E-2,4.485488586E-2
7.205610000E-1,-5.442232015E-3,1.371193998E-2,-3.118904829E-2,3.450205676E-2
7.305600000E-1,1.739824399E-2,1.416579355E-2,-6.654716134E-3,2.340200521E-2
7.405590000E-1,2.638364201E-2,-9.968771785E-4,-6.065901518E-3,2.709032099E-2
7.505580000E-1,2.873195691E-2,6.534592398E-3,-2.134058297E-2,3.638195606E-2
7.605570000E-1,1.935263928E-2,-3.550034657E-2,-1.162368000E-2,4.207028869E-2
7.705560000E-1,2.129137499E-2,-6.944401816E-2,-3.377878010E-2,8.010493301E-2
7.805550000E-1,1.224847326E-2,-6.790170539E-2,-9.825661182E-3,6.969368917E-2
7.905544583E-1,-9.408983113E-3,-1.139280634E-1,1.951566696E-2,1.159697971E-1
8.005534583E-1,-3.121071953E-2,-1.095824858E-1,-1.940398514E-2,1.155809018E-1
8.105524583E-1,-3.782049433E-2,-1.263339547E-1,-3.421673656E-2,1.362403866E-1
8.205514583E-1,-3.057833402E-2,-1.247423791E-1,-9.359638095E-3,1.287761565E-1
8.305504583E-1,-2.416021085E-2,-1.163442791E-1,4.573692083E-3,1.189143630E-1
8.405494583E-1,-1.290855082E-3,-1.062886396E-1,1.011685252E-2,1.067768323E-1
8.505484583E-1,-1.714723399E-3,-8.790769793E-2,-1.322464764E-2,8.891341258E-2
8.605474583E-1,1.027648151E-3,-4.457409237E-2,-3.357880533E-2,5.581614406E-2
8.705464583E-1,5.755624501E-3,-8.459276520E-3,-3.148374796E-2,3.310457609E-2
8.805454583E-1,1.331651288E-2,2.013452165E-3,-2.459865153E-2,2.804420015E-2
8.905444584E-1,1.521000576E-2,2.166886758E-2,-6.513798237E-4,2.648222787E-2
9.005434584E-1,1.665615924E-2,2.856119994E-2,-1.106877923E-3,3.308164085E-2
9.105424583E-1,-4.210068360E-3,3.961707875E-2,-2.162592709E-2,4.533120699E-2
9.205414583E-1,-1.196813582E-2,2.241895571E-2,-3.061192811E-2,3.978612814E-2
9.305404583E-1,-1.107985239E-2,1.123688668E-2,-1.999104559E-2,2.546905289E-2
9.405394583E-1,-1.321288926E-2,-7.572546266E-3,-1.056241035E-2,1.853344037E-2
9.505384583E-1,-6.013916116E-3,-2.773301493E-2,-1.220898628E-2,3.089250152E-2
9.605374583E-1,7.187141664E-3,-3.367265314E-2,-1.266565382E-2,3.668680092E-2
9.705364583E-1,2.892909944E-3,-7.272733938E-2,-2.134350657E-2,7.584972046E-2
9.805354583E-1,-3.751902469E-4,-8.483494956E-2,-2.778479934E-2,8.926984098E-2
9.905344583E-1,7.566141738E-3,-9.985896818E-2,-1.041856885E-2,1.006856822E-1
1.000533458E0,-3.228841620E-3,-9.504159339E-2,4.253849387E-3,9.519151814E-2
1.010532458E0,-1.554605621E-2,-9.861968737E-2,-3.686669469E-3,9.990552604E-2
1.020531458E0,-2.668178606E-2,-1.093852885E-1,-1.296327710E-2,1.133362501E-1
1.030530458E0,-1.673018133E-2,-1.030772026E-1,-1.519749820E-2,1.055261703E-1
1.040529458E0,-6.836692449E-3,-7.721036308E-2,-1.459815860E-2,7.887513400E-2
1.050528458E0,-5.288770013E-3,-6.976740573E-2,2.461677790E-3,7.001086950E-2
1.060527458E0,1.200558540E-2,-5.214254558E-2,5.001708269E-3,5.374008026E-2
1.070526458E0,1.147160671E-2,-4.363864750E-2,-3.092884719E-2,5.470395694E-2
1.080525458E0,5.915006809E-3,-1.576131597E-2,-2.943663776E-2,3.391050028E-2
1.090524458E0,3.931987574E-3,1.830945946E-3,-6.686875820E-3,7.970395070E-3
1.100523458E0,8.534586830E-3,1.341216054E-2,-1.402863979E-2,2.120207436E-2
1.110522458E0,4.459059248E-3,1.947126467E-2,-1.643886209E-2,2.586985782E-2
1.120521458E0,-3.278862722E-3,3.031141777E-2,-1.614767075E-2,3.450043852E-2
1.130520458E0,-9.597236048E-3,1.415099278E-2,-2.978162348E-2,3.434097602E-2
1.140519458E0,4.115041969E-3,7.369684428E-4,-2.216036260E-2,2.255123862E-2
1.150518458E0,-5.147102941E-4,-1.039013676E-2,-6.900883913E-3,1.248367203E-2
1.160517458E0,-8.451063009E-3,-1.249476895E-2,1.021508574E-3,1.511896811E-2
1.170516458E0,6.963695800E-3,-6.394182477E-2,-2.024247587E-2,6.743002183E-2
1.180515458E0,1.753707882E-3,-6.721611936E-2,-4.075684726E-2,7.862698514E-2
1.190514458E0,-2.151164143E-2,-9.304597523E-2,-2.518512726E-2,9.876535252E-2
1.200513458E0,-1.219609500E-2,-8.892383438E-2,1.538402438E-2,9.106514844E-2
1.210512458E0,-3.945993483E-3,-8.844586104E-2,2.151482999E-2,9.111053237E-2
1.220511458E0,-2.820487610E-2,-9.558805224E-2,-1.693938375E-3,9.967677861E-2
1.230510458E0,-3.307677618E-2,-1.007647750E-1,-1.995771646E-2,1.079162798E-1
1.240509458E0,-2.126120701E-2,-9.217389956E-2,-9.629194736E-3,9.508305882E-2
1.250508458E0,7.834994886E-4,-6.443313707E-2,-2.040795207E-2,6.759236297E-2
1.260507458E0,1.793633401E-3,-4.334584817E-2,-3.403371871E-2,5.513958364E-2
1.270506458E0,-1.459492436E-3,-3.456168573E-2,-9.494708776E-3,3.587185155E-2
1.280505458E0,1.254765884E-2,-3.345933940E-2,-8.904139996E-3,3.682736543E-2
1.290504458E0,2.052769208E-2,-3.565624796E-2,-3.586097360E-2,5.457805042E-2
1.300503458E0,7.076081112E-3,4.567369781E-3,-1.266389966E-2,1.520875226E-2
1.310502458E0,-1.489123201E-2,-3.572064042E-2,-1.311238110E-2,4.086132011E-2
1.320501458E0,-6.149562383E-3,2.577536713E-2,-3.138493001E-2,4.107554626E-2
1.330500458E0,-9.537439132E-3,-1.870696049E-2,3.483771086E-3,2.128496599E-2
1.340499458E0,-1.914680815E-2,-3.853461295E-3,-2.167036593E-2,2.917283301E-2
1.350498458E0,-1.562894963E-2,-3.783400688E-2,-3.859571636E-2,5.626104749E-2
1.360497458E0,3.312712619E-3,-1.685123697E-2,-5.664197803E-3,1.808373272E-2
1.370496458E0,9.735513562E-3,-5.226647001E-2,-1.419879377E-2,5.502880933E-2
1.380495458E0,1.203680405E-2,-5.131779581E-2,-2.378471911E-2,5.782831211E-2
1.390494458E0,5.732674180E-3,-8.157724645E-2,1.662655771E-2,8.345150156E-2
1.400493458E0,-1.257927949E-3,-8.305553220E-2,-1.615468740E-2,8.462137872E-2
1.410492458E0,-1.924406379E-2,-9.928316362E-2,-3.336655140E-2,1.064932267E-1
1.420491458E0,-3.331480354E-2,-7.660210647E-2,4.512881041E-3,8.365479631E-2
1.430490458E0,-2.495132086E-2,-6.640602417E-2,-1.300654650E-2,7.212141645E-2
1.440489458E0,-1.895254355E-2,-5.098662414E-2,3.752743006E-3,5.452446999E-2
1.450488458E0,-2.519198860E-2,-6.659390252E-2,-2.382155657E-3,7.123944700E-2
1.460487458E0,-1.235905873E-2,-5.763315417E-2,-5.147128522E-2,7.825356219E-2
1.470486458E0,6.531933742E-3,-4.056666657E-2,-2.467583477E-2,4.792929602E-2
1.480485458E0,9.972590748E-3,-3.132726185E-2,-1.493788183E-2,3.611080468E-2
1.490484458E0,1.111785016E-2,-1.239554901E-2,-1.434672832E-2,2.197919109E-2
1.500483458E0,1.259182359E-2,4.362534508E-3,1.079629898E-2,1.715067930E-2
1.510482458E0,-3.504556110E-3,-1.153377905E-2,-2.231882215E-3,1.225933404E-2
1.520481458E0,-1.457789434E-2,1.991579924E-2,-6.690325677E-2,7.131058708E-2
1.530480458E0,-1.802690190E-2,1.213732135E-2,-3.112765253E-2,3.796333117E-2
1.540479458E0,-1.347091592E-2,2.169773821E-2,2.919280887E-2,3.878759478E-2
1.550478458E0,6.820238018E-3,2.443942454E-2,1.315331161E-2,2.857990071E-2
1.560477458E0,-1.543292172E-2,-5.944586411E-2,-6.829021633E-2,9.184519301E-2
1.570476458E0,-1.775756453E-2,-6.145620994E-2,-8.555645943E-3,6.453987849E-2
1.580475458E0,1.234087754E-2,-4.794475637E-2,-8.548629284E-2,9.878716104E-2
1.590474458E0,5.218817214E-2,-1.341474428E-1,-1.468615919E-1,2.056391716E-1
1.600473458E0,4.210712467E-2,1.884631426E-1,2.325841123E-1,3.023023906E-1
1.610472458E0,5.234430193E-2,-2.782572254E-1,2.897663730E-1,4.051315346E-1
1.620471458E0,-7.672166375E-2,-7.322990756E-2,-3.788966507E-1,3.934609319E-1
1.630470458E0,-5.942729920E-2,-1.800609130E-1,-4.625334692E-1,4.998907345E-1
1.640469458E0,-9.296003030E-2,-2.440138840E-1,2.932407886E-1,3.926506117E-1
1.650468458E0,5.488084235E-2,2.644898465E-1,3.310810447E-1,4.272954995E-1
1.660467458E0,5.347845163E-3,-1.637372045E-1,-2.255966896E-1,2.788051971E-1
1.670466458E0,-1.011300250E-1,-1.362059185E-1,-2.035731518E-1,2.649931364E-1
1.680465458E0,5.311403305E-2,-4.149436388E-2,1.244024366E-1,1.414879817E-1
1.690464458E0,3.326597929E-2,-6.986947618E-3,-1.392806768E-2,3.673464148E-2
1.700463458E0,2.186384481E-2,-2.683890257E-2,-9.922666490E-2,1.050917952E-1
1.710462458E0,4.969473666E-2,5.724636085E-2,1.047973073E-1,1.293413634E-1
1.720461458E0,2.206710865E-2,2.573440008E-2,5.521291852E-2,6.478952850E-2
1.730460458E0,-2.624009287E-2,-4.415630881E-2,-1.350303358E-1,1.444697673E-1
1.740459458E0,-3.315161141E-2,-7.286142334E-2,-6.674596667E-2,1.042249510E-1
1.750458458E0,-4.027122687E-2,3.020013794E-3,5.047082663E-2,6.463897073E-2
1.760457458E0,-4.524834028E-2,-3.059818715E-2,-3.037920892E-2,6.250246147E-2
1.770456458E0,2.606332423E-3,-3.382431529E-2,-3.682459474E-2,5.006923258E-2
1.780455458E0,-3.843632491E-2,1.235991754E-3,4.343077898E-2,5.800957948E-2
1.790454458E0,-1.754702822E-2,-9.915916611E-2,-8.055709004E-3,1.010214476E-1
1.800453458E0,1.558771762E-2,-7.187890839E-2,-8.455249250E-2,1.120655094E-1
1.810452458E0,3.678540012E-2,-3.473045100E-2,1.843042374E-3,5.062377597E-2
1.820451458E0,3.662409919E-2,-2.439779967E-2,4.525686443E-2,6.312496375E-2
1.830450458E0,2.157198653E-2,-1.352899522E-2,-1.539454937E-2,2.975527625E-2
1.840449458E0,-2.931194589E-2,-9.218172021E-2,-2.063482404E-2,9.890629745E-2
1.850448458E0,-2.448822138E-2,-4.043313079E-2,-2.435365319E-2,5.317529008E-2
1.860447458E0,-4.435003437E-2,-3.675764412E-2,-2.943956137E-2,6.468954879E-2
1.870446458E0,-4.054505928E-2,1.652371980E-2,4.525744915E-3,4.401610518E-2
1.880445458E0,-5.175608117E-3,-1.824704044E-2,-3.399571180E-3,1.926910710E-2
1.890444458E0,-1.267081582E-2,-2.312248539E-2,-3.752333701E-2,4.586065552E-2
1.900443458E0,-1.470136195E-3,-9.088871811E-2,-1.672186732E-2,9.242586881E-2
1.910442458E0,1.604270409E-2,9.634639956E-3,9.507572651E-4,1.873762474E-2
1.920441458E0,1.334483533E-2,-6.026524175E-2,-3.871149123E-2,7.285988983E-2
1.930440458E0,9.389020354E-3,1.425927591E-2,-4.126146197E-2,4.465410280E-2
1.940439458E0,3.105364870E-3,-1.483584791E-3,2.608676791E-2,2.631280629E-2
1.950438458E0,-2.585593080E-3,-6.880659856E-2,3.787241578E-3,6.895923793E-2
1.960437458E0,-5.644874582E-3,-3.136647474E-2,-3.662520468E-2,4.855024165E-2
1.970436458E0,-1.761720395E-2,-4.955884371E-2,-1.820881426E-2,5.565973214E-2
1.980435458E0,-2.151449195E-2,1.041769177E-2,-1.731419027E-2,2.951580679E-2
1.990434458E0,8.208942600E-4,-4.170442510E-2,-3.632758141E-2,5.531388715E-2
2.000433458E0,-2.058155956E-3,-6.200128008E-2,1.606288612E-2,6.408128469E-2
2.010432458E0,-4.002272934E-3,-7.683698181E-2,7.537060976E-3,7.730942537E-2
2.020431458E0,8.806071226E-3,-3.838448569E-2,-3.363143027E-2,5.178792074E-2
2.030430458E0,-5.038847225E-3,-2.565195434E-2,-2.675802827E-2,3.740861959E-2
2.040429458E0,-3.597351423E-2,-2.123843942E-2,-2.033018410E-2,4.645945997E-2
2.050428458E0,-2.505027585E-2,-3.439109322E-2,-3.123582602E-3,4.266169688E-2
2.060427458E0,-1.853004567E-2,-6.255563267E-2,9.893488884E-3,6.598826330E-2
2.070426458E0,-2.125291128E-2,-3.267482579E-2,-2.274333000E-2,4.512858892E-2
2.080425458E0,-1.318779191E-2,-1.193964891E-3,-3.562299192E-2,3.800448606E-2
2.090424458E0,-8.808099478E-4,-1.360285286E-2,-1.827079475E-2,2.279551212E-2
2.100423458E0,2.396959162E-2,-2.066530265E-2,-3.765022159E-3,3.187116954E-2
2.110422458E0,1.703609121E-2,-3.399589453E-2,1.328779757E-2,4.028045199E-2
2.120421458E0,2.664104741E-2,-4.201107502E-2,-1.036711335E-2,5.081488828E-2
2.130420458E0,6.494877012E-3,-1.950123165E-2,-3.597207069E-2,4.143031901E-2
2.140419458E0,-1.688135927E-2,-2.889383342E-2,-1.098107100E-2,3.521956588E-2
2.150418458E0,-2.458208746E-2,-5.264617357E-2,-1.858245134E-3,5.813219152E-2
2.160417458E0,-1.290527089E-2,-3.864545424E-2,-1.503903866E-2,4.343028706E-2
2.170416458E0,-4.124081399E-2,-6.762089286E-2,-9.646736383E-3,7.979003329E-2
2.180415458E0,-3.192207900E-2,-3.215219434E-2,3.976691365E-3,4.548182937E-2
2.190414458E0,-1.952157813E-2,-7.358450465E-2,-8.608855605E-3,7.661516646E-2
2.200413458E0,-5.403740890E-4,-6.054707754E-2,-3.586331248E-2,7.037341675E-2
2.210412458E0,1.153424500E-2,-5.776563015E-2,-9.520436525E-3,5.967030707E-2
2.220411458E0,1.586578013E-3,-3.498707067E-2,1.217858076E-2,3.708005088E-2
2.230410458E0,1.319701041E-2,-3.878326580E-2,-1.746972620E-2,4.453643591E-2
2.240409458E0,2.093362589E-2,-3.551448952E-2,-3.364137053E-2,5.320937390E-2
2.250408458E0,8.925226517E-3,-5.673487566E-2,1.290889800E-2,5.886548592E-2
2.260407458E0,-1.832654430E-3,-2.146648083E-2,2.038982570E-2,2.966333450E-2
2.270406458E0,-2.293882800E-2,-3.173174299E-3,-2.708020985E-2,3.563139951E-2
2.280405458E0,-4.431494194E-2,-1.481044907E-2,-4.549893916E-2,6.521745890E-2
2.290404458E0,-3.980738735E-2,-1.034595374E-2,-1.855789304E-2,4.512274637E-2
2.300403458E0,-1.412012131E-2,-2.720121067E-2,8.821109533E-3,3.189193724E-2
2.310402458E0,8.956655301E-4,-1.869128264E-2,1.435082138E-2,2.358203422E-2
2.320401458E0,2.856967840E-3,-2.378903143E-2,-9.303504825E-3,2.570283027E-2
2.330400458E0,1.386374831E-2,-1.539411083E-2,-5.182738066E-2,5.581451022E-2
2.340399458E0,1.370731702E-2,-2.165245883E-2,-5.887561440E-2,6.421103865E-2
2.350398458E0,1.119754588E-2,-2.323749281E-2,-2.075761557E-4,2.579552663E-2
2.360397458E0,-4.585587513E-4,-4.128879771E-2,3.376416206E-2,5.333848266E-2
2.370396458E0,-9.228404649E-3,-4.541561633E-2,-6.365863681E-3,4.677890422E-2
2.380395458E0,-2.282305313E-2,-5.808532666E-2,-3.375597596E-2,7.095253936E-2
2.390394458E0,-3.338792115E-2,-5.559196427E-2,-4.004173279E-2,7.621391038E-2
2.400393458E0,-1.572670776E-2,-4.760872420E-2,-1.414733827E-2,5.209670947E-2
2.410392458E0,4.531071363E-3,-7.602202613E-2,2.626861632E-2,8.056003518E-2
2.420391458E0,5.193981165E-3,-6.218667336E-2,3.662695885E-3,6.251060010E-2
2.430390458E0,-6.008562259E-4,-7.871284168E-2,-3.555399477E-2,8.637221207E-2
2.440389458E0,-8.204210009E-3,-5.194871038E-2,-4.034344912E-2,6.628402114E-2
2.450388458E0,-1.487789305E-2,-3.608086545E-2,-6.364694238E-3,3.954351889E-2
2.460387458E0,-9.568566419E-3,-2.330089856E-2,2.613705397E-3,2.532431229E-2
2.470386458E0,-1.746665642E-2,-4.231973492E-2,-2.924777269E-3,4.587590186E-2
2.480385458E0,-2.256528229E-2,-1.116061706E-2,-1.355326116E-2,2.859094657E-2
2.490384458E0,-1.565627622E-2,-1.016911201E-2,-2.104120553E-2,2.812938240E-2
2.500383458E0,-1.890757481E-2,-3.660905175E-3,-4.005868971E-2,4.444769098E-2
2.510382458E0,2.246098258E-3,8.308272175E-3,-3.362616777E-2,3.471010664E-2
2.520381458E0,1.859171553E-2,7.790683955E-3,-1.144884825E-3,2.019052758E-2
2.530380458E0,2.440950324E-2,1.429753862E-3,-8.482555747E-3,2.588091568E-2
2.540379458E0,2.668957930E-2,-6.910568364E-3,-1.463382661E-2,3.121279353E-2
2.550378458E0,1.878244439E-2,-2.422914404E-2,-2.422267556E-2,3.907134052E-2
2.560377458E0,2.583363829E-3,-3.837008692E-2,-3.709999859E-2,5.343544923E-2
2.570376458E0,-4.087834144E-3,1.947451718E-3,-6.571100950E-3,7.980120543E-3
2.580375458E0,-1.945865661E-2,-4.504983645E-2,7.794338465E-3,4.968781333E-2
2.590374458E0,-4.484617976E-2,-5.459643926E-2,-3.142586052E-2,7.732745779E-2
2.600373458E0,-4.179058017E-2,-7.213128883E-2,-1.630028307E-2,8.494159551E-2
2.610372458E0,-2.470990394E-2,-5.480375960E-2,2.127450943E-2,6.377018246E-2
2.620371458E0,-1.859175207E-2,-4.320924260E-2,-1.854853749E-2,5.056421792E-2
2.630370458E0,-1.981307097E-2,-5.301780067E-2,-4.744489253E-2,7.385433499E-2
2.640369458E0,-9.020828493E-3,-5.497533884E-2,3.900092840E-3,5.584687951E-2
2.650368458E0,1.227521514E-2,-6.212330416E-2,2.186683238E-2,6.699361301E-2
2.660367458E0,1.434898498E-2,-3.592236936E-2,-2.124527335E-2,4.413243286E-2
2.670366458E0,-5.044868030E-4,-4.783862941E-2,-2.827888906E-2,5.557413551E-2
2.680365458E0,5.863341177E-3,-1.674865488E-2,1.960571408E-3,1.785329242E-2
2.690364458E0,1.277744528E-2,-2.679413483E-2,-2.364263177E-2,3.794947702E-2
2.700363458E0,3.549716715E-3,-1.868338890E-2,-2.140431762E-2,2.863239987E-2
2.710362458E0,-4.775868701E-3,-5.991342209E-2,2.395838141E-2,6.470263603E-2
2.720361458E0,-9.248120729E-3,-8.672224805E-3,-8.221185207E-3,1.511036420E-2
2.730360458E0,-8.264737828E-3,-2.935960069E-2,-5.867505491E-2,6.612907161E-2
2.740359458E0,-1.971844657E-2,-2.698888365E-2,-1.016889274E-2,3.493742056E-2
2.750358458E0,-1.889011539E-2,-4.489199817E-3,1.228909314E-2,2.297849395E-2
2.760357458E0,-1.533311706E-2,-4.601532139E-2,-4.249814808E-2,6.448726131E-2
2.770356458E0,-8.350911168E-3,-1.535098761E-2,-9.116393924E-3,1.971038245E-2
2.780355458E0,-2.053162068E-2,-1.155267287E-2,-2.964538336E-3,2.374447695E-2
2.790354958E0,-1.606660458E-2,-4.289882854E-3,-4.443650007E-2,4.744619496E-2
2.800353958E0,7.975026565E-3,-2.767827038E-2,-2.019511342E-2,3.517854894E-2
2.810352958E0,-2.768126708E-3,-2.748264447E-3,1.243878186E-2,1.303605681E-2
2.820351958E0,-9.742731219E-3,-2.232057631E-2,-7.770949602E-3,2.556397066E-2
2.830350958E0,9.431184260E-3,-2.773308802E-2,-2.394902587E-2,3.783685040E-2
2.840349958E0,4.417498335E-3,1.420365427E-2,-2.979390264E-2,3.330067147E-2
2.850348958E0,4.684816590E-3,-1.978387143E-2,-2.290939093E-2,3.062987542E-2
2.860347958E0,-2.455081400E-3,-2.482545041E-2,-1.453910172E-2,2.887413880E-2
2.870346958E0,-6.445769537E-3,-5.486851752E-2,5.962405801E-3,5.556664865E-2
2.880345958E0,-5.223591831E-3,-3.698100775E-2,1.324394345E-3,3.737157833E-2
2.890344958E0,-1.889955316E-2,-5.027819742E-2,-3.684856832E-2,6.513760229E-2
2.900343958E0,-1.937493179E-2,-5.063239250E-2,-4.164679348E-2,6.836287414E-2
2.910342958E0,-1.171294140E-2,-6.666173022E-2,1.328896701E-2,6.897518334E-2
2.920341958E0,-1.507302560E-3,-6.963200614E-2,2.665745616E-3,6.969931448E-2
2.930340958E0,-3.276395928E-3,-6.501639683E-2,-1.695224762E-2,6.726994371E-2
2.940339958E0,-4.334020196E-3,-3.985699732E-2,-7.222480774E-3,4.073730716E-2
2.950337958E0,-1.064673817E-2,-3.948584531E-2,-1.201485872E-2,4.262442778E-2
2.960336958E0,1.664830204E-3,-3.125084605E-2,-3.222342074E-2,4.491921507E-2
2.970335958E0,2.668459089E-3,-3.544198405E-2,-2.584469318E-3,3.563613881E-2
2.980334958E0,9.833646286E-4,-2.576750994E-2,-8.419990540E-3,2.712614634E-2
2.990333958E0,-2.507085074E-4,-1.198854625E-2,-1.531093419E-2,1.944769399E-2
3.000332958E0,4.211785980E-3,-2.612126648E-2,-1.935369909E-2,3.278147910E-2
3.010331958E0,-1.589583848E-3,-2.328708451E-2,-2.608852208E-2,3.500608613E-2
3.020330958E0,-8.506328333E-3,-2.502542518E-2,-1.755392611E-2,3.172963676E-2
3.030329958E0,-1.361485792E-2,-2.316023648E-2,-9.772451520E-3,2.858778968E-2
3.040328958E0,-1.799847895E-2,-2.490241438E-2,-2.295149088E-2,3.835161561E-2
3.050327958E0,-1.580825815E-2,-2.849421278E-2,-3.042891026E-3,3.272736429E-2
3.060326958E0,-1.220355934E-2,-4.836301502E-2,-5.439080000E-3,5.017461184E-2
3.070325958E0,-8.163818540E-3,-2.632365324E-2,-2.190600872E-2,3.520590676E-2
3.080324958E0,-2.769871736E-3,-2.263040565E-2,-8.731647134E-3,2.441411704E-2
3.090323958E0,5.973478965E-4,-2.327403791E-2,8.329943419E-3,2.472702211E-2
3.100322958E0,-5.378086232E-3,-3.711238738E-2,-1.502851367E-2,4.039937291E-2
3.110321958E0,-2.161560310E-3,-4.108034447E-2,-3.688482106E-2,5.525176078E-2
3.120320958E0,-8.771088431E-3,-3.165956642E-2,-1.278435230E-2,3.525194750E-2
3.130319958E0,-7.382593984E-3,-7.883581594E-3,-2.281817436E-2,2.524524973E-2
3.140318958E0,1.513332501E-4,-1.667158127E-2,-1.623947203E-2,2.327412674E-2
3.150317958E0,-3.499905746E-3,-2.791183010E-2,-9.357883930E-3,2.964607211E-2
3.160316958E0,-1.548953922E-2,-3.192466456E-2,-2.023721337E-3,3.554160211E-2
3.170315958E0,-1.593200899E-2,-2.802775115E-2,-3.221815825E-3,3.240005929E-2
3.180314958E0,-1.706351831E-2,-2.420290466E-2,-2.552894354E-2,3.909822514E-2
3.190313958E0,-1.276054317E-2,-3.047404345E-2,-2.896827579E-2,4.393927387E-2
3.200312958E0,-1.729511373E-2,-3.334414925E-2,-7.867428660E-3,3.837772377E-2
3.210311958E0,-2.940034848E-3,-4.798934139E-2,-6.672257781E-3,4.854008360E-2
3.220310958E0,-4.115654100E-3,-4.232298743E-2,-7.563373446E-3,4.319002769E-2
3.230309958E0,-7.143744361E-4,-4.614936881E-2,-2.282811463E-2,5.149172156E-2
3.240308958E0,-8.483259240E-3,-3.244272787E-2,-1.518989682E-2,3.681343837E-2
3.250307958E0,-7.726693489E-3,-3.702760275E-2,-9.504064322E-3,3.900092815E-2
3.260306958E0,-3.656300493E-3,-4.108922493E-2,-1.459114194E-2,4.375607799E-2
3.270305958E0,-1.328432579E-3,-3.864801239E-2,5.321550965E-3,3.903527251E-2
3.280304958E0,-3.982483763E-3,-4.396042708E-2,-7.848717570E-3,4.483281938E-2
3.290303958E0,-9.747774443E-3,-1.927275170E-2,-3.524584651E-2,4.133676040E-2
3.300302958E0,-1.236896245E-2,-1.883450288E-2,-2.581604183E-2,3.426656893E-2
3.310301958E0,-3.233190486E-3,-2.899166465E-2,-1.444028378E-2,3.254983772E-2
3.320300958E0,1.407479625E-3,-2.202744808E-2,-7.855149508E-3,2.342846221E-2
3.330299958E0,1.172512919E-3,-1.455105197E-2,-1.115239441E-2,1.837073219E-2
3.340298958E0,-1.458832797E-2,-8.657204770E-3,-2.342862368E-2,2.892519515E-2
3.350297958E0,-1.715469833E-2,-1.166281980E-2,-1.624824286E-2,2.634977108E-2
3.360296958E0,-9.566821391E-3,-3.466262329E-2,-1.131494701E-2,3.769681089E-2
3.370295958E0,-1.883284008E-2,-4.147561625E-2,-1.580677807E-2,4.821573230E-2
3.380294958E0,-1.272011516E-2,-4.046437684E-2,-1.431339920E-2,4.476651114E-2
3.390293958E0,-7.860028278E-3,-4.858586702E-2,-7.276275158E-3,4.975249440E-2
3.400292958E0,-1.256504517E-2,-4.243317090E-2,-2.913024366E-2,5.298136888E-2
3.410291958E0,2.043145057E-3,-2.901194718E-2,-8.476123810E-3,3.029376496E-2
3.420290958E0,9.856112385E-3,-3.950046334E-2,3.493711352E-3,4.086117442E-2
3.430289958E0,1.293405930E-2,-2.980979975E-2,-1.626987755E-2,3.634037654E-2
3.440288958E0,5.953552751E-3,-1.158706181E-2,-9.832677841E-3,1.632134631E-2
3.450287958E0,-5.264622839E-3,-1.653227136E-2,-2.629843712E-2,3.150619058E-2
3.460286958E0,1.153262788E-3,2.417640947E-3,-1.417482018E-2,1.442568993E-2
3.470285958E0,-4.706643149E-4,-4.193440340E-3,3.633459806E-3,5.568527359E-3
3.480284958E0,-1.165334548E-2,-8.015326671E-3,-8.941562176E-3,1.673312453E-2
3.490283958E0,-2.696222400E-2,-2.489378974E-3,-2.451737523E-2,3.652752687E-2
3.500282958E0,-3.632437457E-2,1.181524940E-2,-1.075302958E-2,3.968233803E-2
3.510281958E0,-2.325565573E-2,-3.697684161E-2,-3.396472156E-2,5.533276290E-2
3.520280958E0,-2.798171346E-2,-1.696869291E-2,-3.561363637E-2,4.836573088E-2
3.530279958E0,-1.748818148E-2,-3.648655258E-2,2.007407606E-2,4.516717326E-2
3.540278958E0,2.541775508E-3,-4.064078003E-2,2.231823742E-2,4.643530280E-2
3.550277958E0,-2.270199750E-3,-1.652594905E-2,-2.021090090E-2,2.620574964E-2
3.560276958E0,-1.821925703E-2,-5.629275307E-2,-1.587752938E-2,6.126100974E-2
3.570275958E0,-1.267817966E-2,-5.718726743E-2,-1.542904794E-2,6.057371803E-2
3.580274958E0,-4.304975979E-3,-2.537326142E-2,-2.381570935E-2,3.506455797E-2
3.590273958E0,-1.402853016E-2,-1.681524005E-2,7.762178779E-3,2.323366901E-2
3.600272958E0,-1.327873439E-2,-2.986238815E-2,-2.397592306E-2,4.053309635E-2
3.610271958E0,-2.432964306E-2,-1.045493122E-2,-5.274188519E-3,2.700100337E-2
3.620270958E0,-1.137401302E-2,-5.793249507E-2,-3.935760856E-3,5.916952231E-2
3.630269958E0,1.058565304E-3,-7.480379529E-3,-1.411342442E-2,1.600829120E-2
3.640268958E0,-1.352779836E-2,-4.638351325E-2,-2.818241000E-2,5.593460345E-2
3.650267958E0,-4.773657722E-3,-3.920305934E-2,-2.732403874E-3,3.958703955E-2
3.660266958E0,1.239208636E-2,-3.010391470E-2,2.405836880E-2,4.047980477E-2
3.670265958E0,-6.566414041E-3,-2.709943257E-2,-2.878291905E-2,4.007434925E-2
3.680264958E0,-3.300361290E-2,-1.085366748E-1,-5.362656891E-2,1.254801065E-1
3.690263958E0,-5.046859737E-3,-5.031814121E-2,-3.773792982E-3,5.071121810E-2
3.700262958E0,-7.651657267E-3,-2.458710328E-2,1.404033422E-2,2.932924294E-2
3.710261958E0,-1.183979857E-2,-4.810493354E-2,-5.122862577E-2,7.126456033E-2
3.720260958E0,-1.263923172E-2,-3.874990012E-2,-2.069095731E-2,4.571018106E-2
3.730259958E0,-1.370939096E-2,-5.389901262E-2,4.764896035E-3,5.581895015E-2
3.740258958E0,-7.590745725E-3,-3.157222364E-2,-4.073989034E-2,5.209763326E-2
3.750257958E0,3.201816520E-3,2.741094299E-2,-1.498816788E-2,3.140472259E-2
3.760256958E0,4.923629668E-4,3.184601951E-2,9.705793262E-3,3.329585264E-2
3.770255958E0,1.652587596E-3,1.869402353E-2,-1.395262599E-2,2.338532303E-2
3.780254958E0,8.844187763E-3,4.446917139E-2,-2.054536164E-2,4.977789415E-2
3.790253583E0,-9.222383844E-3,1.956343140E-2,-1.411225498E-2,2.582510315E-2
3.800252583E0,-2.730447798E-2,4.667393714E-3,-2.953837931E-2,4.049487541E-2
3.810251583E0,-1.464420542E-2,-1.330818973E-2,-1.187394083E-2,2.307706951E-2
3.820250583E0,-8.902139151E-3,-1.333844908E-2,-9.029270411E-3,1.840353307E-2
3.830249583E0,-1.362524587E-2,-5.035965644E-2,-1.876020670E-2,5.544084845E-2
3.840248583E0,-1.615867996E-2,-6.602580898E-2,-5.136778951E-3,6.816815156E-2
3.850247583E0,-2.193576557E-2,-8.432697270E-2,-5.433817506E-3,8.730259165E-2
3.860246583E0,-1.852067186E-2,-7.710438229E-2,-2.309123933E-2,8.259120043E-2
3.870245583E0,-1.299116101E-2,-6.586775143E-2,-1.425492704E-2,6.863332927E-2
3.880243583E0,-2.406352166E-2,-7.229566868E-2,2.735970676E-2,8.095844823E-2
3.890242583E0,-2.239126367E-2,-4.738477584E-2,-8.117104769E-3,5.303369740E-2
3.900242583E0,-2.729601779E-2,-6.696534690E-2,-4.434177518E-2,8.482701986E-2
3.910240583E0,-1.248612603E-2,-1.247836020E-2,1.164180636E-3,1.769090538E-2
3.920239583E0,-4.224129086E-3,8.626251072E-3,2.630779266E-2,2.800634623E-2
3.930239583E0,-2.079654523E-2,-2.912340973E-2,-5.108419955E-2,6.237198675E-2
3.940237583E0,2.216626463E-2,4.032934271E-2,-1.608060318E-1,1.672614093E-1
3.950236583E0,7.168989714E-2,-1.031708311E-1,-3.863664687E-2,1.314399187E-1
3.960235583E0,3.308785848E-2,3.702985759E-1,3.029155916E-1,4.795557291E-1
3.970234583E0,4.073483798E-2,-2.245606726E-1,1.409383625E-1,2.682358006E-1
3.980233583E0,-5.512441543E-2,5.554854870E-3,-4.801172161E-1,4.833033197E-1
3.990232583E0,-4.558847465E-2,-9.357865658E-2,-3.582337600E-1,3.730505338E-1
4.000231583E0,-1.064046155E-1,-1.870267010E-1,4.207480967E-1,4.725779194E-1
4.010230583E0,1.140729282E-1,1.918551489E-1,2.743209529E-1,3.536566362E-1
4.020229583E0,-6.119127626E-2,-1.679207776E-1,-2.989570266E-1,3.483059913E-1
4.030228583E0,-9.640762174E-2,-1.217587277E-1,-2.073299879E-1,2.590469864E-1
4.040227583E0,4.190524042E-2,-5.566348303E-2,1.155421507E-1,1.349239086E-1
4.050226583E0,1.372262942E-2,-8.123511124E-2,-1.394970238E-2,8.355865038E-2
4.060225583E0,-2.107875561E-3,-1.758329010E-1,-6.150920033E-2,1.862928714E-1
4.070224583E0,3.277531567E-2,1.408784285E-2,1.325025845E-1,1.372210754E-1
4.080223583E0,1.036562414E-2,6.568144452E-2,6.270904899E-2,9.139979837E-2
4.090222583E0,-6.342057290E-2,-5.781076334E-2,-1.514902478E-1,1.741078649E-1
4.100221583E0,-3.858818807E-2,-5.603649884E-2,-1.037091404E-1,1.240351695E-1
4.110220583E0,-2.566626174E-2,1.827923667E-2,3.672226846E-2,4.838814406E-2
4.120219583E0,-1.501701110E-2,-2.223253917E-2,5.962581217E-2,6.538374337E-2
4.130218583E0,1.710066640E-2,5.825942751E-2,-4.022884369E-4,6.071865876E-2
4.140217583E0,-1.838965768E-2,7.555940174E-2,-2.719423056E-2,8.238281906E-2
4.150216583E0,-1.605415184E-2,-1.688522391E-2,-7.658624589E-2,8.005185593E-2
4.160215583E0,2.832457957E-2,-7.916581817E-3,-4.873771191E-2,5.692379676E-2
4.170214583E0,2.634258360E-2,-2.517463882E-2,4.214497626E-2,5.571259439E-2
4.180213583E0,2.455904578E-2,-2.833706886E-2,3.377176344E-2,5.046452424E-2
4.190212583E0,-1.941847527E-2,2.323124360E-2,-1.519691348E-2,3.387792852E-2
4.200211583E0,-6.283867445E-2,-4.993485622E-2,-3.495699406E-2,8.754530430E-2
4.210210583E0,-5.142037790E-2,-8.833761446E-2,-6.726987720E-2,1.223634985E-1
4.220209583E0,-2.153816404E-2,-2.127728686E-3,-8.895369172E-3,2.339972932E-2
4.230208583E0,-2.471523953E-2,-4.587034699E-2,3.121360660E-2,6.073895813E-2
4.240207583E0,3.068043189E-3,3.410300821E-2,-8.752112389E-3,3.534158357E-2
4.250206583E0,6.250862653E-2,-6.195673160E-3,7.559280396E-3,6.326813951E-2
4.260205583E0,-1.826094585E-2,-1.167919200E-2,-2.672528386E-2,3.441084809E-2
4.270204583E0,-1.102350899E-2,-5.787252456E-2,-3.514176607E-3,5.901776247E-2
4.280203583E0,1.812485190E-2,3.107261561E-2,-4.992703557E-2,6.153638418E-2
4.290202583E0,-1.823874470E-4,-6.348987155E-2,-2.328361273E-3,6.353281294E-2
4.300201583E0,-3.944991234E-2,1.715309948E-2,1.877248585E-2,4.693538782E-2
4.310200583E0,-2.462037759E-2,-3.405232016E-2,-2.524067581E-2,4.901851911E-2
4.320199583E0,-9.998400724E-3,-6.433892380E-2,-5.112922311E-2,8.278685034E-2
4.330198583E0,-4.772122828E-3,-6.144784112E-2,7.856903672E-3,6.213164467E-2
4.340197583E0,-4.038678247E-2,-5.310273148E-2,2.237787902E-2,7.036875555E-2
4.350196583E0,-1.367497461E-2,-8.684207942E-2,-4.513407290E-2,9.882123368E-2
4.360195583E0,4.932204975E-2,-5.477744713E-2,1.385322332E-2,7.500096734E-2
4.370194583E0,-6.483849529E-2,-8.322696526E-2,-4.708762765E-3,1.056074366E-1
4.380193583E0,-2.590900342E-2,-5.280510820E-2,-3.209770560E-2,6.700685499E-2
4.390192583E0,2.870960958E-2,1.472573753E-2,-2.117276788E-2,3.859242319E-2
4.400191583E0,1.633593282E-3,3.834348209E-3,-1.444145322E-2,1.503084909E-2
4.410190583E0,-1.565485097E-2,4.126003671E-2,-8.912910819E-3,4.502116133E-2
4.420189583E0,-1.510677500E-2,-7.877368927E-3,-2.089677930E-2,2.696188007E-2
4.430188583E0,2.102525359E-2,5.005092345E-2,-1.731535971E-2,5.698225960E-2
4.440187583E0,-1.331181684E-2,5.985330541E-2,-7.599626184E-3,6.178492497E-2
4.450186583E0,-6.638874748E-2,-2.326022387E-3,-2.603238881E-2,7.134817054E-2
4.460185583E0,2.498460431E-3,3.067427404E-2,-3.038154781E-2,4.324571470E-2
4.470184583E0,1.255002514E-2,1.287827320E-2,-8.922851086E-4,1.800414464E-2
4.480183583E0,-9.118550085E-4,2.990814261E-2,-2.051612556E-2,3.628002042E-2
4.490182583E0,-3.870125860E-3,-3.010022365E-2,-1.619327903E-2,3.439801772E-2
4.500181583E0,-7.785412325E-3,-8.077069614E-2,1.359243751E-2,8.227558786E-2
4.510180583E0,-2.897831655E-2,-9.813930206E-2,5.815055966E-3,1.024933184E-1
4.520179583E0,-4.159789614E-2,-8.997947607E-2,-2.068394065E-2,1.012645865E-1
4.530178583E0,-5.476383409E-2,-1.001702959E-1,-2.487990260E-2,1.168425233E-1
4.540177583E0,-8.923837803E-3,-5.957665902E-2,-7.655174732E-3,6.072573491E-2
4.550176583E0,-1.409748162E-2,-8.342164099E-2,1.174120903E-3,8.461257432E-2
4.560175583E0,4.732096810E-3,-8.615415450E-2,-9.457286596E-3,8.680075661E-2
4.570174583E0,6.396543290E-2,-6.122864362E-2,-5.713899136E-3,8.873089681E-2
4.580173583E0,4.137745611E-2,-3.070212141E-2,1.075595319E-2,5.263463368E-2
4.590172583E0,-7.262424566E-5,-2.024631310E-2,-5.422707796E-3,2.096006270E-2
4.600171583E0,-4.244355884E-2,9.584390447E-3,-3.626677036E-2,5.664446010E-2
4.610169583E0,-5.330156422E-2,-1.162382618E-2,-3.656497836E-2,6.567471147E-2
4.620168583E0,-7.065781790E-2,3.733176760E-2,1.059223115E-2,8.061255153E-2
4.630167583E0,-6.358769364E-2,1.830617040E-2,5.525618792E-4,6.617262260E-2
4.640166583E0,-4.797509794E-2,5.345049463E-3,-4.136671185E-2,6.357188393E-2
4.650165583E0,-1.416249535E-2,3.487893373E-2,-3.493302047E-2,5.135593648E-2
4.660164583E0,2.758023815E-2,1.393373217E-2,-1.352987230E-2,3.373241576E-2
4.670163583E0,5.579442412E-2,-2.773195513E-2,-1.412687302E-3,6.232234578E-2
4.680162583E0,6.785103561E-2,-7.539034411E-3,-2.102775693E-2,7.143365198E-2
4.690161583E0,4.265323634E-2,-1.640721403E-2,-1.908823550E-2,4.952631601E-2
4.700160583E0,3.002316831E-3,8.046207279E-3,-2.638263702E-3,8.984196864E-3
4.710159583E0,-2.335184243E-2,-8.173676580E-3,-2.465420008E-2,3.492774134E-2
4.720158583E0,-3.512331993E-2,-5.303603668E-2,-3.798000455E-2,7.408744519E-2
4.730157583E0,-4.828770471E-2,-4.044000126E-2,4.231045246E-3,6.312683955E-2
4.740156583E0,-4.048226567E-2,-4.584893156E-2,1.351408482E-2,6.263839755E-2
4.750155583E0,-3.878243440E-2,-7.292062640E-2,-1.867074430E-2,8.467639379E-2
4.760154583E0,-2.146738532E-2,-8.477918174E-2,-2.599730551E-2,9.123715352E-2
4.770153583E0,-5.342856757E-3,-8.721158691E-2,-1.401519120E-2,8.849199169E-2
4.780152583E0,1.930708582E-2,-9.345655940E-2,-1.804860055E-2,9.712180003E-2
4.790151583E0,2.579752260E-2,-6.414936438E-2,-2.630077600E-3,6.919227147E-2
4.800150250E0,1.111108018E-2,-8.357845601E-2,5.606895089E-3,8.450000996E-2
4.810149250E0,-1.904714967E-2,-6.389384106E-2,-1.369593322E-2,6.806464150E-2
4.820148250E0,-4.033158110E-2,-4.539215438E-2,-3.314786553E-2,6.917994726E-2
4.830147250E0,-4.066633419E-2,-9.713211916E-3,-2.356427908E-2,4.799346279E-2
4.840146250E0,-4.213674447E-2,4.710663110E-4,-2.640719533E-2,4.972994172E-2
4.850145250E0,-1.775255785E-2,7.198580280E-3,-1.188505054E-2,2.254389706E-2
4.860144250E0,6.992740016E-3,2.743740164E-2,1.326791704E-2,3.126894696E-2
4.870143250E0,1.472924586E-2,6.043565154E-2,-1.517293990E-2,6.402840593E-2
4.880142250E0,4.374525868E-2,1.124960437E-2,-2.326373219E-2,5.080750428E-2
4.890141250E0,2.309026175E-2,7.501773030E-2,-6.638402402E-2,1.027991181E-1
4.900140250E0,1.252567696E-2,3.250306383E-2,-5.321901798E-2,6.360507540E-2
4.910139250E0,-1.102446830E-3,1.360800572E-2,2.309650183E-3,1.384657693E-2
4.920138250E0,-2.319180231E-2,-1.452229097E-2,1.368482351E-2,3.059462410E-2
4.930137250E0,-4.695256610E-2,-1.495231714E-2,-1.291649938E-3,4.929283529E-2
4.940136250E0,-7.800044982E-2,-2.884325501E-2,-3.392437577E-2,8.981573806E-2
4.950135250E0,-5.764595409E-2,-5.853618354E-2,-6.191265821E-2,1.028723386E-1
4.960134250E0,-2.887798198E-2,-4.962213982E-2,3.496634960E-3,5.751974496E-2
4.970133250E0,7.150048390E-3,-9.168620523E-2,4.496099532E-2,1.023668624E-1
4.980132250E0,2.446760081E-2,-1.156934474E-1,-8.480801582E-3,1.185561524E-1
4.990131250E0,2.616938724E-2,-9.247397136E-2,-3.541424632E-2,1.024228541E-1
5.000130250E0,2.562513024E-2,-8.058742248E-2,-1.968874454E-2,8.682526489E-2
5.010129250E0,1.690772655E-2,-6.824380405E-2,-1.235925972E-2,7.138514768E-2
5.020128250E0,1.005456140E-3,-4.927755609E-2,8.739833236E-3,5.005669947E-2
5.030127250E0,-2.841264412E-2,-2.231136695E-2,1.113192916E-2,3.780205401E-2
5.040126250E0,-4.951691735E-2,-2.993489362E-2,-3.572122514E-2,6.800021239E-2
5.050125250E0,-4.970326080E-2,7.905070111E-3,-5.144204915E-2,7.196658035E-2
5.060124250E0,-4.585527213E-2,1.097197127E-2,-3.242865801E-2,5.722506440E-2
5.070123250E0,-1.206186485E-2,1.670940544E-2,-1.072320879E-2,2.323101420E-2
5.080122250E0,2.054008087E-2,2.316674151E-2,1.426896036E-2,3.409099681E-2
5.090121250E0,2.271250421E-2,-6.401970237E-4,-2.495006919E-3,2.285810052E-2
5.100120250E0,1.295930282E-2,3.022458661E-2,-3.512773275E-2,4.811888168E-2
5.110119250E0,7.115540681E-3,2.814919051E-2,-4.276244223E-2,5.168785458E-2
5.120118250E0,-9.921372794E-3,-4.110336788E-3,-3.677957118E-2,3.831534109E-2
5.130117250E0,-1.570351990E-2,-1.483394757E-2,1.036828279E-2,2.396138197E-2
5.140116250E0,-3.372353305E-2,-3.733922280E-2,1.888767600E-2,5.374233476E-2
5.150115250E0,-4.292173318E-2,-3.165265940E-2,-2.407883406E-2,5.851458173E-2
5.160114250E0,-3.732021935E-2,-4.088797107E-2,-3.695264876E-2,6.655917068E-2
5.170113250E0,-6.617677677E-3,-4.804507267E-2,-1.330183089E-2,5.028977401E-2
5.180112250E0,-2.315935940E-3,-5.628548060E-2,-9.856651425E-3,5.718891905E-2
5.190111250E0,1.611973202E-2,-3.733586065E-2,1.139797747E-2,4.223418215E-2
5.200110250E0,7.536339210E-3,-3.492808688E-2,1.139622331E-2,3.750522054E-2
5.210109250E0,-6.328140004E-3,-3.684370782E-2,-2.048922837E-2,4.262995005E-2
5.220108250E0,-1.343945973E-2,-5.676042069E-2,-3.306366563E-2,6.704901505E-2
5.230107250E0,-2.397616060E-2,-4.787539378E-2,-4.476043582E-3,5.373029474E-2
5.240106250E0,-3.048504353E-2,-1.695875265E-2,-2.081024051E-3,3.494664263E-2
5.250104250E0,-2.528569023E-2,-1.225214604E-2,-9.718657136E-3,2.973101932E-2
5.260103250E0,-2.636896916E-2,-1.903188296E-2,-1.256040394E-2,3.486113668E-2
5.270102250E0,-1.152282466E-2,-3.615815833E-2,-1.554599226E-2,4.101055690E-2
5.280101250E0,5.255705835E-3,-4.754681680E-2,-1.149738014E-2,4.919869899E-2
5.290100250E0,1.039364509E-2,9.047798775E-3,-1.958115578E-2,2.394393833E-2
5.300099250E0,2.014759566E-2,-1.574673448E-2,-1.269781351E-2,2.855030167E-2
5.310098250E0,1.465322292E-2,-1.709276352E-2,-9.111131430E-3,2.428769694E-2
5.320097250E0,-1.491282103E-2,-1.319559429E-2,-1.510101914E-2,2.499113280E-2
5.330096250E0,-1.522332645E-2,-1.047020707E-2,-2.094121814E-2,2.792686021E-2
5.340095250E0,-2.675758059E-2,1.582921676E-2,5.255477428E-3,3.153018023E-2
5.350094250E0,-3.802443425E-2,1.209986262E-2,-1.540624380E-2,4.277401809E-2
5.360093250E0,-2.418232064E-2,8.986256830E-3,-1.631490111E-2,3.052398142E-2
5.370092250E0,-3.174237762E-2,-1.702742089E-2,-4.579890132E-2,5.826706583E-2
5.380091250E0,-1.470926483E-2,8.856339008E-3,-4.026509643E-2,4.377299627E-2
5.390090250E0,1.350077326E-2,-3.208590154E-2,2.393265367E-3,3.489274531E-2
5.400089250E0,2.081653540E-2,-3.404146627E-2,2.184636712E-2,4.549080487E-2
5.410088250E0,1.714981955E-2,-2.096223157E-2,-1.348309457E-2,3.025434353E-2
5.420087250E0,1.607327406E-2,-5.799312338E-2,-5.434694588E-2,8.108725563E-2
5.430086250E0,1.514300033E-2,-5.002716914E-2,-3.308880866E-2,6.186192180E-2
5.440085250E0,-6.608093726E-3,-3.167710807E-2,4.056622803E-2,5.189147266E-2
5.450084250E0,-3.795815972E-2,-6.980548572E-2,4.011482298E-2,8.901026204E-2
5.460083250E0,-6.245104060E-2,-5.599059820E-2,-3.996571898E-2,9.291037753E-2
5.470082250E0,-6.246679153E-2,-3.598632328E-2,-2.663465202E-2,7.685388862E-2
5.480081250E0,-2.896088454E-2,-6.503236704E-2,-3.156736314E-2,7.787451452E-2
5.490080250E0,1.163249650E-2,-4.809568763E-2,-5.476326764E-2,7.380735482E-2
5.500079250E0,3.879861474E-2,-3.717224825E-2,2.742753446E-2,6.032725912E-2
5.510078250E0,4.490193844E-2,-1.567075722E-2,3.221932769E-2,5.744424936E-2
5.520077250E0,2.775662307E-2,1.093425673E-2,-5.071757913E-2,5.884097999E-2
5.530076250E0,-3.254112555E-3,-2.024708055E-3,-4.757236183E-2,4.772649475E-2
5.540075250E0,-4.196858221E-2,2.915790830E-2,-1.598687232E-2,5.354554692E-2
5.550074250E0,-4.318229972E-2,2.413354207E-2,-1.344976544E-2,5.126436435E-2
5.560073250E0,-4.749431063E-2,-2.060010619E-3,1.807959080E-3,4.757333184E-2
5.570072250E0,-3.550466803E-2,1.568369418E-2,-5.829089284E-3,3.924968786E-2
5.580071250E0,-2.172065198E-2,-4.803670384E-3,-3.771687984E-2,4.378841167E-2
5.590070250E0,3.148625130E-3,-1.181316633E-2,-3.068618774E-2,3.303190665E-2
5.600069250E0,3.636084658E-2,-8.386515230E-3,-1.256683588E-2,3.937474020E-2
5.610068250E0,5.723365230E-2,-3.286405630E-2,1.957063079E-3,6.602701907E-2
5.620067250E0,4.216839253E-2,-4.943360366E-2,-1.789247990E-3,6.500043006E-2
5.630066250E0,1.216272932E-2,-5.042832468E-2,-2.289594233E-2,5.670248751E-2
5.640065250E0,-2.401625058E-2,-8.127271615E-2,-1.061795890E-2,8.540945927E-2
5.650064250E0,-3.991112974E-2,-6.710615516E-2,-4.480136633E-3,7.820617598E-2
5.660063250E0,-5.168543036E-2,-6.454328399E-2,-2.139613152E-2,8.541085214E-2
5.670062250E0,-5.153286371E-2,-5.798917651E-2,-1.032618284E-3,7.758509480E-2
5.680061250E0,-4.196139196E-2,-6.375409260E-2,1.988053322E-5,7.632393553E-2
5.690060250E0,-1.295971395E-2,-3.876930557E-2,-3.021490216E-2,5.083260325E-2
5.700059250E0,9.775393400E-3,-3.198565833E-2,-2.855955541E-2,4.398055093E-2
5.710058250E0,2.549725894E-2,-1.394038338E-2,-9.247371554E-3,3.049521902E-2
5.720057250E0,3.339258978E-2,2.059572078E-3,7.960984111E-3,3.439017530E-2
5.730056250E0,2.701972771E-2,1.843378589E-2,-1.344684184E-2,3.536506331E-2
5.740055250E0,1.491346057E-2,5.066758543E-3,-1.450051010E-2,2.140906680E-2
5.750054250E0,-1.803286789E-2,2.512800727E-2,-2.603297353E-2,4.042668406E-2
5.760053250E0,-3.550382749E-2,3.195594717E-2,-3.082652092E-2,5.685049444E-2
5.770052250E0,-2.629626269E-2,3.467420809E-2,-2.259890378E-2,4.903574808E-2
5.780051250E0,-2.704881761E-2,3.941538636E-2,-2.987927198E-4,4.780481663E-2
5.790050250E0,-1.693454152E-2,-2.120017670E-3,1.794510484E-3,1.716081115E-2
5.800049125E0,-1.298320332E-2,-6.855019815E-3,5.974392593E-2,6.152147227E-2
5.810047125E0,-2.069621980E-2,-5.552808344E-3,7.835093558E-2,8.122829741E-2
5.820046125E0,-7.589941733E-3,-4.219102308E-2,1.118338466E-2,4.430302175E-2
5.830045125E0,-2.101206081E-2,-7.127927642E-2,-8.278663337E-2,1.112468814E-1
5.840044125E0,-8.333832731E-2,-1.636587787E-1,2.924660325E-2,1.859699880E-1
5.850043125E0,-1.133015799E-1,-1.780646005E-1,3.178283304E-1,3.815220800E-1
5.860042125E0,-4.547779782E-2,-1.727870863E-1,7.849401695E-1,8.050184327E-1
5.870041125E0,-4.623513102E-2,2.306011753E-1,1.214261454E0,1.236828795E0
5.880040125E0,-4.886025676E-2,-1.690857623E-2,1.421697861E0,1.422637702E0
5.890039125E0,1.466714661E-2,9.312765352E-2,1.187332102E0,1.191069018E0
5.900038125E0,4.622537530E-1,1.234316892E-1,-1.307940280E-1,4.960050321E-1
5.910037125E0,3.881733314E-1,3.950660292E-2,-7.081878042E0,7.092618410E0
5.920036125E0,-1.159759264E0,-3.014952298E-2,1.571633334E0,1.953453834E0
5.930035125E0,7.318183614E-1,1.457561027E-2,6.990644521E-1,1.012156940E0
5.940034125E0,1.197170901E-1,-1.510605506E-1,-7.629353428E-1,7.869064804E-1
5.950033125E0,-2.578953019E-1,-2.328169046E-1,1.127010471E0,1.179349948E0
5.960032125E0,2.174991730E-1,-1.357158487E-1,-7.201196909E-1,7.643932568E-1
5.970031125E0,-8.534921218E-2,-1.170307788E-1,4.000173783E-1,4.254345945E-1
5.980030125E0,-1.163595915E-4,-5.638506599E-2,-3.870447457E-2,6.839097570E-2
5.990029125E0,-1.242906452E-1,1.654263189E-1,-1.984083062E-1,2.866703463E-1
6.000028125E0,-1.130471895E-1,2.250287422E-1,-2.936237812E-1,3.868236378E-1
6.010027125E0,-4.005539152E-2,-1.838491778E-1,1.773051202E-1,2.585383148E-1
6.020026125E0,-7.581844253E-2,-9.897472300E-2,1.437964815E-1,1.903204143E-1
6.030025125E0,-6.027985065E-2,-4.930529382E-2,-1.672291982E-1,1.844729713E-1
6.040024125E0,6.101714800E-2,1.975748587E-2,-8.428819835E-2,1.059148289E-1
6.050023125E0,1.180696006E-1,9.385994419E-2,6.704066634E-2,1.650592943E-1
6.060022125E0,4.117212748E-2,-7.037135001E-2,-4.447275281E-2,9.287139886E-2
6.070021125E0,7.805764290E-2,-1.878308393E-2,-5.285999894E-2,9.612481128E-2
6.080020125E0,1.002794744E-1,-1.658507902E-2,1.261718041E-1,1.620196345E-1
6.090019125E0,-4.846842022E-2,-1.235241117E-1,1.989281237E-2,1.341756980E-1
6.100018125E0,-1.491633849E-2,-2.433757335E-2,-6.766164064E-2,7.343645039E-2
6.110017125E0,-8.010250557E-2,1.359666943E-1,-9.012781262E-2,1.817316042E-1
6.120016125E0,-1.269805288E-1,-1.677091084E-2,8.970798254E-3,1.283970146E-1
6.130015125E0,-7.641620155E-2,-1.244714703E-1,2.950738907E-2,1.490076132E-1
6.140014125E0,-8.790675689E-2,-1.215679988E-2,-7.722066879E-2,1.176368028E-1
6.150013125E0,2.541886057E-2,2.063350841E-2,-2.751231909E-2,4.276432910E-2
6.160012125E0,8.052825596E-2,-1.773533598E-3,2.562951565E-2,8.452702232E-2
6.170011125E0,7.514105173E-2,-3.553875547E-2,3.864366353E-2,9.166522528E-2
6.180010125E0,-6.877147872E-4,-2.525624402E-2,-4.249288559E-2,4.943678933E-2
6.190009125E0,2.588539529E-2,6.991376884E-2,-2.588094592E-2,7.891648829E-2
6.200008125E0,-2.059928393E-2,-1.731287464E-3,7.260312259E-2,7.548868302E-2
6.210007125E0,-8.117216231E-2,-4.234107725E-2,-2.724802494E-2,9.552037280E-2
6.220006125E0,-2.887334076E-2,2.595918898E-2,-6.827735245E-2,7.854518545E-2
6.230005125E0,9.285771316E-3,-3.099101041E-2,-7.788491249E-4,3.236162667E-2
6.240004125E0,-8.518671440E-3,-3.732222933E-2,-5.063747227E-2,6.347968308E-2
6.250003125E0,-3.919915815E-2,1.493017081E-2,-2.648385233E-1,2.681397535E-1
6.260002125E0,-8.859850078E-2,9.542228367E-2,9.361684620E-2,1.603721312E-1
6.270001125E0,1.979478928E-2,-7.198101539E-2,7.133620638E-1,7.172576485E-1
6.280000125E0,7.061332424E-2,5.899752885E-2,-3.452927023E-1,3.573429728E-1
6.289999125E0,1.739462786E-1,-2.097561438E-1,-5.440582734E-1,6.084852937E-1
6.299998125E0,-1.309737020E-2,5.897355527E-3,-5.625138402E-2,5.805633568E-2
6.309997125E0,1.060485749E-2,6.234922595E-3,7.804880995E-1,7.805850438E-1
6.319996125E0,-3.420336105E-2,-1.320719736E-1,6.405449331E-2,1.507177966E-1
6.329995125E0,-6.685834285E-2,-8.371151671E-2,-4.775292385E-1,4.893994581E-1
6.339994125E0,-1.320877154E-1,-1.375159872E-1,-1.183593392E-2,1.910442373E-1
6.349992125E0,3.937036280E-2,-1.150495594E-1,1.315705383E-1,1.791570069E-1
6.359991125E0,-6.159609544E-2,-3.784939237E-3,9.470735192E-3,6.243476246E-2
6.369990125E0,-1.174348762E-1,-7.550418209E-2,-1.497828609E-1,2.047601940E-1
6.379989125E0,-6.389362179E-4,-9.371990338E-3,1.829915375E-1,1.832324895E-1
6.389988125E0,9.831658233E-2,8.251049861E-2,8.793276787E-2,1.555837537E-1
6.399987125E0,7.747699611E-2,1.574121251E-1,8.982960463E-2,1.971056060E-1
6.409986125E0,-2.357471270E-2,-2.076711729E-2,4.672819930E-1,4.683369527E-1
6.419985125E0,6.723921586E-2,-7.215438534E-2,8.945824796E-1,9.000028779E-1
6.429984125E0,2.166953270E-1,-1.057422904E-1,1.201530311E0,1.225484959E0
6.439983125E0,9.386335202E-2,9.104736038E-2,1.388132504E0,1.394278236E0
6.449982125E0,-3.118249941E-1,-3.813744083E-2,1.531544824E0,1.563431750E0
6.459981125E0,-6.752263223E-2,-3.368197214E-2,1.769007268E0,1.770615852E0
6.469980125E0,9.523946682E-2,1.410924732E-1,1.739567122E0,1.747876258E0
6.479979125E0,3.304415055E-2,2.338191173E-1,1.818947752E0,1.834212153E0
6.489978125E0,-5.407666747E-2,9.888230044E-2,1.824979740E0,1.828456465E0
6.499977125E0,6.994863287E-2,5.791356470E-2,1.883550130E0,1.885738021E0
6.509976125E0,-7.322449889E-4,7.014436841E-2,1.931171023E0,1.932444641E0
6.519975125E0,-1.399852937E-1,1.063088856E-1,1.945999562E0,1.953922147E0
6.529974125E0,5.083631415E-2,2.142172405E-1,2.026352584E0,2.038278233E0
6.539973125E0,2.151526488E-1,-3.330215894E-2,2.344849836E0,2.354935339E0
6.549972125E0,3.738651216E-2,2.109501087E-1,2.171910247E0,2.182450875E0
6.559971125E0,-8.128722455E-2,2.207736503E-1,2.200309589E0,2.212851306E0
6.569970125E0,-1.353989479E-2,2.182257626E-2,2.342053698E0,2.342194500E0
6.579969125E0,-5.628418325E-2,3.478749789E-2,2.273343651E0,2.274306364E0
6.589968125E0,-2.239804278E-2,8.585729867E-2,2.374392893E0,2.376050244E0
6.599967125E0,2.145017258E-2,9.449820433E-2,2.362238286E0,2.364224977E0
6.609966125E0,-9.685928260E-2,-1.090127843E-1,2.472240200E0,2.476537323E0
6.619965125E0,5.199488511E-2,-5.005662449E-2,2.546170641E0,2.547193370E0
6.629964125E0,1.620485651E-1,6.259173922E-2,2.508108775E0,2.514117557E0
6.639963125E0,8.450337589E-2,2.233179566E-2,2.552517793E0,2.554013824E0
6.649962125E0,6.596245805E-2,-1.409269970E-1,2.697401857E0,2.701886053E0
6.659961125E0,-1.433606629E-1,5.203462791E-2,2.628559079E0,2.632979816E0
6.669960125E0,-2.500615130E-1,6.134792682E-2,2.518413908E0,2.531541613E0
6.679959125E0,-8.461593479E-2,1.418776446E-1,2.668735297E0,2.673843154E0
6.689958125E0,1.822483929E-1,-1.320636778E-1,2.816214940E0,2.825194131E0
6.699957125E0,4.464143036E-1,5.319968563E-2,2.909799626E0,2.944325017E0
6.709956125E0,3.586527861E-1,5.548919946E-1,2.807255836E0,2.883959479E0
6.719955125E0,2.104415289E-1,4.297111839E-1,2.820524338E0,2.860820665E0
6.729954125E0,-1.123014776E-1,-1.049244476E-1,2.950143660E0,2.954144272E0
6.739953125E0,-4.512852170E-1,-1.092899423E-1,2.803629978E0,2.841820489E0
6.749952125E0,-1.032379005E-1,3.933023262E-1,2.781633337E0,2.811197042E0
6.759951125E0,2.926682913E-1,3.242934871E-1,2.794322965E0,2.828261272E0
6.769950125E0,1.059566274E-1,1.598234072E-1,2.741738954E0,2.748436432E0
6.779949125E0,-1.790984065E-1,1.250530124E-1,2.788404998E0,2.796947787E0
6.789948125E0,-2.758036971E-1,3.519694917E-3,2.722672938E0,2.736608850E0
6.799947333E0,-2.745954979E-1,4.228150874E-2,2.691683865E0,2.705984560E0
6.809946333E0,-4.494037475E-2,-1.123469397E-2,2.808290209E0,2.808672240E0
6.819945333E0,3.051193341E-1,2.575430254E-1,2.675480061E0,2.705109937E0
6.829944333E0,1.817091517E-1,2.067043358E-1,2.572292492E0,2.586973823E0
6.839942333E0,-1.583186263E-1,-1.215012675E-1,2.518688142E0,2.526582139E0
6.849941333E0,-4.811127411E-2,-7.023500025E-2,2.427214885E0,2.428707424E0
6.859940333E0,7.076381695E-2,1.907964374E-1,2.355057321E0,2.363832858E0
6.869939333E0,4.377362682E-3,1.917802680E-2,2.330664491E0,2.330747504E0
6.879938333E0,2.726151739E-1,-7.271633931E-2,2.443832088E0,2.460065440E0
6.889937333E0,3.109954204E-1,2.448088861E-1,2.448764799E0,2.480544009E0
6.899936333E0,-7.314835718E-2,-3.296170481E-2,2.364350300E0,2.365711204E0
6.909935333E0,-7.970141399E-2,-1.446940656E-1,2.382936845E0,2.388655834E0
6.919934333E0,3.353022776E-2,8.171290185E-2,2.360665385E0,2.362317154E0
6.929933333E0,-9.826328130E-2,-8.043798957E-2,2.267135662E0,2.270689335E0
6.939932333E0,7.302101579E-2,1.511201922E-2,2.226280582E0,2.227529051E0
6.949931333E0,2.165867698E-1,2.117455859E-1,2.118960201E0,2.140499558E0
6.959930333E0,-1.335751374E-1,-8.403384447E-2,1.829455199E0,1.836248983E0
6.969929333E0,-8.406593107E-2,4.900989980E-2,1.755809518E0,1.758503942E0
6.979928333E0,-1.334581839E-1,9.019571342E-2,1.606735924E0,1.614789981E0
6.989927333E0,-2.703715607E-1,-2.739845918E-1,1.392417344E0,1.444643346E0
6.999926333E0,-3.612647373E-3,2.761170714E-1,1.277789113E0,1.307286772E0
7.009925333E0,1.257779027E-1,7.210493982E-3,1.264962661E0,1.271220911E0
7.019924333E0,2.042709074E-1,4.139971208E-2,8.703902096E-1,8.949970149E-1
7.029923333E0,4.988264241E-2,6.217413108E-1,7.288846672E-1,9.593348704E-1
7.039922333E0,-1.423160670E-1,-5.204779876E-1,8.513756490E-1,1.007964133E0
7.049921333E0,-2.612946720E-1,-1.561805919E-2,2.659342915E-1,3.731485988E-1
7.059920333E0,-1.434134706E-2,2.990313959E-1,5.037095618E-1,5.859597022E-1
7.069919333E0,1.331430282E-1,-1.830549432E-1,2.062704724E-1,3.062412219E-1
7.079918333E0,2.957698555E-1,2.156329245E-1,1.934159535E-1,4.139892470E-1
7.089917333E0,1.587564366E-1,4.028608793E-1,-4.529995841E-1,6.266650759E-1
7.099916333E0,-1.576523361E-1,-5.074883615E-1,-1.051247513E-1,5.417101711E-1
7.109915333E0,-1.255540092E-1,1.407436502E-1,-6.016422379E-1,6.305124636E-1
7.119914333E0,-1.233187831E-1,-6.918582704E-2,-7.332309026E-1,7.467407565E-1
7.129913333E0,-1.732978589E-2,-2.737066663E-1,-5.474601835E-1,6.123139009E-1
7.139912333E0,1.928805313E-1,2.123242044E-1,-8.278370976E-1,8.761271183E-1
7.149911333E0,1.425461275E-1,9.338825662E-2,-1.067692807E0,1.081207055E0
7.159910333E0,6.087710719E-2,-1.408222587E-1,-9.077024621E-1,9.205762817E-1
7.169909333E0,-2.389447135E-1,-2.421680642E-1,-1.078346434E0,1.130739130E0
7.179908333E0,-1.805700227E-1,-8.776458733E-2,-1.287464501E0,1.303024557E0
7.189907333E0,-9.720438709E-2,-2.220344927E-1,-1.175617790E0,1.200343783E0
7.199906333E0,-8.339025789E-2,-3.206050269E-2,-1.324544034E0,1.327553656E0
7.209905333E0,1.780744311E-1,5.837998979E-2,-1.456715666E0,1.468720279E0
7.219904333E0,1.025352205E-1,-2.438052115E-1,-1.611520700E0,1.633080960E0
7.229903333E0,4.523557691E-2,2.104084007E-2,-1.686359214E0,1.687097025E0
7.239902333E0,-9.242606987E-2,-4.129702766E-1,-1.903855171E0,1.950320881E0
7.249901333E0,-1.116234382E-1,-9.129447833E-2,-2.056366342E0,2.061416263E0
7.259900333E0,-1.933574083E-1,-2.183774979E-1,-2.136266205E0,2.156086529E0
7.269899333E0,-1.115421071E-1,5.256683417E-3,-2.354954994E0,2.357600963E0
7.279898333E0,-6.881661192E-3,-2.719616745E-1,-2.420826802E0,2.436065048E0
7.289897333E0,1.276840128E-1,-1.665478514E-1,-2.552544690E0,2.561157119E0
7.299896333E0,4.958575004E-2,4.509314239E-2,-2.824860633E0,2.825655629E0
7.309895333E0,6.181173893E-3,-1.349215410E-1,-2.869643288E0,2.872819979E0
7.319893333E0,-5.963279229E-2,-1.379296777E-1,-3.041261407E0,3.044971528E0
7.329892333E0,-5.651735011E-2,-3.661672622E-2,-3.176804543E0,3.177518230E0
7.339891333E0,-1.450878573E-1,-2.159760829E-1,-3.294690258E0,3.304947814E0
7.349890333E0,-1.131745857E-1,-2.522719067E-2,-3.364174476E0,3.366172129E0
7.359889333E0,7.497592270E-4,-1.646212304E-1,-3.516265817E0,3.520117329E0
7.369888333E0,7.196220380E-2,6.380529229E-2,-3.760696973E0,3.761926554E0
7.379887333E0,-2.017540648E-1,-2.681040470E-1,-3.797164303E0,3.811960287E0
7.389886333E0,-1.737488437E-1,-7.817752909E-2,-4.092555113E0,4.096987642E0
7.399885333E0,-1.376624873E-1,-3.504684749E-1,-4.266865289E0,4.283447036E0
7.409884333E0,-1.185790666E-2,-1.354590463E-1,-4.310185556E0,4.312329914E0
7.419883333E0,1.155202054E-1,-1.730271145E-1,-4.681100172E0,4.685721089E0
7.429882333E0,8.844671072E-2,1.498356320E-2,-4.742022897E0,4.742871333E0
7.439881333E0,5.562848196E-2,-3.558844949E-1,-4.938130909E0,4.951250869E0
7.449880333E0,-3.016506379E-2,-2.272994353E-1,-5.277352447E0,5.282331286E0
7.459879333E0,-1.269066803E-1,-3.433690415E-1,-5.639186922E0,5.651056251E0
7.469878333E0,-1.753740042E-1,-3.832066333E-1,-5.785590677E0,5.800919138E0
7.479877333E0,-1.310906646E-1,-4.233392172E-1,-6.073447350E0,6.089594696E0
7.489876333E0,-1.491826990E-1,-8.261333652E-2,-6.327789536E0,6.330086955E0
7.499875333E0,-1.393182909E-1,-3.163522008E-1,-6.394560646E0,6.403896794E0
7.509874333E0,-1.052446375E-1,-5.612701009E-1,-6.418788584E0,6.444140551E0
7.519873333E0,-9.869518041E-2,-2.688103176E-1,-6.480591899E0,6.486915375E0
7.529872333E0,-9.974305627E-2,-1.707700893E-1,-6.436401567E0,6.439439124E0
7.539871333E0,-2.349464422E-1,-3.051702414E-1,-6.300474268E0,6.312234526E0
7.549870333E0,-6.437879451E-2,-5.710135721E-1,-5.797755225E0,5.826162268E0
7.559869333E0,-5.484128228E-2,-1.349682822E-1,-5.537083427E0,5.538999628E0
7.569868333E0,2.171656259E-1,-4.408201262E-2,-5.178860192E0,5.183598849E0
7.579867333E0,1.741974347E-1,-6.400892157E-2,-4.730866410E0,4.734505135E0
7.589866333E0,-2.010655551E-1,-5.980499279E-2,-4.327488052E0,4.332569311E0
7.599865333E0,-1.574788017E-1,-4.788475663E-1,-3.772013090E0,3.805545600E0
7.609864333E0,-1.205440874E-1,-2.583916757E-1,-3.313213652E0,3.325459644E0
7.619863333E0,-8.860887959E-2,6.104215398E-2,-2.959803845E0,2.961759018E0
7.629862333E0,1.582545993E-1,-5.840922587E-2,-2.603409619E0,2.608869066E0
7.639861333E0,5.464627764E-2,-1.012922669E-1,-2.250763459E0,2.253704170E0
7.649860333E0,-1.209068341E-1,-1.018140944E-1,-1.835823986E0,1.842616151E0
7.659859333E0,-1.819717648E-1,-1.405558815E-1,-1.470110468E0,1.487983355E0
7.669858333E0,-6.346951593E-2,-2.075429727E-1,-1.186862571E0,1.206542675E0
7.679857333E0,6.604429166E-2,-2.298335820E-2,-9.111108041E-1,9.137904467E-1
7.689856333E0,1.291794017E-1,1.845326808E-1,-7.254956210E-1,7.596601373E-1
7.699855333E0,1.622970718E-1,4.229510352E-3,-6.100984812E-1,6.313306463E-1
7.709854333E0,2.271921024E-2,-1.551281296E-1,-3.851058090E-1,4.157972862E-1
7.719853333E0,-2.121181449E-1,-8.664977912E-2,-1.647260052E-1,2.822001921E-1
7.729852333E0,-2.181719682E-1,-5.933067396E-2,-1.178348440E-1,2.549591870E-1
7.739851333E0,-2.438998816E-2,-9.579606693E-2,-4.518845201E-2,1.086910951E-1
7.749850333E0,-3.555307201E-2,7.011494961E-2,1.532847583E-2,8.009425235E-2
7.759849333E0,5.350506560E-2,-1.705303900E-3,9.559028149E-2,1.095591257E-1
7.769847333E0,1.208950757E-1,-7.034733988E-2,1.925862336E-1,2.380206397E-1
7.779846333E0,5.448773587E-2,9.675508339E-2,3.377685052E-1,3.555531221E-1
7.789845333E0,2.769162761E-2,2.115010992E-3,4.085589910E-1,4.095018298E-1
7.799844250E0,3.507720916E-2,-1.013822775E-1,2.443358463E-1,2.668497378E-1
7.809843250E0,-2.187932166E-2,7.190010455E-2,1.982159328E-1,2.119855792E-1
7.819842250E0,-1.652032476E-1,7.183150940E-2,3.453517592E-1,3.895121517E-1
7.829841250E0,-1.711798695E-1,-1.190547924E-1,3.449184805E-1,4.030450961E-1
7.839840250E0,-1.775517265E-1,2.792458434E-2,1.814893878E-1,2.554266937E-1
7.849839250E0,1.003016755E-1,-5.502726942E-2,4.662938136E-1,4.801232624E-1
7.859838250E0,2.162785484E-1,-2.852597047E-1,4.481621826E-1,5.735842148E-1
7.869837250E0,1.553673538E-1,1.163810069E-1,2.406515157E-1,3.091871689E-1
7.879836250E0,-1.769323968E-1,2.855562316E-1,2.529698449E-1,4.205248826E-1
7.889835250E0,-1.968647509E-1,7.258404605E-2,3.438314831E-1,4.027955594E-1
7.899834250E0,-2.277561942E-1,-9.861084346E-2,2.995130968E-1,3.889795337E-1
7.909833250E0,-2.490248747E-2,-1.143923323E-1,4.080467749E-1,4.245090223E-1
7.919832250E0,2.926603976E-1,-1.349350993E-1,4.239254737E-1,5.325132830E-1
7.929831250E0,-6.729584249E-2,2.856247902E-2,5.298220575E-2,9.028654246E-2
7.939830250E0,-3.660321184E-1,6.735203058E-2,-1.392409158E-1,3.973711620E-1
7.949829250E0,-6.278531861E-2,3.966827843E-2,5.695363462E-2,9.359105215E-2
7.959828250E0,2.946699212E-1,2.626167275E-3,1.886042798E-1,3.498697380E-1
7.969827250E0,2.438663514E-2,9.422809951E-2,9.600543380E-2,1.367138838E-1
7.979826250E0,-5.323016424E-2,2.059034865E-2,2.731789917E-1,2.790773626E-1
7.989825250E0,2.352599443E-1,-2.132739019E-1,4.641496396E-1,5.623769968E-1
7.999824250E0,1.730241909E-1,1.329600194E-1,3.005147249E-1,3.713823330E-1
8.009823250E0,1.703287341E-1,-5.147925206E-3,3.670934612E-1,4.047171704E-1
8.019822250E0,-1.289349789E-1,-3.579658113E-2,4.045162261E-1,4.260739386E-1
8.029821250E0,-3.399529519E-1,4.956637200E-2,2.476564801E-1,4.235074579E-1
8.039820250E0,-1.437646416E-1,-4.422464814E-2,3.955781722E-1,4.232093832E-1
8.049819250E0,-6.877057423E-2,-1.772856782E-1,5.561023682E-1,5.877154478E-1
8.059818250E0,4.353935447E-2,2.367460873E-2,4.801131231E-1,4.826642450E-1
8.069817250E0,1.102159677E-1,1.341199609E-1,3.465878606E-1,3.876323884E-1
8.079816250E0,1.572260740E-1,8.191466734E-2,5.199081033E-1,5.493036383E-1
8.089815250E0,1.537095037E-1,-2.260990385E-2,6.267612916E-1,6.457302347E-1
8.099814250E0,1.797312396E-1,-5.397663441E-2,5.051614255E-1,5.388922539E-1
8.109813250E0,1.107870397E-1,1.463777348E-2,4.546607780E-1,4.681927548E-1
8.119812250E0,-9.840215268E-2,1.484352238E-3,3.904033864E-1,4.026164316E-1
8.129811250E0,-2.043401421E-1,-5.247031856E-2,2.126825291E-1,2.995695014E-1
8.139810250E0,-1.870123388E-1,-1.477748905E-1,8.574357033E-2,2.533041511E-1
8.149809250E0,-3.120576036E-1,-6.406432394E-2,4.070539176E-2,3.211559037E-1
8.159808250E0,-5.744528496E-2,-1.531740267E-1,1.230745339E-1,2.047183043E-1
8.169807250E0,1.090153424E-1,3.315458983E-2,1.188937747E-1,1.646793897E-1
8.179806250E0,2.954415709E-1,1.977123779E-1,2.329372841E-1,4.250125699E-1
8.189805250E0,1.626592703E-1,1.992518402E-1,2.969631261E-1,3.928694850E-1
8.199804250E0,1.262658712E-2,-3.118941374E-3,2.392680645E-1,2.396212954E-1
8.209802250E0,-2.183764015E-1,-1.804546499E-1,1.605013919E-1,3.255961151E-1
8.219801250E0,-3.670745673E-1,-1.201761422E-1,2.009389812E-1,4.353877781E-1
8.229800250E0,-2.807982791E-1,-9.152496826E-2,1.789674836E-1,3.453315126E-1
8.239799250E0,-1.913720593E-3,-5.762014411E-2,1.739073032E-1,1.832143374E-1
8.249798250E0,1.756779497E-1,9.602260999E-2,2.827649170E-1,3.464665669E-1
8.259797250E0,1.599787970E-1,1.613408328E-1,3.103181666E-1,3.846055698E-1
8.269796250E0,3.688493983E-2,6.591551587E-2,1.911425561E-1,2.055257423E-1
8.279795250E0,-1.098064981E-1,-5.373817764E-2,1.940989083E-1,2.293897229E-1
8.289794250E0,-1.509772734E-1,-7.847595636E-2,3.006445330E-1,3.454558555E-1
8.299793250E0,-1.566616715E-1,-1.164319508E-2,2.351820302E-1,2.828233206E-1
8.309792250E0,7.481216412E-2,-2.711591441E-2,2.764563560E-1,2.876808119E-1
8.319791250E0,1.053425875E-1,4.436874546E-2,3.948408383E-1,4.110534441E-1
8.329790250E0,9.507109442E-2,1.347805866E-1,3.783487666E-1,4.127373362E-1
8.339789250E0,1.031258807E-2,-5.429033753E-2,2.560419720E-1,2.619375530E-1
8.349788250E0,-1.287720609E-1,-1.295167403E-1,2.901914656E-1,3.428817820E-1
8.359787250E0,-2.209939807E-1,-7.139256623E-2,2.713897437E-1,3.571941083E-1
8.369786250E0,-1.074551865E-1,-1.257870938E-1,1.118777007E-1,1.997138703E-1
8.379785250E0,1.484248359E-1,5.814069249E-2,1.127980524E-1,1.952784491E-1
8.389784250E0,1.892332209E-1,2.611431561E-1,1.433070695E-1,3.529049107E-1
8.399783250E0,1.625857781E-1,4.761636212E-2,1.402571619E-1,2.199398205E-1
8.409782250E0,-1.195300614E-2,-1.905658379E-1,5.638937831E-2,1.990928801E-1
8.419781250E0,-1.469144818E-1,-1.858158157E-1,1.336158943E-1,2.719643167E-1
8.429780250E0,-1.168493232E-1,-1.136927130E-1,1.592237753E-1,2.278859538E-1
8.439779250E0,4.148690868E-4,1.378693052E-2,5.775353372E-2,5.937779237E-2
8.449778250E0,4.142851875E-2,-6.463219821E-3,1.279791784E-1,1.346728090E-1
8.459777250E0,2.202086996E-2,-3.882101689E-2,1.279990590E-1,1.355571804E-1
8.469776250E0,4.941785272E-2,-7.551244128E-2,2.561080456E-3,9.028184806E-2
8.479775250E0,7.343519052E-2,-7.289800499E-2,-1.016421497E-2,1.039719078E-1
8.489774250E0,-4.574626724E-2,3.356334675E-2,8.980972409E-2,1.062309077E-1
8.499773250E0,-4.627743197E-2,-2.900175110E-2,1.441420519E-1,1.541416018E-1
8.509772250E0,3.513019955E-2,-1.374017837E-1,2.341201758E-1,2.737254789E-1
8.519771250E0,8.456617864E-3,-3.960556705E-2,3.973188883E-1,3.993775336E-1
8.529770250E0,-6.388744567E-2,6.424036168E-2,3.392618841E-1,3.511510441E-1
8.539769250E0,-4.850265384E-4,8.540015604E-2,1.819326067E-1,2.009798380E-1
8.549768250E0,5.082751592E-2,-3.431906283E-2,3.340227789E-1,3.396063180E-1
8.559767250E0,-8.441513775E-2,-1.197781296E-1,4.460209322E-1,4.694756519E-1
8.569766250E0,-6.775908815E-2,-2.922029078E-2,2.750892770E-1,2.848143777E-1
8.579765250E0,8.039696770E-2,6.364226460E-2,3.391759300E-1,3.543364528E-1
8.589764250E0,-6.562110856E-3,8.970184296E-2,5.532495117E-1,5.605127154E-1
8.599763250E0,-4.311328431E-2,5.461595435E-2,4.775309926E-1,4.825738355E-1
8.609762250E0,-5.087168067E-2,1.505665340E-2,3.944514138E-1,3.980032016E-1
8.619761250E0,2.715681751E-2,-2.535210181E-2,7.062781620E-1,7.072545963E-1
8.629760250E0,-4.102153427E-2,1.222347641E-1,7.488055462E-1,7.598248810E-1
8.639758250E0,8.582700279E-2,1.286430932E-1,6.268045610E-1,6.455999361E-1
8.649757250E0,2.001148161E-1,-1.966809656E-2,8.067210478E-1,8.314034054E-1
8.659756250E0,6.809740439E-3,8.959041696E-2,8.459365690E-1,8.506947126E-1
8.669755250E0,-9.362953649E-2,8.685333531E-2,7.032674307E-1,7.147692432E-1
8.679754250E0,-2.411770708E-1,-2.887541469E-2,7.169037223E-1,7.569353447E-1
8.689753250E0,-2.790417390E-1,-2.121261665E-1,1.020840822E0,1.079341367E0
8.699752250E0,7.406541986E-2,-6.367124487E-2,1.093650936E0,1.098003682E0
8.709751250E0,3.200177472E-1,2.321405644E-1,9.932261771E-1,1.069017698E0
8.719750250E0,4.163718212E-2,1.889777341E-1,1.085878817E0,1.102986421E0
8.729749250E0,-2.147893540E-1,-2.704300694E-1,1.215104038E0,1.263227894E0
8.739748250E0,-7.245602857E-2,-1.528547687E-1,1.169642521E0,1.181811356E0
8.749747250E0,8.505138790E-2,1.257001165E-1,1.228792369E0,1.238129616E0
8.759746250E0,1.996512964E-1,1.150858852E-1,1.474733861E0,1.492630350E0
8.769745250E0,6.720497310E-3,-3.854937717E-2,1.475153106E0,1.475672019E0
8.779744250E0,-9.991966959E-2,-9.769220933E-2,1.549525012E0,1.555813443E0
8.789743250E0,-8.823494101E-2,-7.985637434E-2,1.787089782E0,1.791047832E0
8.799742333E0,8.170113433E-3,8.433841132E-3,1.870010902E0,1.870047768E0
8.809741333E0,1.176945291E-1,2.359684807E-1,1.934340214E0,1.952230824E0
8.819740333E0,1.179195190E-2,-1.922876602E-1,2.238234045E0,2.246509567E0
8.829739333E0,-1.550184578E-1,-2.498964753E-1,2.180989219E0,2.200725549E0
8.839738333E0,-3.344095722E-3,7.322088093E-2,1.980766522E0,1.982122220E0
8.849737333E0,2.644516569E-2,2.563703297E-1,2.005802545E0,2.022292991E0
8.859736333E0,1.597397920E-1,-2.394796606E-2,2.180799769E0,2.186773408E0
8.869735333E0,3.619766358E-2,1.980934337E-2,2.265514230E0,2.265889981E0
8.879734333E0,-7.366568958E-2,4.281652898E-2,2.474915886E0,2.476382146E0
8.889733333E0,-2.221088620E-2,1.045925451E-1,2.539256308E0,2.541506546E0
8.899732333E0,7.186587092E-2,2.487879528E-1,2.460608919E0,2.474198133E0
8.909731333E0,1.952266352E-1,1.507887281E-1,2.689544368E0,2.700833129E0
8.919730333E0,1.440798248E-1,1.200545201E-1,2.740347317E0,2.746757270E0
8.929729333E0,-8.836897016E-3,2.806933216E-1,2.539214793E0,2.554697359E0
8.939728333E0,-8.789305248E-2,1.932783978E-1,2.596745548E0,2.605411516E0
8.949727333E0,-7.329705005E-2,3.370869391E-1,2.748177908E0,2.769744009E0
8.959726333E0,-1.151057200E-1,1.631661142E-1,2.665507050E0,2.672975933E0
8.969725333E0,-7.814110276E-2,-1.916167653E-1,2.910875514E0,2.918221937E0
8.979724333E0,-6.041334076E-3,3.026849920E-1,2.837277780E0,2.853383939E0
8.989723333E0,1.417758848E-1,4.300951998E-1,2.730738003E0,2.768034017E0
8.999722333E0,1.890050333E-1,1.569564443E-2,2.893799890E0,2.900008114E0
9.009721333E0,1.032008072E-1,8.338732515E-2,2.972737302E0,2.975696711E0
9.019720333E0,1.295919775E-1,1.730366163E-1,2.997618958E0,3.005404327E0
9.029719333E0,5.255038887E-2,1.237592794E-1,2.889367116E0,2.892493774E0
9.039718333E0,5.845704513E-2,1.915491934E-1,2.963265397E0,2.970025275E0
9.049716333E0,-6.782919078E-2,1.768973500E-1,2.898962982E0,2.905147129E0
9.059715333E0,-1.270098928E-1,1.125053993E-1,2.689149097E0,2.694496584E0
9.069714333E0,-3.121400128E-1,-1.537609775E-1,2.728147686E0,2.750247920E0
9.079713333E0,-1.386669750E-1,-9.890890528E-2,2.726340896E0,2.731656308E0
9.089712333E0,3.076785873E-1,2.157931747E-1,2.594596111E0,2.621671564E0
9.099711333E0,3.060232223E-1,1.862830448E-1,2.537089330E0,2.562259521E0
9.109710333E0,-2.565087260E-1,-1.335803359E-1,2.401491230E0,2.418842814E0
9.119709333E0,-2.409209993E-1,-4.338613914E-1,2.206542721E0,2.261660764E0
9.129708333E0,5.932807561E-1,1.865020961E-1,1.853560930E0,1.955109513E0
9.139707333E0,6.207690650E-1,1.311577614E-1,1.719460886E0,1.832785402E0
9.149706333E0,2.636037192E-2,2.618552373E-1,1.596905585E0,1.618446935E0
9.159705333E0,-8.345972829E-1,-8.900688677E-1,1.537449342E0,1.962785188E0
9.169704333E0,-3.069793334E-1,2.516199421E-1,1.268744640E0,1.329384018E0
9.179703333E0,2.826240722E-1,7.291760047E-1,1.117853732E0,1.364247403E0
9.189702333E0,4.178836554E-1,-9.278239006E-1,1.516527420E0,1.826291147E0
9.199701333E0,1.865365581E-1,3.576456032E-1,9.282080626E-1,1.012065449E0
9.209700333E0,-4.288157194E-1,2.603049942E-1,9.060213876E-1,1.035623660E0
9.219699333E0,-4.923935185E-1,-1.783407718E-1,6.775823665E-1,8.563729744E-1
9.229698333E0,-1.036949061E-1,-3.412114189E-1,6.189242685E-1,7.143144378E-1
9.239697333E0,6.156526051E-2,3.615237324E-1,3.045305926E-1,4.766849822E-1
9.249696333E0,7.221882348E-2,3.410792718E-1,2.209633559E-1,4.127655906E-1
9.259695333E0,-5.109207502E-2,-6.068069373E-1,8.803743303E-2,6.152850144E-1
9.269694333E0,-8.764510313E-3,3.355040979E-1,-1.029858398E-1,3.510639536E-1
9.279693333E0,-1.096227768E-1,3.273403250E-1,-3.045036954E-1,4.603165672E-1
9.289692333E0,-2.871570896E-1,-3.374232271E-1,-3.481847352E-1,5.635124117E-1
9.299691333E0,-6.469772357E-2,4.811476417E-2,-5.581699437E-1,5.639632187E-1
9.309690333E0,5.681173000E-3,2.297607477E-1,-5.603743440E-1,6.056745680E-1
9.319689333E0,-9.802010109E-2,-3.736582763E-2,-8.381381375E-1,8.446772654E-1
9.329688333E0,-8.715580082E-2,-2.706529214E-1,-8.756088495E-1,9.206193539E-1
9.339687333E0,-1.547730574E-1,-3.299796485E-1,-9.960000962E-1,1.060592975E0
9.349686333E0,9.346878374E-2,-1.029570423E-2,-1.102476139E0,1.106479124E0
9.359685333E0,4.165969025E-1,3.579108110E-1,-1.381487728E0,1.486661182E0
9.369684333E0,3.833829634E-1,3.604026750E-1,-1.444155262E0,1.537028629E0
9.379683333E0,2.250196790E-1,-1.606237449E-1,-1.402791474E0,1.429775424E0
9.389682333E0,-6.324124611E-2,-4.327668658E-1,-1.662441763E0,1.719011120E0
9.399681333E0,-2.097935112E-1,-2.554549116E-1,-1.635211864E0,1.668289055E0
9.409680333E0,-1.807106483E-1,-1.022013993E-1,-1.815875040E0,1.827704469E0
9.419679333E0,-1.802222413E-2,1.725940917E-2,-1.923488367E0,1.923650224E0
9.429678333E0,-2.089367114E-1,8.784136858E-2,-2.030345063E0,2.042956615E0
9.439677333E0,-3.222195163E-1,-2.956869347E-1,-2.080140536E0,2.125615401E0
9.449676333E0,-1.913267799E-1,-5.847235021E-1,-2.148606754E0,2.234953801E0
9.459675333E0,1.245546287E-1,-1.916019280E-1,-2.314710363E0,2.325964148E0
9.469673333E0,4.395011771E-1,8.767870635E-2,-2.331626943E0,2.374306855E0
9.479672333E0,3.343122160E-1,2.333159644E-2,-2.578977029E0,2.600659827E0
9.489671333E0,1.183779772E-2,-1.388612853E-1,-2.729502486E0,2.733058069E0
9.499670333E0,-3.858972662E-1,-2.820691714E-1,-2.869510556E0,2.909049768E0
9.509669333E0,-5.539550514E-1,-3.710520262E-1,-3.195401613E0,3.264220775E0
9.519668333E0,-2.528312294E-1,-3.368150436E-1,-3.193881336E0,3.221528518E0
9.529667333E0,7.143248261E-2,-1.598811850E-1,-3.367510312E0,3.372060245E0
9.539666333E0,3.947256482E-1,8.203051530E-2,-3.504200088E0,3.527315636E0
9.549665333E0,2.794921208E-1,7.114343829E-3,-3.674295591E0,3.684917170E0
9.559664333E0,-5.139093169E-2,-2.058665760E-1,-4.006500471E0,4.012115165E0
9.569663333E0,-2.816024905E-1,-3.491439709E-1,-4.330890546E0,4.354057234E0
9.579662333E0,-3.685935643E-1,-2.864240680E-1,-4.527848158E0,4.551846758E0
9.589661333E0,-2.029416891E-1,-5.132956699E-1,-4.574165708E0,4.607347360E0
9.599660333E0,5.125793494E-2,-2.198927673E-1,-4.763888560E0,4.769236251E0
9.609659333E0,1.805843484E-1,2.388030281E-1,-4.915912659E0,4.925021306E0
9.619658333E0,3.580057551E-1,-1.360880971E-1,-4.937889419E0,4.952720465E0
9.629657333E0,-8.208866769E-2,8.533642139E-2,-5.329498501E0,5.330813739E0
9.639656333E0,-4.422574449E-1,-2.868229578E-1,-5.073434309E0,5.100744529E0
9.649655333E0,-2.601996713E-1,-6.389218922E-1,-4.692362494E0,4.742804111E0
9.659654333E0,-2.009840047E-1,2.275464071E-1,-4.680733552E0,4.690569104E0
9.669653333E0,1.727875249E-1,-1.559684476E-1,-4.229183493E0,4.235584340E0
9.679652333E0,1.712478982E-1,-1.236047302E-1,-3.983002265E0,3.988597625E0
9.689651333E0,3.162419077E-2,-4.294381555E-2,-3.699667245E0,3.700051619E0
9.699650333E0,-1.351393498E-1,-3.260953797E-1,-3.325600394E0,3.344281510E0
9.709649333E0,-3.090336064E-1,-1.143004945E-1,-3.238929455E0,3.255645925E0
9.719648333E0,-3.843831662E-1,-3.037706738E-1,-2.919753342E0,2.960572008E0
9.729647333E0,-2.596518237E-1,-3.342553153E-1,-2.492451101E0,2.528133338E0
9.739646333E0,-6.259326498E-2,-1.997044512E-1,-2.137279528E0,2.147501703E0
9.749645333E0,1.899019596E-1,-1.826665784E-1,-1.754576340E0,1.774251382E0
9.759644333E0,1.143362904E-1,1.253167219E-1,-1.647645383E0,1.656355148E0
9.769643333E0,3.374620928E-2,-1.234940351E-1,-1.390590674E0,1.396471269E0
9.779642333E0,-1.359792018E-1,-4.239191148E-1,-1.148325326E0,1.231604163E0
9.789641333E0,-9.772299858E-2,-1.208762732E-1,-1.083178573E0,1.094274499E0
9.799640958E0,2.080028197E-1,1.464691707E-1,-9.435663593E-1,9.772593644E-1
9.809639958E0,3.877986711E-1,1.358184674E-1,-6.733314407E-1,7.888026967E-1
9.819638958E0,1.355763652E-1,2.953414008E-2,-5.938057995E-1,6.098020529E-1
9.829637958E0,-1.757540001E-1,-2.173364011E-1,-5.453838372E-1,6.128361198E-1
9.839636958E0,-3.505660503E-1,-5.134425081E-1,-3.502043635E-1,7.135564876E-1
9.849635958E0,-3.048203038E-1,-1.339939899E-1,-2.762329924E-1,4.326366525E-1
9.859633958E0,-1.457711228E-1,-1.094909403E-2,-1.660065454E-1,2.211951085E-1
9.869633958E0,1.907745652E-1,-1.492249634E-2,-1.915629709E-1,2.707655581E-1
9.879631958E0,2.315694376E-1,2.880485342E-1,-3.243497300E-1,4.917307290E-1
9.889630958E0,1.518949848E-1,1.953891695E-1,-1.526702160E-1,2.907872226E-1
9.899629958E0,-6.778448699E-2,-1.483483196E-1,-1.091020274E-1,1.962274522E-1
9.909628958E0,-2.166862273E-1,-9.192648925E-2,-2.330150521E-1,3.312090201E-1
9.919627958E0,-3.305467553E-1,3.183231876E-1,-2.365637273E-1,5.162879102E-1
9.929626958E0,-6.561100384E-2,-1.191120952E-1,1.539495867E-1,2.054092751E-1
9.939625958E0,1.025183184E-1,-4.053313645E-1,1.613047993E-1,4.481325238E-1
9.949624958E0,7.223061841E-1,4.108139331E-1,3.879335225E-2,8.318649142E-1
9.959623958E0,1.613150137E-1,7.380772211E-1,-1.476246536E-2,7.556443927E-1
9.969622958E0,-7.443110108E-1,-3.903232795E-1,1.990684569E-2,8.406827141E-1
9.979621958E0,-2.990338809E-1,-6.477948958E-1,-5.937730551E-2,7.159505244E-1
9.989620958E0,4.184516028E-1,7.236301399E-1,8.830114245E-2,8.405589896E-1
9.999619958E0,7.114469910E-2,4.061765064E-1,7.069342196E-2,4.183760061E-1
1.000961896E1,-5.794066289E-2,-9.862108339E-1,-2.320409060E-2,9.881838691E-1
1.001961796E1,-3.046398441E-1,-3.999678232E-3,-1.610802662E-1,3.446277473E-1
1.002961696E1,-1.846493510E-1,4.797820976E-1,4.623978138E-3,5.141085733E-1
1.003961596E1,-3.187094327E-2,-1.867462904E-1,-4.749400914E-2,1.953090242E-1
1.004961496E1,-3.632396344E-2,-6.545895796E-1,1.400677121E-1,6.703923568E-1
1.005961396E1,7.716457207E-2,2.221688690E-1,2.255499119E-1,3.258621492E-1
1.006961296E1,3.478908395E-1,3.586728493E-1,-1.097943377E-1,5.115946107E-1
1.007961196E1,3.737222303E-1,-4.281240303E-1,-8.173588872E-2,5.741421830E-1
1.008961096E1,-1.096785263E-1,1.310227273E-1,-3.987859547E-2,1.754612110E-1
1.009960996E1,-3.760327575E-1,-1.723473757E-1,-2.148208559E-2,4.142049404E-1
1.010960896E1,-2.939859066E-1,-5.216369057E-1,-1.404822797E-1,6.150349954E-1
1.011960796E1,-8.635246648E-2,4.733938683E-2,-1.605569404E-1,1.883515254E-1
1.012960696E1,2.326979868E-2,2.064515899E-1,-8.260595441E-2,2.235788143E-1
1.013960596E1,1.459837056E-1,-3.183221643E-1,1.588185632E-1,3.845303351E-1
1.014960496E1,2.188473034E-2,1.475141412E-1,1.390409410E-2,1.497754556E-1
1.015960396E1,-1.828708473E-2,8.299187064E-2,6.552039027E-2,1.073079196E-1
1.016960296E1,2.765351107E-2,-1.768109209E-1,1.283750349E-1,2.202429749E-1
1.017960196E1,-1.209830032E-2,2.782784946E-2,1.039634943E-2,3.207556948E-2
1.018960096E1,-2.273484788E-1,1.149836320E-1,9.607560039E-3,2.549526852E-1
1.019959996E1,-1.980045925E-1,-2.513011592E-1,1.675361770E-1,3.611460396E-1
1.020959896E1,-1.052272695E-1,-2.276920393E-2,1.250017762E-2,1.083857432E-1
1.021959796E1,6.270037866E-2,1.211516771E-1,6.024854064E-2,1.491273046E-1
1.022959696E1,1.469802904E-1,5.686208915E-2,1.945508981E-1,2.503728318E-1
1.023959596E1,1.035919129E-1,9.863850810E-2,2.152202207E-1,2.584193938E-1
1.024959496E1,-1.043210881E-2,4.098357305E-2,2.617511934E-1,2.651455627E-1
1.025959396E1,-2.104157098E-1,1.052835032E-2,2.496112043E-1,3.266364499E-1
1.026959296E1,-1.020569183E-1,-4.356581312E-2,2.460145819E-1,2.698828804E-1
1.027959096E1,8.773859463E-2,5.190076321E-2,3.956670499E-1,4.085880133E-1
1.028958996E1,9.372439843E-2,2.229234157E-1,4.140302306E-1,4.794790340E-1
1.029958896E1,1.788090424E-1,7.000133090E-2,2.827163851E-1,3.417622191E-1
1.030958796E1,3.212158782E-2,-9.676575456E-2,1.437760162E-1,1.762581927E-1
1.031958696E1,-7.102241920E-2,1.133811660E-3,6.607762992E-2,9.701403370E-2
1.032958596E1,-1.019727092E-1,-6.698084202E-2,5.290502250E-2,1.329804799E-1
1.033958496E1,-2.584489418E-2,-7.911121979E-2,1.927154571E-1,2.099185343E-1
1.034958396E1,-5.154445765E-2,1.196366270E-1,3.519877642E-1,3.753200498E-1
1.035958296E1,2.039031906E-2,6.887764223E-2,4.694986725E-1,4.749619966E-1
1.036958196E1,1.304900276E-2,2.268314023E-2,5.490009248E-1,5.496242505E-1
1.037958096E1,-3.687666236E-2,-5.034328423E-2,6.244522262E-1,6.275626799E-1
1.038957996E1,1.987940946E-2,-1.275191122E-1,6.940744382E-1,7.059714163E-1
1.039957896E1,1.222647311E-2,-4.883320425E-2,7.132544750E-1,7.150287509E-1
1.040957796E1,7.458711027E-2,-7.866807394E-3,8.006814587E-1,8.041864970E-1
1.041957696E1,3.538665477E-2,-1.758645125E-2,8.363067895E-1,8.372398371E-1
1.042957596E1,3.430844648E-3,-7.160796303E-2,8.186458594E-1,8.217788718E-1
1.043957496E1,-8.288727857E-2,-4.679855593E-2,8.041430104E-1,8.097569925E-1
1.044957396E1,-1.685147451E-1,-2.084097493E-2,7.526652932E-1,7.715805915E-1
1.045957296E1,-2.101981568E-1,-4.924528677E-2,7.787257487E-1,8.080978623E-1
1.046957196E1,-1.039315356E-1,-1.892032174E-1,1.030677593E0,1.053041273E0
1.047957096E1,1.340575236E-1,2.315888431E-2,1.266159586E0,1.273447231E0
1.048956996E1,2.081934755E-1,2.020119452E-1,1.347584403E0,1.378454595E0
1.049956896E1,1.490421740E-1,1.517954360E-1,1.450224672E0,1.465744529E0
1.050956796E1,-1.060516081E-1,2.783899572E-2,1.550020271E0,1.553893431E0
1.051956696E1,-1.607822410E-1,-6.212275598E-2,1.610476388E0,1.619674153E0
1.052956596E1,-1.465434943E-1,1.770778097E-2,1.616150526E0,1.622877409E0
1.053956496E1,-8.687230222E-2,9.466927193E-2,1.661354765E0,1.666315914E0
1.054956396E1,3.613462329E-2,3.744673848E-2,1.810007944E0,1.810755844E0
1.055956296E1,7.101543909E-3,1.426359554E-1,1.930824868E0,1.936099202E0
1.056956196E1,-1.021490302E-3,1.623600025E-1,2.041315609E0,2.047762494E0
1.057956096E1,4.579377587E-2,4.133608706E-2,2.285787111E0,2.286619439E0
1.058955996E1,3.982958850E-2,8.613807466E-2,2.512302398E0,2.514094172E0
1.059955896E1,5.474662134E-2,2.335291320E-1,2.615598725E0,2.626573764E0
1.060955796E1,1.697115605E-1,1.763393064E-1,2.768703389E0,2.779499239E0
1.061955696E1,5.975986873E-2,2.142047421E-1,2.963123310E0,2.971456656E0
1.062955596E1,-5.971779618E-2,5.117790118E-2,3.101864288E0,3.102861173E0
1.063955496E1,-7.206380831E-2,3.133497287E-2,3.178194426E0,3.179165753E0
1.064955396E1,4.232744593E-4,1.482889338E-1,3.262915319E0,3.266283234E0
1.065955296E1,1.237822937E-1,8.234140445E-2,3.276981381E0,3.280351983E0
1.066955196E1,7.279025177E-2,1.352024997E-1,3.262743995E0,3.266355234E0
1.067954996E1,2.461840415E-2,1.280188299E-1,3.330976324E0,3.333526385E0
1.068954896E1,-5.734620206E-3,-3.370488591E-2,3.372733045E0,3.372906328E0
1.069954796E1,-2.432317458E-2,3.491372466E-2,3.293687460E0,3.293962306E0
1.070954696E1,6.681951368E-3,5.641792003E-2,3.312838846E0,3.313325950E0
1.071954596E1,1.700849966E-2,3.978602674E-2,3.306698100E0,3.306981182E0
1.072954496E1,3.617491426E-2,1.304560590E-1,3.252348815E0,3.255165161E0
1.073954396E1,3.371979631E-2,7.305313893E-2,3.304719402E0,3.305698733E0
1.074954296E1,2.857662197E-3,3.073186912E-3,3.344978651E0,3.344981284E0
1.075954196E1,-2.231796334E-2,1.050379202E-3,3.330908496E0,3.330983429E0
1.076954096E1,1.528263914E-2,3.678552803E-2,3.389145595E0,3.389379677E0
1.077953996E1,-8.908708133E-3,1.049974282E-1,3.445287051E0,3.446898126E0
1.078953896E1,-3.136719651E-2,1.602050842E-1,3.409366436E0,3.413272486E0
1.079953733E1,-5.647191541E-2,8.468975589E-2,3.376444858E0,3.377978879E0
1.080953633E1,-6.886137052E-2,4.242703132E-3,3.383807087E0,3.384510347E0
1.081953533E1,-1.400024425E-3,4.513886031E-2,3.276957407E0,3.277268577E0
1.082953433E1,6.680498701E-2,1.106064064E-1,3.187918931E0,3.190536599E0
1.083953333E1,6.915346636E-3,1.731194275E-1,3.160242305E0,3.164988086E0
1.084953233E1,9.561577169E-2,2.050009323E-1,3.121924331E0,3.130108511E0
1.085953133E1,7.941267117E-2,1.144450304E-1,3.022525173E0,3.025733376E0
1.086953033E1,4.173477581E-2,1.169053194E-1,2.997373960E0,2.999943216E0
1.087952933E1,2.932546757E-2,1.246659268E-1,2.874460809E0,2.877312378E0
1.088952833E1,5.160021633E-3,8.895025648E-2,2.697966698E0,2.699437548E0
1.089952733E1,2.698719344E-2,1.103735045E-1,2.562331760E0,2.564849833E0
1.090952633E1,-9.006786039E-2,2.073523535E-1,2.344217752E0,2.355093223E0
1.091952533E1,-6.792639161E-2,4.224620618E-2,2.136291348E0,2.137788451E0
1.092952433E1,7.413520273E-2,2.232437700E-2,2.016383666E0,2.017869544E0
1.093952333E1,8.060857295E-2,2.564558818E-1,1.785835555E0,1.805955700E0
1.094952233E1,3.616929545E-2,-1.095954959E-1,1.605143142E0,1.609286767E0
1.095952133E1,3.733042457E-2,4.481846943E-2,1.225619670E0,1.227006859E0
1.096952033E1,-3.835398881E-2,5.259106357E-2,1.084253876E0,1.086205927E0
1.097951933E1,2.106899442E-1,6.814390437E-1,5.958517402E-1,9.294023452E-1
1.098951833E1,-3.425992921E-1,-6.586205770E-1,9.232946473E-1,1.184748220E0
1.099951733E1,-6.799449340E-2,-1.581416018E-2,5.156805664E-1,5.203842670E-1
1.100951633E1,2.396232463E-1,6.189181289E-1,5.945682764E-2,6.663438038E-1
1.101951533E1,8.833315596E-4,-7.128785721E-1,4.438001597E-1,8.397352086E-1
1.102951433E1,-1.149145070E-1,1.172225309E-1,-5.793070436E-2,1.740759379E-1
1.103951333E1,-1.381224896E-1,8.677596934E-2,-2.326004845E-1,2.840965969E-1
1.104951233E1,-1.275226388E-1,-6.338675590E-1,-2.391552132E-1,6.893803897E-1
1.105951133E1,1.672870491E-1,-1.289618030E-2,-3.512404901E-1,3.892571774E-1
1.106950933E1,-1.188493450E-1,-1.203316416E-1,-7.728931510E-1,7.911818335E-1
1.107950833E1,-1.752804487E-1,-9.182577096E-3,-8.947339225E-1,9.117874464E-1
1.108950733E1,7.659427668E-2,2.568688049E-1,-1.086816711E0,1.119383236E0
1.109950633E1,-2.691296121E-2,-3.258064907E-1,-1.127547246E0,1.173983376E0
1.110950533E1,-2.641270268E-1,-4.571685027E-1,-1.362698286E0,1.461407795E0
1.111950433E1,-2.326444848E-1,-2.167323107E-1,-1.495596142E0,1.529020657E0
1.112950333E1,6.897887215E-6,-2.499746818E-1,-1.562471332E0,1.582341305E0
1.113950233E1,1.267805358E-1,6.371893622E-2,-1.837446588E0,1.842917082E0
1.114950133E1,6.032453617E-3,5.269726362E-2,-1.911864102E0,1.912599732E0
1.115950033E1,-1.578391911E-1,-2.966985396E-1,-1.998998725E0,2.027051833E0
1.116949933E1,-1.475809822E-1,-2.666789344E-1,-2.189550712E0,2.210662824E0
1.117949833E1,-7.467927701E-2,-1.196574211E-1,-2.358832283E0,2.363045626E0
1.118949733E1,-6.222468940E-2,-1.535154310E-1,-2.482143629E0,2.487664747E0
1.119949633E1,-6.177057087E-2,-5.038958687E-2,-2.693604090E0,2.694783425E0
1.120949533E1,-1.308492660E-2,-9.272711925E-2,-2.981571275E0,2.983041535E0
1.121949433E1,-6.209897426E-2,-2.819680877E-2,-3.066261177E0,3.067019555E0
1.122949333E1,-6.039545193E-2,6.245703399E-3,-3.363963391E0,3.364511304E0
1.123949233E1,1.833538821E-1,-2.517430625E-1,-3.548210326E0,3.561852009E0
1.124949133E1,2.682852559E-1,-6.279609941E-2,-3.733978121E0,3.744130465E0
1.125949033E1,1.499861064E-2,2.551472384E-1,-4.050296701E0,4.058352921E0
1.126948933E1,-4.402056204E-2,2.324200613E-1,-4.388803709E0,4.395174046E0
1.127948833E1,-2.247619995E-1,-8.203395054E-2,-4.565922303E0,4.572187005E0
1.128948733E1,8.617490298E-2,-4.945475962E-1,-4.572350732E0,4.599825503E0
1.129948633E1,2.987954607E-3,-1.900836619E-1,-5.077671787E0,5.081229329E0
1.130948533E1,-2.424258533E-1,2.365165110E-1,-5.553225836E0,5.563544512E0
1.131948433E1,6.548553539E-2,-1.286334819E-1,-5.567736871E0,5.569607597E0
1.132948333E1,2.107677487E-1,-3.863924888E-1,-5.762473125E0,5.779257627E0
1.133948233E1,-1.462340121E-1,-1.259490982E-1,-5.985201171E0,5.988312001E0
1.134948133E1,-3.046310550E-1,-3.607680529E-1,-5.825630656E0,5.844734913E0
1.135948033E1,-2.893451542E-1,-5.228833129E-1,-5.771404747E0,5.802261657E0
1.136947933E1,-2.913296079E-1,-5.443750829E-1,-5.565971596E0,5.600112229E0
1.137947833E1,-2.824137186E-1,-3.747325195E-1,-5.305735416E0,5.326444431E0
1.138947733E1,-6.178477778E-2,-1.550469629E-1,-5.073510908E0,5.076255495E0
1.139947633E1,2.569558553E-1,-4.814593714E-2,-4.717393255E0,4.724631569E0
1.140947533E1,1.213363851E-1,-3.002396134E-1,-4.204115894E0,4.216569316E0
1.141947433E1,-2.605257266E-1,-3.306102342E-1,-3.908468977E0,3.931069387E0
1.142947333E1,-2.127595296E-1,-2.785930748E-1,-3.639762520E0,3.656603878E0
1.143947233E1,1.127799078E-1,-3.903744061E-1,-3.099253507E0,3.125777309E0
1.144947033E1,5.599770622E-2,-2.593087383E-1,-2.711886579E0,2.724831295E0
1.145946933E1,-3.310058531E-2,-5.376025088E-2,-2.506701935E0,2.507496840E0
1.146946833E1,-1.364441468E-1,6.463508528E-2,-2.165622151E0,2.170878625E0
1.147946733E1,-7.131953085E-2,-2.578558514E-1,-1.844287831E0,1.863591618E0
1.148946633E1,-2.266145802E-1,-4.582848823E-1,-1.674257816E0,1.750576601E0
1.149946533E1,-3.199814214E-1,-9.711468715E-2,-1.577707422E0,1.612755431E0
1.150946433E1,-4.966743747E-2,-1.331950044E-1,-1.289106399E0,1.296920611E0
1.151946333E1,2.179704037E-2,-1.301104520E-1,-1.075198878E0,1.083261957E0
1.152946233E1,2.370998438E-2,1.222797512E-1,-8.867600745E-1,8.954652035E-1
1.153946133E1,1.249759480E-1,1.232444686E-1,-6.935476041E-1,7.154134929E-1
1.154946033E1,-9.657475160E-2,6.096654218E-2,-6.061744148E-1,6.168395440E-1
1.155945933E1,-1.023438704E-1,-1.345411796E-1,-5.193608040E-1,5.461787633E-1
1.156945833E1,-2.888304348E-2,-7.119379744E-2,-6.175437409E-1,6.223046351E-1
1.157945733E1,-3.403440393E-2,2.269369445E-1,-8.504599750E-1,8.808750686E-1
1.158945633E1,1.579829047E-1,1.947882585E-1,-7.952341926E-1,8.338456002E-1
1.159945533E1,7.301058216E-2,1.206713649E-1,-5.457182980E-1,5.636493450E-1
1.160945433E1,-5.059498860E-2,4.368326906E-2,-4.698202693E-1,4.745515424E-1
1.161945333E1,-9.541100951E-2,1.360563029E-2,-5.618665534E-1,5.700722742E-1
1.162945233E1,-8.771501390E-2,-5.477280591E-2,-4.579480827E-1,4.694788924E-1
1.163945133E1,-1.078958565E-1,7.379551604E-2,-4.359023255E-1,4.550803571E-1
1.164945033E1,-6.469671858E-2,6.758401886E-2,-5.279258054E-1,5.361519571E-1
1.165944933E1,-1.307637870E-1,-1.256603920E-1,-5.458317339E-1,5.751712648E-1
1.166944833E1,-1.026728311E-1,-2.034951646E-1,-4.147652256E-1,4.732675614E-1
1.167944733E1,1.463142012E-1,-1.349420428E-2,-4.293435037E-1,4.537904618E-1
1.168944633E1,2.731357040E-1,-3.561104167E-2,-4.196868271E-1,5.020042748E-1
1.169944533E1,8.428640764E-2,-2.281151219E-1,-3.233568728E-1,4.045990293E-1
1.170944433E1,-1.025621725E-2,-2.006976373E-1,-2.705910140E-1,3.370522638E-1
1.171944333E1,2.967332209E-2,-4.175949857E-2,-2.922496855E-1,2.967056461E-1
1.172944233E1,-2.564308667E-1,-1.153480232E-2,-3.185960698E-1,4.091372591E-1
1.173944133E1,-2.646719142E-1,-2.440281000E-1,-1.621818817E-1,3.948466772E-1
1.174944033E1,2.002171059E-1,-2.478952657E-1,-1.733933330E-2,3.191231811E-1
1.175943933E1,5.698467968E-2,-1.690089079E-1,-7.530278206E-2,1.936021014E-1
1.176943833E1,-7.569489269E-2,-4.638636377E-2,-1.428451395E-1,1.681848549E-1
1.177943733E1,-2.188811990E-1,-6.228991326E-2,-3.482812142E-1,4.160394413E-1
1.178943633E1,-3.291961582E-1,-1.763021400E-1,-3.321633643E-1,4.997850095E-1
1.179943537E1,-6.631522788E-2,-2.346644420E-1,-2.412736595E-2,2.450453827E-1
1.180943338E1,2.420783825E-1,3.313149333E-2,1.248322070E-2,2.446537756E-1
1.181943337E1,3.231331437E-1,4.673547543E-1,-5.598708987E-3,5.682137278E-1
1.182943137E1,1.759331076E-1,-1.151050348E-1,2.520676196E-1,3.282372804E-1
1.183943037E1,-1.307926211E-1,-3.528576472E-1,2.292734188E-1,4.406603334E-1
1.184942937E1,-2.891509536E-1,7.956225939E-2,-1.066573066E-1,3.182989289E-1
1.185942837E1,-2.462169321E-1,1.308918227E-1,-8.466709793E-2,2.914171656E-1
1.186942737E1,-1.466327100E-1,-8.510461584E-2,8.434199274E-2,1.893608170E-1
1.187942637E1,-2.275935503E-2,8.034626137E-2,5.024220049E-2,9.745659890E-2
1.188942537E1,8.166957764E-2,7.494303212E-2,9.953890622E-2,1.489777561E-1
1.189942437E1,2.808602596E-1,1.665364128E-1,2.733953387E-1,4.258660275E-1
1.190942337E1,5.581669835E-2,3.300926094E-1,2.648303372E-1,4.268626736E-1
1.191942237E1,-4.034726808E-2,1.726276401E-1,3.216167414E-1,3.672404288E-1
1.192942137E1,-1.199720470E-1,-1.281971334E-1,4.396620852E-1,4.734242772E-1
1.193942037E1,-2.258949341E-1,4.887230750E-2,4.935161108E-1,5.449542874E-1
1.194941937E1,-1.217217715E-1,4.802592304E-2,3.511223763E-1,3.747126927E-1
1.195941837E1,7.864925321E-2,-3.191889044E-2,3.659164166E-1,3.756319270E-1
1.196941737E1,6.434816058E-2,7.250214849E-2,3.818968570E-1,3.940081937E-1
1.197941637E1,6.133886363E-2,1.107503575E-1,4.156972718E-1,4.345484089E-1
1.198941537E1,7.370662009E-3,-9.108500183E-2,3.685219359E-1,3.796830540E-1
1.199941437E1,-1.192112786E-1,-1.351072632E-1,4.556308311E-1,4.899640352E-1
1.200941337E1,-3.028743322E-1,-8.641983736E-2,5.879568297E-1,6.670041101E-1
1.201941237E1,-2.517043247E-1,-2.575954676E-1,6.167333168E-1,7.141921843E-1
1.202941137E1,-7.002868490E-2,-1.109485416E-1,5.709864557E-1,5.858661350E-1
1.203941038E1,7.804307967E-2,1.470797662E-2,6.216373765E-1,6.266897756E-1
1.204940938E1,7.659656075E-2,1.115305223E-2,6.748271585E-1,6.792518807E-1
1.205940838E1,1.005141030E-1,-7.773807429E-2,7.208166790E-1,7.319309925E-1
1.206940738E1,1.434173992E-2,-8.365227710E-2,7.495808870E-1,7.543705290E-1
1.207940638E1,5.127903974E-2,-1.425852673E-1,7.168008113E-1,7.326414549E-1
1.208940538E1,1.415320285E-1,3.434588693E-2,5.684189433E-1,5.867802401E-1
1.209940438E1,1.577604365E-1,5.342312235E-2,5.945501500E-1,6.174400912E-1
1.210940338E1,-4.204365497E-2,2.602259472E-2,6.631859368E-1,6.650266394E-1
1.211940238E1,-1.578103388E-1,-1.273548054E-1,7.351487893E-1,7.626054628E-1
1.212940138E1,-2.024643553E-1,-2.606152621E-1,7.149273634E-1,7.874219104E-1
1.213940038E1,-2.958656402E-1,1.991484907E-2,5.969855154E-1,6.665769152E-1
1.214939938E1,-1.330172673E-1,-1.756172118E-1,5.146923870E-1,5.598600287E-1
1.215939837E1,2.249630341E-2,1.237710835E-1,2.445404989E-1,2.750007643E-1
1.216939737E1,9.579833273E-2,1.758159075E-2,3.700188231E-1,3.826230029E-1
1.217939637E1,1.589552602E-1,-2.203578402E-1,5.954979837E-1,6.545549641E-1
1.218939438E1,2.250116939E-1,-2.850283742E-2,4.600706220E-1,5.129402025E-1
1.219939338E1,-2.285809988E-2,3.590595696E-1,3.898420537E-1,5.304932554E-1
1.220939237E1,8.387674623E-2,1.232520700E-1,7.270731997E-1,7.422006596E-1
1.221939137E1,1.073215228E-1,-1.221052118E-2,8.179067713E-1,8.250081773E-1
1.222939037E1,-3.560780743E-3,1.594802122E-1,8.144341099E-1,8.299093545E-1
1.223938937E1,-9.076143153E-2,1.877379051E-1,1.004396113E0,1.025814170E0
1.224938837E1,8.466353478E-2,-5.884290654E-2,1.100963464E0,1.105780698E0
1.225938737E1,-2.564421591E-2,1.177797705E-1,9.147811013E-1,9.226885518E-1
1.226938637E1,-7.665929954E-2,1.983159202E-1,1.046825264E0,1.068198945E0
1.227938537E1,3.780201165E-2,-5.920119468E-2,1.363899304E0,1.365706808E0
1.228938437E1,4.531565635E-2,1.022281869E-1,1.377694055E0,1.382224663E0
1.229938337E1,-4.199360646E-3,2.735271203E-1,1.578101524E0,1.601636395E0
1.230938237E1,-4.027658986E-2,-1.389616381E-2,2.130746434E0,2.131172370E0
1.231938137E1,-2.951787751E-2,-6.979718998E-2,2.391647442E0,2.392847768E0
1.232938037E1,-7.057992202E-2,1.374950834E-1,2.292831836E0,2.298034868E0
1.233937937E1,-4.993150321E-2,9.492117729E-2,2.407468253E0,2.409856132E0
1.234937837E1,-4.394191699E-3,-1.569921854E-1,2.471977660E0,2.476961729E0
1.235937737E1,-3.128334378E-2,1.047151173E-1,2.231864088E0,2.234538255E0
1.236937637E1,-3.253704163E-2,9.727851883E-2,2.295317488E0,2.297608352E0
1.237937537E1,-2.739445201E-2,-1.744188615E-1,2.692750397E0,2.698532396E0
1.238937437E1,-4.502363361E-2,1.436770521E-1,2.861454263E0,2.865412836E0
1.239937337E1,5.904664546E-3,6.977924634E-2,2.960694376E0,2.961522446E0
1.240937237E1,-1.738843163E-2,-4.489170581E-2,3.118918862E0,3.119290383E0
1.241937137E1,-1.675638417E-3,7.384810444E-2,3.127315464E0,3.128187712E0
1.242937038E1,7.833487401E-3,1.291444189E-1,2.945289887E0,2.948130282E0
1.243936938E1,6.264812831E-2,4.942486938E-2,2.962046252E0,2.963120924E0
1.244936838E1,8.152745375E-2,4.608311255E-2,2.926108680E0,2.927606939E0
1.245936738E1,7.356059502E-2,1.094530065E-1,2.731798688E0,2.734979925E0
1.246936638E1,-1.161439754E-3,-2.153858431E-3,2.767702931E0,2.767704012E0
1.247936538E1,-1.102105773E-1,3.705095507E-2,2.892391881E0,2.894727956E0
1.248936438E1,-1.090763453E-1,1.025413418E-1,2.879218689E0,2.883108155E0
1.249936338E1,-8.136213287E-2,1.953646112E-2,3.014236745E0,3.015397922E0
1.250936238E1,-5.362173582E-2,1.001394884E-1,3.239083237E0,3.241074424E0
1.251936138E1,3.816967361E-2,1.450764370E-1,3.182051834E0,3.185585970E0
1.252936038E1,6.984542951E-2,2.613265394E-1,3.154498000E0,3.166074474E0
1.253935838E1,2.944346256E-2,1.076166519E-1,3.210782713E0,3.212720637E0
1.254935738E1,4.006907766E-2,-1.897326462E-2,3.082809967E0,3.083128737E0
1.255935638E1,7.008701088E-3,2.036524181E-1,2.970114825E0,2.977096825E0
1.256935538E1,-2.765156505E-2,2.040317928E-1,3.091393095E0,3.098242219E0
1.257935438E1,-4.707465414E-3,6.127958748E-2,3.105652699E0,3.106260781E0
1.258935337E1,2.514229640E-2,8.000726905E-2,3.009894603E0,3.011062739E0
1.259935237E1,9.399540774E-2,2.093335363E-1,3.009777074E0,3.018511835E0
1.260935137E1,4.905714347E-2,2.861997177E-1,2.865043284E0,2.879720455E0
1.261935037E1,8.144147228E-2,1.403210792E-1,2.609669064E0,2.614707506E0
1.262934937E1,8.422011483E-2,3.472935464E-2,2.524796728E0,2.526439723E0
1.263934837E1,1.707323930E-2,2.620466240E-2,2.498441573E0,2.498637324E0
1.264934737E1,1.027342451E-1,1.162390292E-1,2.435245451E0,2.440181601E0
1.265934637E1,3.411281143E-2,2.083596460E-1,2.391788945E0,2.401089707E0
1.266934537E1,1.101551475E-2,1.604046936E-1,2.447122316E0,2.452398547E0
1.267934437E1,-2.941112014E-2,6.840474866E-2,2.329854067E0,2.331043585E0
1.268934337E1,-1.359035535E-1,-3.394213669E-2,2.234162629E0,2.238549641E0
1.269934237E1,-1.776790497E-1,-1.071608980E-1,2.234599416E0,2.244212078E0
1.270934137E1,-8.992233781E-2,1.113292319E-1,2.127259154E0,2.132067479E0
1.271934037E1,1.459645103E-1,7.051230446E-2,2.108817036E0,2.115038278E0
1.272933937E1,8.686009616E-2,-1.234280712E-1,2.035764263E0,2.041351341E0
1.273933837E1,6.917181199E-2,-1.126164598E-1,1.969312411E0,1.973742278E0
1.274933737E1,3.340427508E-2,4.031413995E-2,1.700192556E0,1.700998473E0
1.275933637E1,1.686168521E-1,-3.109092470E-2,1.293723360E0,1.305035793E0
1.276933537E1,2.593439130E-1,4.339542891E-1,1.189268115E0,1.292259355E0
1.277933437E1,-2.892481087E-1,-4.002679681E-1,1.222354585E0,1.318343524E0
1.278933337E1,-2.748124114E-1,-3.161581098E-1,9.343131405E-1,1.023923267E0
1.279933250E1,-1.000953053E-1,4.674384061E-1,8.116280311E-1,9.419436260E-1
1.280933150E1,2.059945386E-1,1.808120244E-1,9.598245424E-1,9.981933131E-1
1.281933050E1,2.514676587E-1,-5.631886454E-1,8.393374014E-1,1.041587590E0
1.282932950E1,3.275355306E-2,5.417898096E-1,4.736262220E-1,7.203685107E-1
1.283932850E1,-6.598828447E-1,-2.916281996E-1,4.206410927E-1,8.351235264E-1
1.284932750E1,-3.262269786E-1,-3.648609942E-1,2.295295268E-1,5.405843046E-1
1.285932650E1,2.105299863E-1,5.015841720E-1,-9.623347521E-2,5.524223371E-1
1.286932550E1,8.281980718E-2,-1.281710036E-1,1.857508385E-1,2.403961328E-1
1.287932350E1,-1.503679753E-1,-3.345724537E-1,-2.097045422E-2,3.674085120E-1
1.288932250E1,-6.969698332E-3,4.963263192E-1,-4.332681549E-1,6.588700068E-1
1.289932150E1,-3.371762919E-1,-3.253457301E-1,-2.292593855E-1,5.216297171E-1
1.290932050E1,-1.899779552E-1,-1.286460534E-2,-3.464381719E-1,3.953182622E-1
1.291931950E1,1.840395047E-1,2.867382097E-1,-7.073575580E-1,7.851395131E-1
1.292931850E1,1.295678212E-1,-2.347239739E-1,-6.328231001E-1,6.872759564E-1
1.293931750E1,-2.425132692E-4,1.303622843E-1,-6.782898796E-1,6.907036591E-1
1.294931650E1,-1.752328305E-3,-1.199739017E-2,-1.054286311E0,1.054356028E0
1.295931550E1,-8.063107559E-2,-3.239992260E-1,-1.142241883E0,1.190039238E0
1.296931450E1,-2.485991609E-1,-1.764172205E-1,-1.105606154E0,1.146860735E0
1.297931350E1,-2.750442900E-1,-2.572043985E-3,-1.447847194E0,1.473742676E0
1.298931250E1,-8.523457021E-2,1.511309364E-1,-1.699728287E0,1.708561308E0
1.299931150E1,1.195155530E-1,1.664632495E-1,-1.511413445E0,1.525242467E0
1.300931050E1,2.220768850E-1,2.442656066E-2,-1.658439344E0,1.673420406E0
1.301930950E1,1.941395099E-1,-1.387639657E-1,-1.929724422E0,1.944423291E0
1.302930850E1,8.289548295E-2,-4.248534268E-1,-1.861772175E0,1.911430806E0
1.303930750E1,2.275786216E-1,-2.549231073E-1,-2.039004790E0,2.067442466E0
1.304930650E1,2.320292115E-1,1.391863905E-1,-2.384840114E0,2.400140157E0
1.305930550E1,-8.719621056E-2,5.446717925E-2,-2.452432172E0,2.454586200E0
1.306930450E1,-3.994515506E-1,-3.139804970E-1,-2.554270204E0,2.604312110E0
1.307930350E1,-3.993437060E-1,-2.071143718E-1,-2.870308117E0,2.905346871E0
1.308930250E1,-3.899149977E-1,-2.622759079E-1,-2.916705188E0,2.954317436E0
1.309930150E1,-9.132545030E-2,-4.427954984E-1,-2.989100735E0,3.023099633E0
1.310930050E1,2.907930345E-1,-1.598715371E-1,-3.283492840E0,3.300218891E0
1.311929950E1,2.866184879E-1,5.127935037E-3,-3.560999941E0,3.572519703E0
1.312929850E1,7.901406465E-3,-1.249314269E-1,-3.811730887E0,3.813785868E0
1.313929750E1,-2.910473701E-1,-3.288540960E-1,-4.220220881E0,4.243008116E0
1.314929650E1,-3.880878159E-1,-3.162898914E-1,-4.539360741E0,4.566885962E0
1.315929550E1,-2.871021258E-1,-2.750524396E-1,-4.717642347E0,4.734366989E0
1.316929450E1,7.811150123E-2,-4.081061972E-1,-4.854742012E0,4.872491363E0
1.317929350E1,2.764846785E-1,-3.537339621E-1,-5.049486453E0,5.069406763E0
1.318929250E1,1.300014928E-1,1.794390981E-1,-5.314628447E0,5.319245652E0
1.319929150E1,6.465396082E-2,-3.240547745E-1,-5.374549543E0,5.384698174E0
1.320929050E1,-1.473564948E-1,-4.887021347E-1,-5.627998275E0,5.651097973E0
1.321928950E1,-4.008308722E-1,-1.350210533E-1,-5.737725955E0,5.753294291E0
1.322928750E1,-4.496823490E-1,-5.191412045E-1,-5.518690426E0,5.561264768E0
1.323928650E1,-2.951313579E-1,-2.486314667E-1,-5.298298343E0,5.312333334E0
1.324928550E1,-4.656760918E-2,-1.867387987E-1,-4.799478807E0,4.803336002E0
1.325928450E1,3.332450992E-1,-1.900052361E-1,-4.299177003E0,4.316257313E0
1.326928350E1,4.002831343E-1,3.040477222E-1,-4.227033471E0,4.256816131E0
1.327928250E1,3.590182188E-2,8.125583231E-3,-3.964957758E0,3.965128622E0
1.328928150E1,-2.560932996E-1,-5.458096607E-1,-3.619328840E0,3.669200624E0
1.329928050E1,-6.077783060E-1,-7.267310645E-2,-3.440437955E0,3.494465506E0
1.330927950E1,-3.601180618E-1,-2.868783967E-1,-3.017538083E0,3.052461354E0
1.331927850E1,5.696677258E-2,-1.692575973E-1,-2.547034274E0,2.553287477E0
1.332927750E1,3.690403282E-1,3.123341769E-1,-2.224931629E0,2.276854004E0
1.333927650E1,3.178223005E-1,1.802842766E-1,-1.934163043E0,1.968374993E0
1.334927550E1,6.146551981E-2,-1.828123934E-1,-1.644884913E0,1.656153603E0
1.335927450E1,-2.123890537E-1,-2.353348618E-1,-1.376991220E0,1.413009705E0
1.336927350E1,-4.405097122E-1,-1.141501114E-1,-1.244382216E0,1.324977794E0
1.337927250E1,-4.717790866E-1,-9.277473751E-2,-1.152302603E0,1.248592786E0
1.338927150E1,-1.375847376E-1,-1.568009449E-1,-9.272842026E-1,9.504588832E-1
1.339927050E1,1.683806612E-1,-9.685174517E-2,-6.756095159E-1,7.029797476E-1
1.340926950E1,2.771300284E-1,8.713984888E-2,-5.760214931E-1,6.451318984E-1
1.341926850E1,2.128425418E-1,-4.115581010E-2,-5.089112449E-1,5.531603777E-1
1.342926750E1,-8.499991413E-2,-9.179094348E-2,-5.040755975E-1,5.193676643E-1
1.343926650E1,-2.518325249E-1,-3.201400637E-1,-3.610205430E-1,5.442840375E-1
1.344926550E1,-4.082941121E-1,-3.595812143E-1,-3.282533312E-1,6.354155971E-1
1.345926450E1,-2.853166237E-2,-1.549546866E-1,-2.787332618E-1,3.201831381E-1
1.346926350E1,1.188093647E-1,3.551008949E-1,-3.698480844E-1,5.263078152E-1
1.347926250E1,1.583724572E-1,3.328782229E-1,-2.833806288E-1,4.649670174E-1
1.348926150E1,1.626182850E-1,-3.179224340E-1,6.697751641E-2,3.633254304E-1
1.349926050E1,7.028599894E-2,-3.258416105E-1,-3.572064042E-3,3.333551206E-1
1.350925950E1,2.505422272E-1,-4.623484779E-2,-1.136394668E-1,2.789677350E-1
1.351925850E1,5.939117437E-2,2.669796275E-1,-1.990304500E-1,3.382581161E-1
1.352925750E1,-2.741560431E-1,1.009182644E-1,-4.584977210E-1,5.436599969E-1
1.353925650E1,-3.463599654E-1,-2.118907430E-1,-5.438214612E-1,6.786786384E-1
1.354925550E1,-4.464496062E-1,-5.782497208E-1,-2.226017457E-1,7.637025125E-1
1.355925350E1,-3.208758261E-1,-1.075555120E-1,-1.181745672E-1,3.584615911E-1
1.356925250E1,3.325195328E-1,-1.738421433E-1,-1.622859621E-1,4.088117709E-1
1.357925150E1,1.193125743E0,6.102237943E-1,-8.412447631E-2,1.342757999E0
1.358925050E1,5.297155285E-2,6.511111441E-1,-3.558568668E-1,7.438990638E-1
1.359924950E1,-1.026552967E0,-5.376838947E-1,-4.679269409E-1,1.249748210E0
1.360924850E1,-7.220675446E-1,-9.931254588E-1,-4.807095391E-1,1.318621013E0
1.361924750E1,5.756330918E-1,4.238387522E-1,-1.052785331E-1,7.225484854E-1
1.362924650E1,8.734453797E-1,8.933025241E-1,-2.769603860E-1,1.279688746E0
1.363924550E1,-2.998464246E-1,-6.301760656E-1,-2.139010888E-1,7.299201517E-1
1.364924450E1,-8.996542814E-1,-3.257459720E-1,-2.278139538E-1,9.835585706E-1
1.365924350E1,-5.487856742E-1,-1.004769092E-1,-1.919705218E-1,5.900118700E-1
1.366924250E1,1.811672975E-1,-1.527865390E-1,-1.817454958E-1,2.986582352E-1
1.367924150E1,6.472830451E-1,2.581679466E-1,9.768299997E-2,7.036817446E-1
1.368924050E1,3.099080575E-1,5.737948734E-1,4.023644507E-2,6.533777868E-1
1.369923950E1,-1.313472843E-2,-2.192545802E-1,1.283381975E-1,2.543929735E-1
1.370923850E1,-5.983333351E-2,-5.497494415E-1,2.845845705E-1,6.219267272E-1
1.371923750E1,-2.958067661E-1,2.848286918E-1,2.100284779E-1,4.612385370E-1
1.372923650E1,-1.696925205E-1,-1.487922695E-2,3.211080337E-1,3.634932079E-1
1.373923550E1,-3.659001175E-2,-1.287625591E-1,3.419194436E-1,3.671886865E-1
1.374923450E1,-2.764870539E-1,2.262059329E-1,2.619985306E-1,4.430095316E-1
1.375923350E1,9.095848270E-2,-2.954520228E-1,4.732549238E-1,5.652747706E-1
1.376923250E1,2.262939883E-1,-1.322727889E-2,2.876625448E-1,3.662426378E-1
1.377923150E1,1.473457048E-1,6.003890334E-1,-2.036585212E-3,6.182086184E-1
1.378923050E1,1.013202056E-1,1.444603963E-1,2.023089838E-1,2.684464846E-1
1.379922950E1,3.103765109E-2,-3.398408315E-1,4.201937807E-1,5.413113151E-1
1.380922858E1,-2.736681478E-1,8.178197209E-2,4.248008019E-1,5.118967351E-1
1.381922758E1,-2.853663615E-1,1.203901503E-2,4.275887543E-1,5.142091413E-1
1.382922658E1,-1.720194200E-1,-1.923178099E-1,4.784262013E-1,5.435700976E-1
1.383922558E1,5.668699245E-2,5.790234536E-2,5.065390295E-1,5.129794198E-1
1.384922458E1,1.629476842E-1,1.242420402E-1,4.401795638E-1,4.855368994E-1
1.385922358E1,1.398243857E-1,1.313178655E-2,2.848962271E-1,3.176305446E-1
1.386922258E1,2.807009778E-2,-4.342317760E-2,2.870924413E-1,2.917114544E-1
1.387922058E1,-1.630010218E-1,-1.412630657E-1,4.387037265E-1,4.888614799E-1
1.388921958E1,-3.024294322E-1,-8.689638544E-2,3.239053416E-1,4.515852229E-1
1.389921858E1,-1.748067512E-1,4.235262550E-2,2.784157580E-1,3.314611281E-1
1.390921758E1,5.076841336E-2,6.307756975E-3,5.401038015E-1,5.425212770E-1
1.391921658E1,-7.140395916E-2,-6.886013713E-2,6.223361188E-1,6.301924219E-1
1.392921558E1,1.276437127E-1,-1.577255359E-1,5.245040148E-1,5.623830755E-1
1.393921458E1,1.475126429E-2,2.142620813E-2,5.637680680E-1,5.643678912E-1
1.394921358E1,-6.766015143E-2,5.317395788E-2,6.730800104E-1,6.785588157E-1
1.395921258E1,-1.599443715E-1,-1.649140663E-1,6.153428489E-1,6.568300183E-1
1.396921158E1,-1.568216294E-1,-1.322457455E-1,6.737629652E-1,7.043000028E-1
1.397921058E1,-1.057317928E-1,-4.852615234E-2,9.323215789E-1,9.395517686E-1
1.398920958E1,1.181261358E-1,9.108935069E-2,1.053432618E0,1.063941415E0
1.399920858E1,3.356670159E-1,2.170646518E-1,1.082433638E0,1.153885605E0
1.400920758E1,4.209104483E-2,1.739443599E-1,1.135645055E0,1.149659944E0
1.401920658E1,-1.272241750E-1,-1.048415634E-1,1.130643346E0,1.142598845E0
1.402920558E1,-1.896558649E-1,-2.082182896E-1,9.662512171E-1,1.006461931E0
1.403920458E1,-9.042072158E-2,8.773195256E-2,9.205651671E-1,9.291463982E-1
1.404920358E1,6.406770436E-2,7.407775383E-2,1.007066537E0,1.011817767E0
1.405920258E1,1.932761685E-1,1.932190485E-2,1.042084342E0,1.060032447E0
1.406920158E1,1.220859708E-1,2.397819982E-1,1.070222313E0,1.103528971E0
1.407920058E1,-8.823455729E-2,-5.089197233E-3,1.273068071E0,1.276132262E0
1.408919958E1,-1.859170822E-1,-6.806217492E-2,1.495246478E0,1.508296938E0
1.409919858E1,-2.813883363E-1,2.474366248E-2,1.587955252E0,1.612883606E0
1.410919758E1,1.595893724E-1,5.828120839E-2,1.697703397E0,1.706183545E0
1.411919658E1,4.568199355E-1,3.191464390E-1,1.712205076E0,1.800606877E0
1.412919558E1,1.876293662E-1,5.115565983E-1,1.725011063E0,1.809021310E0
1.413919458E1,6.081457852E-2,1.738512430E-2,1.922836402E0,1.923876421E0
1.414919358E1,-1.430876893E-1,-2.607830772E-1,1.981784522E0,2.003983980E0
1.415919258E1,-2.194363190E-1,1.118409729E-1,2.075496093E0,2.090058548E0
1.416919158E1,-1.956383340E-1,1.668598369E-1,2.270858585E0,2.285369833E0
1.417919058E1,5.164700319E-2,8.650842268E-2,2.485981742E0,2.488022576E0
1.418918958E1,1.007959023E-1,2.238657676E-2,2.663231898E0,2.665232657E0
1.419918858E1,6.444263879E-2,6.669432845E-2,2.931948295E0,2.933414698E0
1.420918658E1,-8.344689365E-3,8.018615730E-3,3.046182423E0,3.046204407E0
1.421918558E1,3.544805054E-2,-5.107553836E-2,3.094113804E0,3.094738359E0
1.422918458E1,1.115227199E-1,-8.865281593E-2,3.147455614E0,3.150678257E0
1.423918358E1,-3.383487683E-2,-3.406686511E-1,3.056678175E0,3.075789557E0
1.424918258E1,-1.685907589E-2,-6.733543910E-3,2.958112831E0,2.958168536E0
1.425918158E1,-1.113317169E-1,4.031287914E-1,2.820179352E0,2.851020721E0
1.426918058E1,-1.791664717E-1,-2.114758465E-1,3.030453998E0,3.043102708E0
1.427917958E1,-1.450548206E-1,-3.023661361E-1,3.112311509E0,3.130327316E0
1.428917858E1,1.504967511E-1,6.299545292E-2,3.040640432E0,3.045014275E0
1.429917758E1,8.612528387E-2,6.302631160E-1,2.962144486E0,3.029678055E0
1.430917658E1,-3.683835397E-2,1.678726478E-1,3.033886313E0,3.038750476E0
1.431917558E1,-9.792682886E-2,-1.374748374E-1,3.142892447E0,3.147421472E0
1.432917458E1,-4.441731390E-2,2.272670198E-2,3.221663212E0,3.222049542E0
1.433917358E1,8.717268465E-2,-5.147311248E-2,3.235021176E0,3.236604790E0
1.434917258E1,1.202442440E-1,-1.228502201E-1,3.335779227E0,3.340205668E0
1.435917158E1,1.412189192E-1,1.999013197E-1,3.400166427E0,3.408963926E0
1.436917058E1,6.407464793E-2,3.174231914E-1,3.200622007E0,3.216961963E0
1.437916958E1,-4.461622155E-1,-2.343433202E-1,3.285923527E0,3.324345190E0
1.438916858E1,-2.948079520E-1,1.969769809E-1,3.187904897E0,3.207561269E0
1.439916758E1,1.804190367E-2,6.360815341E-1,3.014299310E0,3.080734581E0
1.440916658E1,2.449884687E-2,-3.008504647E-1,3.238786198E0,3.252821427E0
1.441916558E1,1.472543147E-1,-1.887362441E-1,3.064240379E0,3.073576793E0
1.442916458E1,2.114030852E-1,7.441828837E-1,2.665429282E0,2.775430180E0
1.443916358E1,1.434036126E-1,4.570047441E-1,2.586439830E0,2.630416113E0
1.444916258E1,4.714605412E-2,1.497362293E-2,2.638098811E0,2.638562543E0
1.445916158E1,7.544992176E-2,-5.591293987E-2,2.466264346E0,2.468051614E0
1.446916058E1,-7.319049368E-2,1.787851601E-1,2.303236372E0,2.311324029E0
1.447915958E1,-1.809776285E-2,3.684912381E-1,2.249889885E0,2.279938116E0
1.448915858E1,2.757817335E-2,5.773329505E-1,1.924905147E0,2.009809373E0
1.449915758E1,-1.584093860E-2,-2.660420995E-2,2.092600368E0,2.092829429E0
1.450915558E1,-2.787508400E-1,-8.209952706E-1,1.965393607E0,2.148140427E0
1.451915458E1,-1.357999025E-1,4.261610470E-1,1.484597529E0,1.550511101E0
1.452915358E1,1.154964785E-1,1.082416096E-1,1.604959540E0,1.612746355E0
1.453915258E1,2.429259730E-1,-3.058424519E-1,1.368943112E0,1.423572224E0
1.454915158E1,-1.411419187E-2,1.040851164E-1,1.002831398E0,1.008317279E0
1.455915058E1,-6.057487009E-2,-3.891768598E-1,9.695075315E-1,1.046457260E0
1.456914958E1,3.859502200E-1,-5.585377336E-2,5.000416034E-1,6.341283951E-1
1.457914858E1,3.188939124E-1,3.898777217E-3,4.394281965E-1,5.429600977E-1
1.458914758E1,-8.566993196E-3,3.018648835E-1,3.993958193E-1,5.007123143E-1
1.459914658E1,-7.218352640E-1,-9.300795371E-1,2.477026731E-1,1.203100456E0
1.460914558E1,-3.053170248E-2,5.618140381E-1,-5.565379858E-2,5.653888428E-1
1.461914458E1,1.722123781E-1,1.344929401E-1,-2.842799306E-2,2.203488255E-1
1.462914358E1,3.147484557E-1,-4.622191448E-1,6.542917371E-2,5.630222953E-1
1.463914258E1,1.202053326E-1,5.793367547E-1,-4.033181316E-1,7.160627854E-1
1.464914158E1,-4.357177728E-1,-2.827251925E-1,-3.485928708E-1,6.255401678E-1
1.465914058E1,-5.303686625E-1,2.358182073E-3,-4.791190964E-1,7.147388248E-1
1.466913958E1,-1.702237766E-1,2.102439478E-1,-7.168715626E-1,7.662137358E-1
1.467913858E1,-5.624782087E-2,-2.012063086E-1,-6.988007426E-1,7.293629233E-1
1.468913758E1,8.537607282E-2,2.611363587E-1,-9.553905988E-1,9.941088813E-1
1.469913658E1,2.646513941E-1,1.818326559E-1,-9.953966635E-1,1.045905346E0
1.470913558E1,9.877335951E-2,-9.393475201E-2,-1.161432445E0,1.169403796E0
1.471913458E1,-4.094073489E-1,-2.683265336E-1,-1.276787485E0,1.367406226E0
1.472913358E1,-5.157848296E-1,1.492694388E-1,-1.519509500E0,1.611590666E0
1.473913258E1,-2.684317835E-1,-1.102571083E-1,-1.544840223E0,1.571859907E0
1.474913158E1,2.453562037E-2,-2.976163697E-1,-1.558012245E0,1.586373114E0
1.475913058E1,3.209815511E-1,-5.469503794E-2,-1.746935783E0,1.777021478E0
1.476912958E1,1.547342283E-1,-2.846468434E-1,-1.882269589E0,1.909949034E0
1.477912858E1,-2.646624490E-1,-5.126485658E-1,-2.053832744E0,2.133326910E0
1.478912758E1,-1.642156346E-1,-3.364148382E-1,-2.181426006E0,2.213314514E0
1.479912658E1,3.766144093E-1,2.804572403E-1,-2.357781538E0,2.404085785E0
1.480912533E1,4.515920679E-2,3.006995700E-1,-2.572266179E0,2.590176226E0
1.481912333E1,-2.943975871E-1,-1.010104677E-1,-2.655944513E0,2.674119352E0
1.482912233E1,-2.938579987E-1,-1.565719533E-1,-3.035929915E0,3.054134534E0
1.483912133E1,-3.461649607E-1,-6.017830096E-1,-2.867337731E0,2.950186203E0
1.484912033E1,-2.455958847E-1,-7.128922400E-1,-3.201133053E0,3.288736157E0
1.485911933E1,4.617340635E-2,-4.374456250E-1,-3.403022792E0,3.431334256E0
1.486911833E1,1.292163670E-1,-4.308820158E-1,-3.481769584E0,3.510708706E0
1.487911733E1,2.720551203E-1,-2.947465928E-1,-3.809679683E0,3.830737375E0
1.488911633E1,-4.425653374E-1,-3.721848511E-1,-4.544561840E0,4.581203767E0
1.489911533E1,1.922814840E-2,-1.110492087E0,-4.458096723E0,4.594364895E0
1.490911433E1,-6.645517733E-2,4.423587114E-1,-5.123643765E0,5.143133574E0
1.491911333E1,-2.798379105E-1,1.806939472E-1,-4.895061488E0,4.906382224E0
1.492911233E1,6.253905581E-1,-7.779482882E-2,-5.436371570E0,5.472778200E0
1.493911133E1,5.774095855E-1,3.460394283E-1,-5.490845400E0,5.531955199E0
1.494911033E1,-7.836345593E-1,-3.706089168E-1,-5.899697921E0,5.963041980E0
1.495910933E1,-3.446098937E-1,-8.956286927E-1,-5.594990158E0,5.676691079E0
1.496910833E1,-3.708578986E-1,-4.867792413E-1,-5.412338344E0,5.446824392E0
1.497910733E1,5.370888675E-1,5.249975564E-1,-5.017488735E0,5.073389408E0
1.498910633E1,1.204967597E0,5.458130229E-1,-4.941916396E0,5.115896444E0
1.499910533E1,4.523313752E-2,-2.245456526E-1,-4.583615978E0,4.589335706E0
1.500910433E1,-1.197374110E0,1.478815656E-2,-4.657744054E0,4.809210239E0
1.501910333E1,-6.837008929E-1,-3.563556343E-2,-4.489234900E0,4.541139372E0
1.502910233E1,6.941555683E-1,-4.562604301E-1,-3.765453683E0,3.855991049E0
1.503910133E1,-1.675292335E-1,2.539750544E-1,-3.491253183E0,3.504485434E0
1.504910033E1,5.647113883E-2,8.597577788E-2,-3.256675170E0,3.258299248E0
1.505909933E1,1.425724034E-1,-2.711245359E-1,-3.133460303E0,3.148397827E0
1.506909833E1,-2.681301768E-1,-8.232401629E-1,-2.608325374E0,2.748268439E0
1.507909733E1,-1.144435466E0,2.044870716E-1,-2.815937197E0,3.046481544E0
1.508909633E1,-5.873722908E-1,3.371104742E-1,-2.920586570E0,2.998078650E0
1.509909533E1,2.119125239E-1,-7.205007101E-1,-2.330018374E0,2.448063278E0
1.510909333E1,1.077313231E0,-2.074474804E-1,-2.049565446E0,2.324727247E0
1.511909233E1,-2.832456678E-1,-4.093010392E-1,-2.154814158E0,2.211555901E0
1.512909133E1,-5.544932145E-1,3.473314071E-1,-1.983161541E0,2.088308294E0
1.513909033E1,-1.405655111E-2,2.184051260E-1,-1.391995760E0,1.409095660E0
1.514908933E1,4.504751949E-1,-5.294386994E-2,-1.273962695E0,1.352298748E0
1.515908833E1,-1.444481263E-1,-5.922280745E-1,-1.219200012E0,1.363102352E0
1.516908733E1,-1.092844240E-1,-2.136648248E-1,-1.304977496E0,1.326861714E0
1.517908633E1,3.396325245E-1,-3.421000860E-1,-1.080492362E0,1.183151075E0
1.518908533E1,1.253039859E-1,-3.172526355E-1,-7.827457094E-1,8.538390769E-1
1.519908433E1,-6.434401819E-1,-2.922146022E-4,-1.103159094E0,1.277096449E0
1.520908333E1,-1.118943945E0,-3.059345456E-1,-1.183583452E0,1.657257157E0
1.521908233E1,-3.226495790E-1,2.605729429E-1,-5.350898141E-1,6.769949176E-1
1.522908133E1,4.194834170E-1,-6.813045578E-1,3.388169110E-2,8.008059731E-1
1.523908033E1,-1.511681211E-1,-2.538862133E-1,-3.278030956E-1,4.413217416E-1
1.524907933E1,3.984259855E-1,-3.856059652E-1,-2.540814006E-1,6.099119481E-1
1.525907833E1,2.929785410E-1,2.894974011E-1,-1.875178671E-1,4.525573126E-1
1.526907733E1,3.061883696E-1,3.773287198E-1,-2.920035177E-1,5.669165149E-1
1.527907633E1,2.780552041E-3,1.912741184E-2,-4.508899087E-1,4.513039985E-1
1.528907533E1,3.965739165E-1,-6.851979263E-2,1.084120560E-1,4.167961217E-1
1.529907433E1,-1.015759300E-1,-1.600834621E-1,3.078909874E-1,3.615815876E-1
1.530907333E1,-6.282885844E-1,3.661135409E-2,-9.559905231E-2,6.365737312E-1
1.531907233E1,-6.770349209E-1,5.235398821E-1,-6.096365511E-2,8.580133213E-1
1.532907133E1,-1.489564849E-1,7.122573785E-1,3.527309453E-1,8.086517962E-1
1.533907033E1,1.023474847E0,6.364876963E-3,4.001512796E-1,1.098936905E0
1.534906933E1,6.612567942E-1,-7.967253788E-1,4.164667654E-1,1.116009159E0
1.535906833E1,-3.191650404E-1,4.838284804E-1,3.485841000E-1,6.763632133E-1
1.536906733E1,-6.078978816E-1,6.545259912E-1,6.400596142E-2,8.955673457E-1
1.537906633E1,-1.238188297E-1,-3.193754306E-1,3.117320234E-1,4.631507558E-1
1.538906533E1,-1.869384446E-1,-5.471938063E-1,7.582090384E-1,9.535449594E-1
1.539906333E1,1.490077028E-1,1.709034058E-1,4.819041252E-1,5.325813135E-1
1.540906233E1,8.411585898E-1,6.879711145E-1,1.885247576E-1,1.102902358E0
1.541906133E1,5.266872190E-2,2.140082391E-1,3.014409238E-1,3.734168598E-1
1.542906033E1,-2.659509195E-1,-3.846305034E-1,5.898080581E-1,7.526912124E-1
1.543905933E1,-3.089683369E-1,-3.106294212E-1,5.227977973E-1,6.821067419E-1
1.544905833E1,4.264591819E-2,-6.084221575E-1,9.041824383E-1,1.090661303E0
1.545905733E1,-2.156914697E-1,-2.638272473E-1,1.091572251E0,1.143528577E0
1.546905633E1,4.147298500E-2,2.387664830E-1,9.044683671E-1,9.363719715E-1
1.547905533E1,1.888930226E-1,1.063245634E-1,7.630961412E-1,7.932850733E-1
1.548905433E1,-3.086163345E-1,-2.739387277E-1,6.787781221E-1,7.943715802E-1
1.549905333E1,-5.044534373E-1,-2.608716260E-1,4.172204715E-1,7.046986572E-1
1.550905233E1,7.407848474E-2,-2.694711260E-1,5.122131675E-1,5.834934778E-1
1.551905133E1,2.482627267E-2,1.319848866E-1,6.580877495E-1,6.716515764E-1
1.552905033E1,5.916163461E-2,1.612332440E-1,8.567533332E-1,8.737977638E-1
1.553904933E1,1.728618759E-1,-3.606220552E-1,8.795364243E-1,9.661851875E-1
1.554904833E1,-1.047001887E-1,-1.136683008E-1,6.863508511E-1,7.035340097E-1
1.555904733E1,-7.271465823E-2,-1.619963787E-2,9.120598072E-1,9.150972307E-1
1.556904633E1,-1.280969085E-1,-1.642016561E-1,6.024865758E-1,6.374645684E-1
1.557904533E1,6.172534632E-2,2.343306391E-1,3.490091926E-1,4.248862004E-1
1.558904433E1,9.564383833E-2,1.026510137E-1,5.838380510E-1,6.004596940E-1
1.559904333E1,-5.096696287E-2,-1.709667750E-1,7.495364481E-1,7.704752796E-1
1.560904233E1,-3.274310665E-1,2.841448965E-1,3.707889014E-1,5.704680840E-1
1.561904133E1,-2.543915954E-1,2.266854411E-1,4.467933494E-1,5.618947144E-1
1.562904033E1,-4.526640270E-2,9.447868925E-2,6.843277144E-1,6.923002894E-1
1.563903933E1,9.507210854E-2,3.086050786E-1,6.061562884E-1,6.868051007E-1
1.564903833E1,1.554437331E-1,3.161596081E-1,5.845537502E-1,6.825120796E-1
1.565903733E1,-2.596679036E-2,2.027731796E-1,7.035416651E-1,7.326405060E-1
1.566903633E1,-3.710295875E-2,-9.614185665E-2,7.805243522E-1,7.872980062E-1
1.567903533E1,-1.297459786E-1,3.340953574E-1,4.979254961E-1,6.135010403E-1
1.568903433E1,1.748166183E-1,9.795613803E-2,7.789572984E-1,8.043200406E-1
1.569903233E1,1.816519769E-3,2.520431343E-2,1.073784437E0,1.074081735E0
1.570903133E1,5.261236022E-2,-1.463441133E-2,7.962089235E-1,7.980794924E-1
1.571903033E1,-1.353678572E-1,5.847201034E-2,6.103569281E-1,6.279164056E-1
1.572902933E1,-4.142438733E-1,-3.264939040E-2,7.392681527E-1,8.480456184E-1
1.573902833E1,5.121867637E-2,-2.509574526E-1,8.011334485E-1,8.410813267E-1
1.574902733E1,3.541304033E-1,1.295339531E-1,6.915268064E-1,7.876526591E-1
1.575902633E1,3.790646485E-1,1.009830223E-1,8.939960039E-1,9.762768221E-1
1.576902533E1,8.957957220E-2,5.416827690E-2,9.391090268E-1,9.449256406E-1
1.577902433E1,-2.104009821E-1,-6.225998282E-2,6.767432910E-1,7.114255834E-1
1.578902333E1,-4.262819381E-1,-2.226835337E-1,6.319267219E-1,7.941257009E-1
1.579902233E1,-2.952554467E-1,-4.307269549E-1,8.865437275E-1,1.028912664E0
1.580902112E1,2.463158780E-1,-4.515986643E-1,8.970511740E-1,1.034076242E0
1.581902012E1,3.598198538E-1,2.341378637E-2,7.707267576E-1,8.509043821E-1
1.582901912E1,8.656548785E-2,-4.100794863E-2,8.822565490E-1,8.874411833E-1
1.583901812E1,-2.951339708E-1,1.222888143E-1,9.523436147E-1,1.004498370E0
1.584901712E1,-2.228431626E-1,-1.747076043E-1,9.131643462E-1,9.560601160E-1
1.585901612E1,-1.780946771E-1,-2.853665260E-1,9.401849145E-1,9.985486676E-1
1.586901512E1,-1.644177473E-1,-5.385253822E-1,1.222917672E0,1.346317353E0
1.587901412E1,3.205041625E-3,-4.216573387E-2,1.099812148E0,1.100624814E0
1.588901312E1,1.448156146E-1,4.670552307E-1,9.957703006E-1,1.109355958E0
1.589901212E1,2.601801927E-1,2.710094554E-1,1.355842425E0,1.406928761E0
1.590901112E1,4.363430594E-1,-1.611738948E-1,1.559617891E0,1.627507375E0
1.591901012E1,-5.526995628E-2,1.278282837E-1,1.414623899E0,1.421462492E0
1.592900912E1,-4.504903246E-1,-6.123164032E-2,1.497338027E0,1.564836098E0
1.593900812E1,-4.145547259E-1,-1.063999925E-1,1.685793788E0,1.739274928E0
1.594900712E1,-2.183052117E-1,7.113517910E-2,1.710676029E0,1.726015601E0
