"Time (s)","Linear Acceleration x (m/s^2)","Linear Acceleration y (m/s^2)","Linear Acceleration z (m/s^2)","Absolute acceleration (m/s^2)"
5.272499984E-3,6.318172328E-3,-2.888135327E-2,-4.254434109E-2,5.180803825E-2
1.527149999E-2,8.383408897E-3,-2.511936435E-2,-4.596730113E-2,5.304956912E-2
2.526949998E-2,3.333461098E-3,-8.255866505E-3,-3.290812969E-3,9.492141204E-3
3.526849998E-2,2.054419219E-3,-2.568535656E-3,1.738435686E-2,1.769276341E-2
4.526649998E-2,3.272284605E-3,5.228306148E-3,7.846963406E-4,6.217618520E-3
5.526549998E-2,1.113766674E-2,1.008865798E-2,-1.911337852E-2,2.431357396E-2
6.526449998E-2,1.947992586E-2,1.075028870E-2,-3.048562825E-2,3.774135329E-2
7.526249997E-2,3.776413266E-2,-5.515916068E-3,-4.558898628E-2,5.945511513E-2
8.526149997E-2,2.523548640E-2,-1.191768531E-2,-3.359751642E-2,4.367669981E-2
9.525949997E-2,1.131567791E-2,-9.820837229E-3,-1.397367597E-2,2.048797283E-2
1.052585000E-1,-3.299181797E-3,-1.770701353E-3,-9.172527194E-3,9.907332584E-3
1.152565000E-1,-2.094231449E-2,3.740737941E-3,8.948578835E-3,2.307922702E-2
1.252555000E-1,-3.005001068E-2,1.147053776E-2,1.539513409E-2,3.565931200E-2
1.352535000E-1,-2.246043440E-2,7.941249758E-4,2.677440047E-3,2.263339199E-2
1.452525000E-1,-1.209149379E-2,2.005503606E-3,1.331995726E-3,1.232884745E-2
1.552515000E-1,-7.187068574E-3,-2.771397494E-3,-1.797960341E-2,1.956018245E-2
1.652495000E-1,-9.660660066E-3,-6.053074189E-3,-3.535518944E-2,3.714777895E-2
1.752485000E-1,6.690676510E-4,-1.146184003E-2,-5.347512603E-2,5.469378879E-2
1.852465000E-1,1.302982572E-2,-1.687716572E-2,-5.003228545E-2,5.438607054E-2
1.952455000E-1,1.357694238E-2,5.067672171E-3,-2.637562037E-2,3.009465094E-2
2.052434999E-1,1.865937877E-2,1.984144824E-2,-4.373717308E-3,2.758595453E-2
2.152425000E-1,2.356921267E-2,1.887461113E-2,1.044312716E-2,3.195023687E-2
2.252404999E-1,3.178418521E-2,2.057395818E-2,5.950711370E-3,3.832666370E-2
2.352394999E-1,3.109823372E-2,1.224882044E-3,-2.054302275E-2,3.729096754E-2
2.452384999E-1,2.845002975E-2,-1.666003302E-2,-5.048719883E-2,6.029857493E-2
2.552364999E-1,2.565630320E-2,-2.796597166E-2,-7.967532992E-2,8.825247681E-2
2.652354999E-1,1.932354938E-2,-3.785392396E-2,-7.697800934E-2,8.793141101E-2
2.752334999E-1,1.648549363E-4,-2.065137897E-2,-2.832917511E-2,3.505779219E-2
2.852324999E-1,1.972229294E-3,-2.158225570E-3,1.703352392E-2,1.728260869E-2
2.952304999E-1,4.014113545E-4,3.495995421E-3,1.943029761E-2,1.974638145E-2
3.052294999E-1,-1.464837156E-3,1.699529774E-2,2.437119484E-2,2.974795844E-2
3.152274999E-1,2.162994705E-3,1.589368232E-2,1.075712264E-2,1.931329519E-2
3.252264999E-1,4.987236410E-3,-1.658836808E-3,-1.977996111E-2,2.046634134E-2
3.352254999E-1,-2.525448985E-3,-1.512181330E-2,-3.475760400E-2,3.798865839E-2
3.452234999E-1,-4.348208830E-3,-3.257580684E-2,-3.999904811E-2,5.176885127E-2
3.552224999E-1,-1.085177444E-2,-3.783671122E-2,-4.539368927E-2,6.008298220E-2
3.652204999E-1,-2.413102046E-2,-2.622750308E-2,-2.534183264E-2,4.373095640E-2
3.752194999E-1,-2.089469623E-2,6.769065745E-4,-2.863732338E-2,3.545620994E-2
3.852174999E-1,-3.844763562E-3,4.433157910E-3,-2.804441571E-2,2.865177741E-2
3.952164999E-1,9.007928073E-3,2.446365394E-3,-2.625575244E-2,2.786560619E-2
4.052144999E-1,3.002457529E-2,-6.208774578E-3,-2.910217702E-2,4.227245806E-2
4.152134999E-1,4.758179046E-2,-1.145111404E-2,-3.014532030E-2,5.747951924E-2
4.252124999E-1,6.927737251E-2,-1.879806742E-2,-1.592547655E-2,7.352783476E-2
4.352104999E-1,7.170330919E-2,-2.009578384E-3,-1.127635539E-2,7.261238975E-2
4.452094999E-1,6.363919482E-2,4.723526984E-3,-7.516011000E-3,6.425534410E-2
4.552074999E-1,4.346224431E-2,1.809614573E-2,-7.613074780E-4,4.708520744E-2
4.652064999E-1,1.423957810E-2,2.654475108E-2,-1.046943963E-2,3.189041487E-2
4.752044999E-1,-3.455412090E-3,1.101366922E-2,-1.689319074E-2,2.046022179E-2
4.852034999E-1,-4.812104993E-2,-6.772044171E-3,-2.601250827E-2,5.511938511E-2
4.952014999E-1,-7.405089319E-2,-1.089818671E-2,-4.590649009E-2,8.780496050E-2
5.052004999E-1,-8.292163096E-2,4.738199841E-3,-4.395410478E-2,9.397026523E-2
5.151994999E-1,-7.170140885E-2,1.274099154E-2,-1.627046227E-2,7.462005655E-2
5.251974999E-1,-5.180943701E-2,2.498778373E-2,1.424849510E-2,5.925898001E-2
5.351964999E-1,-1.586225353E-2,2.913802776E-2,2.875017464E-2,4.389998054E-2
5.451944999E-1,1.374092024E-2,4.378771495E-2,2.588737786E-2,5.269092144E-2
5.551934999E-1,5.919077933E-2,4.869486278E-2,4.144272566E-2,8.713344667E-2
5.651914999E-1,7.168989714E-2,3.493208857E-2,5.415749609E-2,9.639878914E-2
5.751904999E-1,6.386895385E-2,2.779744394E-2,3.110777199E-2,7.628652983E-2
5.851884999E-1,4.073554147E-2,1.774112837E-2,-7.308668733E-2,8.553242566E-2
5.951874999E-1,6.840986498E-3,2.570856269E-3,-2.015219486E-1,2.016544176E-1
6.051864999E-1,-2.077607084E-2,1.728204885E-2,-2.702337492E-1,2.715816516E-1
6.151844999E-1,-4.593448363E-2,4.457844123E-2,-2.016798234E-1,2.115938689E-1
6.251831665E-1,-6.419687301E-2,6.391401395E-2,-1.727384448E-2,9.222052584E-2
6.351811665E-1,-4.015096609E-2,6.421061397E-2,1.340345550E-1,1.539492285E-1
6.451801665E-1,1.873118989E-3,4.633244148E-2,2.119943118E-1,2.170064330E-1
6.551781665E-1,6.543955252E-2,1.022826025E-2,1.646564233E-1,1.774787032E-1
6.651771665E-1,1.344502189E-1,-5.587085819E-2,-5.810553610E-2,1.567630935E-1
6.751751665E-1,1.567956093E-1,-6.974664811E-2,-2.441744632E-1,2.984470246E-1
6.851741665E-1,1.431007725E-1,-7.331032505E-2,-2.487961024E-1,2.962291941E-1
6.951731665E-1,7.820267212E-2,-7.628834853E-2,-1.091113830E-1,1.544048702E-1
7.051711665E-1,-6.429707967E-3,-7.198653370E-3,7.114716589E-2,7.179889254E-2
7.151701665E-1,-9.165704224E-2,5.576781929E-3,2.199646515E-1,2.383622491E-1
7.251681664E-1,-1.497471929E-1,4.199854005E-2,2.204224885E-1,2.697668856E-1
7.351671665E-1,-1.501092451E-1,6.435323121E-2,1.067982244E-1,1.951409352E-1
7.451651667E-1,-1.196183544E-1,-2.356416944E-2,-4.096091509E-2,1.286142191E-1
7.551641667E-1,-7.748192970E-2,-7.244861905E-2,-1.617988890E-1,1.934712700E-1
7.651621667E-1,-2.604649521E-2,-9.484863527E-2,-2.142355496E-1,2.357361963E-1
7.751611667E-1,2.199612893E-2,-1.639734868E-1,-1.403273284E-1,2.169398377E-1
7.851601667E-1,5.302065119E-2,-1.357559844E-1,5.445511937E-3,1.458441989E-1
7.951581667E-1,7.503925536E-2,-4.817759433E-2,1.138002652E-1,1.445768681E-1
8.051571667E-1,9.695176911E-2,-1.797327197E-2,1.311577249E-1,1.640884908E-1
8.151551667E-1,1.260498165E-1,4.171518764E-2,4.552875996E-2,1.403623208E-1
8.251541667E-1,1.378559662E-1,6.517788962E-2,-6.224010229E-2,1.647005010E-1
8.351521667E-1,1.303892911E-1,7.891731150E-3,-1.447010458E-1,1.949411175E-1
8.451511667E-1,1.090320070E-1,-1.093221020E-2,-2.049992877E-1,2.324482733E-1
8.551491667E-1,5.029756632E-2,-2.778428771E-2,-1.197977543E-1,1.328657734E-1
8.651481667E-1,-2.373786829E-3,-4.256060366E-2,-1.567053795E-4,4.262703842E-2
8.751461667E-1,-5.072455924E-2,-9.098450281E-4,6.289382100E-2,8.080495930E-2
8.851451667E-1,-7.007767361E-2,2.001971522E-2,8.746557534E-2,1.138503237E-1
8.951441667E-1,-7.630305793E-2,3.142763296E-2,5.873235762E-2,1.012884129E-1
9.051421667E-1,-7.033557236E-2,2.909684144E-2,-1.490396798E-2,7.756189259E-2
9.151411667E-1,-7.082805410E-2,2.133162942E-2,-5.472175241E-2,9.201153106E-2
9.251391666E-1,-6.731362168E-2,1.486698434E-2,-7.314165115E-2,1.005079699E-1
9.351381666E-1,-6.225157745E-2,8.864214476E-3,-6.747686863E-2,9.223318814E-2
9.451361666E-1,-3.283869401E-2,1.264747264E-2,-1.929639637E-2,4.013339384E-2
9.551351666E-1,-1.120300937E-2,4.080907021E-2,9.425126910E-3,4.335574527E-2
9.651331666E-1,2.221960220E-2,5.212675810E-2,1.359477639E-2,5.827287171E-2
9.751321666E-1,4.793357357E-2,6.488154542E-2,-1.636460245E-2,8.231064709E-2
9.851311666E-1,9.095848270E-2,6.796019582E-2,-6.053797781E-2,1.286735425E-1
9.951291666E-1,1.274287727E-1,3.704370087E-2,-7.312060118E-2,1.515155114E-1
1.005128167E0,1.111388319E-1,5.602929946E-3,-7.910639584E-2,1.365322476E-1
1.015126167E0,8.107215665E-2,-9.782117698E-3,-4.168304622E-2,9.168348135E-2
1.025125167E0,5.570876241E-2,-4.250506424E-2,8.419990540E-4,7.007749751E-2
1.035123167E0,3.148879118E-2,-3.592728468E-2,3.543178797E-2,5.947878069E-2
1.045122167E0,-1.466810592E-3,-1.987358051E-2,2.585989594E-2,3.264728096E-2
1.055120167E0,-2.421010405E-2,9.603128945E-3,-3.617672324E-3,2.629518543E-2
1.065119167E0,-2.688725173E-2,5.254947525E-3,-4.462127209E-2,5.236025880E-2
1.075118167E0,-3.579570405E-2,1.548410313E-2,-6.887259901E-2,7.914875092E-2
1.085116167E0,-5.348784372E-2,3.688926129E-3,-7.786035419E-2,9.453460930E-2
1.095115167E0,-5.120633326E-2,-1.831238307E-2,-7.846904933E-2,9.547158553E-2
1.105113167E0,-4.813084401E-2,-2.152996880E-2,-5.723020792E-2,7.781654323E-2
1.115112167E0,-3.379654102E-2,-1.030610131E-2,-8.602423668E-3,3.636514268E-2
1.125110167E0,1.353995875E-4,2.205575226E-2,5.892823935E-3,2.282980321E-2
1.135109167E0,3.506429046E-2,3.456768827E-2,-2.466414034E-2,5.507040364E-2
1.145107167E0,7.168598682E-2,8.855361426E-3,2.112072766E-2,7.525545342E-2
1.155106167E0,9.274732869E-2,-2.502965528E-2,1.817262000E-1,2.055552538E-1
1.165104167E0,7.945313573E-2,-6.449578450E-2,2.920485413E-1,3.094589754E-1
1.175103167E0,6.079591312E-2,-7.079298908E-2,2.209516615E-1,2.398487587E-1
1.185102167E0,3.243150853E-2,-2.858237782E-2,1.153655648E-2,4.474200714E-2
1.195100167E0,-3.044133559E-3,-1.767340117E-2,-2.442756200E-1,2.449330406E-1
1.205099167E0,-4.499739423E-2,1.328255335E-2,-5.508322728E-1,5.528267219E-1
1.215097167E0,-9.195075519E-2,8.642635153E-2,-5.843637156E-1,5.978339299E-1
1.225096167E0,-1.497293954E-1,8.216087166E-2,-1.911396325E-1,2.563272513E-1
1.235094167E0,-1.545806840E-1,7.231998945E-2,2.481698656E-1,3.011870697E-1
1.245093167E0,-1.150448450E-1,1.112972732E-2,5.494570076E-1,5.614821373E-1
1.255091167E0,-2.735364027E-2,-1.287305639E-2,5.711104167E-1,5.719099975E-1
1.265090167E0,1.493059108E-1,-6.601744015E-2,1.963828307E-1,2.553757499E-1
1.275089167E0,2.844478553E-1,-1.022239751E-1,-2.434336209E-1,3.880982495E-1
1.285087167E0,3.082546111E-1,-1.667557565E-1,-5.089679629E-1,6.179617907E-1
1.295086167E0,2.657934832E-1,-1.469395244E-1,-5.215008849E-1,6.034903251E-1
1.305084167E0,1.262871769E-1,-4.347895456E-2,-2.054413372E-1,2.450408407E-1
1.315083167E0,-2.552660465E-2,-1.031532255E-1,1.996829993E-1,2.261979126E-1
1.325081167E0,-1.691215399E-1,-4.605134572E-2,3.578197771E-1,3.984442428E-1
1.335080167E0,-2.787408997E-1,1.364251708E-1,3.237129682E-1,4.484399650E-1
1.345078167E0,-2.421849115E-1,6.817218480E-2,1.475252509E-1,2.916584951E-1
1.355077167E0,-1.623185603E-1,-8.629759401E-4,-1.315132356E-1,2.089109640E-1
1.365075167E0,-8.641808320E-2,6.186782652E-2,-3.173096824E-1,3.346358432E-1
1.375074167E0,2.866623055E-2,-4.179103699E-2,-3.178131276E-1,3.218282580E-1
1.385073167E0,1.167842090E-1,-1.570769335E-1,-1.816308904E-1,2.670233975E-1
1.395071167E0,1.435154131E-1,-6.526363355E-2,1.639500797E-2,1.585080817E-1
1.405070167E0,1.239903906E-1,-3.040993421E-2,1.797141731E-1,2.204440180E-1
1.415068167E0,1.222243122E-1,-5.113747316E-2,2.294348019E-1,2.649417898E-1
1.425067167E0,1.055654487E-1,4.474877793E-2,1.094072521E-1,1.584817462E-1
1.435065167E0,6.542361885E-2,1.135822097E-1,-8.351578116E-2,1.554221798E-1
1.445064167E0,2.913455598E-2,5.833632753E-2,-2.116276914E-1,2.214457704E-1
1.455062167E0,-2.111495353E-2,9.011176933E-2,-2.244822103E-1,2.428131688E-1
1.465061167E0,-6.335710321E-2,1.217753923E-1,-1.499267024E-1,2.032766213E-1
1.475059167E0,-8.081634097E-2,7.196206676E-2,9.342096448E-3,1.086144318E-1
1.485058167E0,-6.024240106E-2,7.643534205E-2,9.705091596E-2,1.374423104E-1
1.495057167E0,-2.314152539E-2,4.154844149E-2,1.063240153E-1,1.164757460E-1
1.505055167E0,2.784919180E-2,-2.831758118E-2,7.862400055E-2,8.808630058E-2
1.515054167E0,5.843531907E-2,-6.553635134E-2,-2.361398041E-2,9.092480373E-2
1.525052167E0,6.421174686E-2,-7.773304020E-2,-1.002610373E-1,1.421894848E-1
1.535051167E0,4.437258270E-2,-7.790014266E-2,-9.532014012E-2,1.308559797E-1
1.545049167E0,-8.753281832E-3,-2.013954660E-3,-5.101169407E-2,5.179641772E-2
1.555048167E0,-6.149487466E-2,6.060931385E-2,2.353562772E-2,8.949320816E-2
1.565046167E0,-7.159093302E-2,9.944012482E-2,1.040617275E-1,1.607558498E-1
1.575045167E0,-6.959107563E-2,8.571760504E-2,8.923260391E-2,1.419608510E-1
1.585044167E0,-3.579263426E-2,3.535327996E-2,1.242007077E-2,5.181915890E-2
1.595042167E0,5.355172455E-3,-4.313175785E-2,-4.913122952E-2,6.559652523E-2
1.605041167E0,4.208328813E-2,-9.972498472E-2,-6.007663250E-2,1.237953048E-1
1.615039167E0,6.759304550E-2,-1.806278371E-1,-5.051935852E-2,1.993676025E-1
1.625038625E0,7.051855367E-2,-2.241474572E-1,3.854367614E-2,2.381188022E-1
1.635036625E0,4.064805251E-2,-1.604788436E-1,1.250731122E-1,2.074825458E-1
1.645035625E0,6.118234098E-3,-1.177056753E-1,1.469393599E-1,1.883699400E-1
1.655033625E0,4.330667183E-3,-9.578829196E-2,1.123741293E-1,1.477230398E-1
1.665032625E0,-1.338051248E-2,-3.205793540E-2,5.671097517E-2,6.650476706E-2
1.675030625E0,-1.607352074E-2,-2.461090327E-2,-3.279644787E-2,4.404158969E-2
1.685029625E0,-2.392779317E-2,-3.877474166E-2,-1.214133400E-1,1.296812207E-1
1.695028625E0,-1.930962570E-2,-3.960040505E-2,-2.092817885E-1,2.138689335E-1
1.705026625E0,-1.088364176E-2,-2.415993677E-2,-2.802459365E-1,2.814958990E-1
1.715025625E0,1.683851928E-3,4.608583516E-3,-2.829543668E-1,2.829969047E-1
1.725023625E0,1.202929404E-2,2.640936063E-2,-1.410535526E-1,1.440078573E-1
1.735022625E0,3.159451615E-2,6.756660512E-2,9.080375075E-2,1.175107686E-1
1.745020625E0,7.028177798E-2,6.923733735E-2,2.322549140E-1,2.523404096E-1
1.755019625E0,1.391094996E-1,5.465233499E-2,2.219375020E-1,2.675716454E-1
1.765017625E0,1.740957297E-1,8.886908982E-3,1.808543801E-2,1.752580478E-1
1.775016625E0,1.826579538E-1,7.433930710E-3,-1.845580065E-1,2.597707628E-1
1.785014625E0,1.374497309E-1,2.336861663E-2,-2.455859810E-1,2.824021863E-1
1.795013625E0,6.481104992E-2,4.624674322E-2,-2.105108732E-1,2.250645711E-1
1.805012625E0,-1.194264561E-2,1.053445518E-1,-1.142019689E-1,1.558274401E-1
1.815010625E0,-1.156096861E-1,1.293214251E-1,3.448863208E-2,1.768589727E-1
1.825009625E0,-1.940916358E-1,2.085301289E-1,1.611597884E-1,3.273054462E-1
1.835007625E0,-2.074005199E-1,2.455865292E-1,1.616012532E-1,3.597814392E-1
1.845006625E0,-1.381536626E-1,1.559799593E-1,3.643049240E-2,2.115262701E-1
1.855004625E0,-9.106091861E-2,1.021775719E-1,-6.899363637E-2,1.532725317E-1
1.865003625E0,-7.066813275E-2,7.696759399E-2,-1.082705534E-1,1.504676318E-1
1.875001625E0,-5.133891888E-3,-2.925818805E-3,-1.273517722E-1,1.274887883E-1
1.885000625E0,6.776670780E-2,-9.385481874E-2,-8.789593041E-2,1.453504326E-1
1.894998625E0,8.503803067E-2,-8.706751700E-2,2.631831765E-3,1.217339136E-1
1.904997625E0,8.208997417E-2,-4.681638993E-2,5.589704275E-2,1.097953442E-1
1.914996625E0,1.150948022E-1,-3.358454291E-2,5.781960726E-2,1.331083844E-1
1.924994625E0,1.447012285E-1,-1.073651120E-2,7.369830608E-3,1.452860372E-1
1.934993625E0,1.249636962E-1,-1.149051880E-2,-3.288474083E-2,1.297280370E-1
1.944991625E0,9.666189339E-2,-4.648106125E-2,-6.370833814E-2,1.247508038E-1
1.954990625E0,4.832840681E-2,-7.722024852E-2,-9.872848213E-2,1.343350843E-1
1.964988625E0,2.138761651E-2,-1.022825843E-1,-7.027826965E-2,1.259293150E-1
1.974987625E0,-1.669416614E-2,-1.173618591E-1,-5.788743496E-5,1.185432600E-1
1.984985625E0,-2.519934330E-2,-1.226819482E-1,1.028817594E-2,1.256650862E-1
1.994984625E0,-2.414132617E-2,-1.200460325E-1,2.466940284E-2,1.249096994E-1
2.004982625E0,-2.460197713E-2,-1.200639031E-1,4.952884018E-2,1.321881391E-1
2.014981625E0,-2.759801734E-2,-1.227482410E-1,1.631431639E-2,1.268658274E-1
2.024980625E0,-3.581262443E-2,-1.205364221E-1,-1.211367667E-2,1.263262217E-1
2.034978625E0,-5.619400822E-2,-9.111257510E-2,4.712855816E-4,1.070490075E-1
2.044977625E0,-6.332508970E-2,-4.362550040E-2,3.915295601E-3,7.699727794E-2
2.054975625E0,-6.297612056E-2,7.897395641E-5,-1.269138157E-2,6.424226929E-2
2.064974625E0,-5.019220680E-2,4.728023859E-2,-3.663806856E-2,7.808345953E-2
2.074972625E0,-7.271012664E-3,7.620532720E-2,-4.876577854E-2,9.076464442E-2
2.084971625E0,4.634572562E-2,9.583372666E-2,-6.958478987E-2,1.271773267E-1
2.094969625E0,9.372739512E-2,7.036373036E-2,-5.611338973E-2,1.299407236E-1
2.104968625E0,1.214210144E-1,4.735296333E-2,-6.583438575E-2,1.460120962E-1
2.114966625E0,1.245631985E-1,4.396528758E-2,-4.187834322E-2,1.385739245E-1
2.124965625E0,1.046506883E-1,2.093292240E-2,-1.791879237E-2,1.082175444E-1
2.134964625E0,6.673555132E-2,2.932276323E-2,-3.196906686E-2,7.959572532E-2
2.144962625E0,3.235436182E-2,6.963222541E-2,-1.966827929E-2,7.926091568E-2
2.154961625E0,-1.150585860E-3,9.933242641E-2,2.675744355E-2,1.028796169E-1
2.164959625E0,-3.060041640E-2,1.180637077E-1,-6.309730411E-3,1.221279544E-1
2.174958625E0,-3.565233763E-2,1.291896069E-1,-9.057103157E-2,1.617533785E-1
2.184956625E0,-4.575541265E-2,1.108393448E-1,-8.847948253E-2,1.490219345E-1
2.194955625E0,-4.962115310E-2,8.115498612E-2,-2.472436666E-2,9.828369607E-2
2.204953625E0,-6.439531289E-2,1.312696259E-2,1.013497889E-2,6.649655079E-2
2.214952625E0,-6.834371835E-2,-5.932731181E-3,7.117815614E-3,6.896901070E-2
2.224950625E0,-3.648165554E-2,-2.695420235E-3,2.385371625E-2,4.367122920E-2
2.234949625E0,-8.339847140E-3,-2.845159206E-2,1.843627095E-2,3.491335314E-2
2.244948625E0,-1.530325972E-3,-1.529385849E-2,-1.647102177E-2,2.252861654E-2
2.254946625E0,3.360281546E-2,-2.019555196E-3,-1.575006008E-2,3.716573963E-2
2.264945625E0,6.464963023E-2,-4.963767149E-2,-2.385605514E-2,8.492693616E-2
2.274943625E0,6.108330376E-2,-9.096676930E-2,-5.305997372E-2,1.217435170E-1
2.284942625E0,3.702219408E-2,-1.031554639E-1,-1.969108343E-2,1.113527339E-1
2.294940625E0,2.926509507E-2,-1.039625989E-1,5.896332264E-3,1.081639242E-1
2.304939625E0,3.377158072E-2,-9.491501944E-2,-1.042207718E-2,1.012817865E-1
2.314937625E0,3.881480422E-2,-9.325726985E-2,-1.400992870E-2,1.019793386E-1
2.324936625E0,4.891546726E-2,-7.132373353E-2,-1.056241035E-2,8.712842484E-2
2.334934625E0,7.468707025E-2,-5.613017307E-2,-1.369417906E-2,9.442608396E-2
2.344933625E0,7.805488374E-2,-6.437228034E-2,-4.870321333E-2,1.122869464E-1
2.354932625E0,6.028534155E-2,-8.070227458E-2,-2.218433619E-2,1.031471003E-1
2.364930625E0,1.740602810E-2,-8.340176046E-2,2.687380314E-3,8.524110203E-2
2.374929625E0,-1.302416123E-2,-8.943239596E-2,4.964870811E-3,9.051205536E-2
2.384927625E0,-6.669652116E-2,-4.606613735E-2,2.892032862E-3,8.111028787E-2
2.394926625E0,-8.171673909E-2,-1.709872951E-2,1.413388968E-2,8.467442846E-2
2.404924625E0,-6.721776389E-2,1.742168767E-2,-6.511459351E-3,6.974340174E-2
2.414923625E0,-4.842221808E-2,3.848750632E-2,-5.470479548E-2,8.257489930E-2
2.424921625E0,-3.475190297E-2,5.368462994E-2,-3.254501760E-2,7.175592256E-2
2.434920625E0,-1.550162651E-2,6.493464544E-2,-2.521202445E-2,7.136143763E-2
2.444918625E0,2.557703689E-2,3.770626349E-2,-3.404833674E-2,5.687913816E-2
2.454917625E0,3.026317824E-2,2.573184192E-2,-2.687146425E-2,4.795897452E-2
2.464915625E0,4.086432640E-2,4.065053757E-2,-1.055831730E-2,5.859895427E-2
2.474914625E0,5.042825159E-2,5.231798032E-2,-4.467857480E-2,8.530155139E-2
2.484912625E0,6.032692987E-2,7.108640967E-2,-5.215307057E-2,1.068295787E-1
2.494911625E0,5.646820609E-2,9.924974313E-2,-4.675784469E-2,1.233915145E-1
2.504910625E0,5.015811022E-2,9.433831953E-2,-2.430102825E-2,1.095723255E-1
2.514908625E0,4.074712627E-2,7.382201124E-2,-3.717016518E-2,9.215008856E-2
2.524907625E0,1.975781478E-2,6.051018527E-2,-3.881849527E-2,7.455688661E-2
2.534905625E0,-9.414382651E-4,2.727705088E-2,-9.932665229E-3,2.904447709E-2
2.544904625E0,-1.918862488E-2,7.944392636E-3,-1.981270552E-2,2.870296150E-2
2.554902625E0,-2.073853903E-2,1.170144796E-2,-2.505648851E-2,3.456643606E-2
2.564901625E0,-1.103424411E-2,8.483103923E-3,-2.356369436E-2,2.736723017E-2
2.574899625E0,-1.929544620E-3,8.056841902E-3,-2.357714295E-2,2.499034841E-2
2.584898625E0,1.040321991E-2,-1.269837082E-2,-3.630770087E-2,3.984626392E-2
2.594896625E0,7.109044790E-3,-3.530479375E-2,-2.763511062E-2,4.539456265E-2
2.604895625E0,-4.476774484E-4,-4.164408001E-2,-2.854493737E-2,5.049003134E-2
2.614894625E0,-6.911774352E-4,-8.727766958E-2,1.650902867E-2,8.882802126E-2
2.624892542E0,-2.104661420E-2,-1.024300894E-1,1.341532534E-1,1.700940287E-1
2.634891542E0,-1.315389633E-2,-8.655737484E-2,9.372560441E-2,1.282563568E-1
2.644889542E0,2.542650763E-2,-8.004016877E-2,-3.291982412E-2,9.020338534E-2
2.654888542E0,5.609573845E-2,-7.008356650E-2,-9.849050045E-2,1.332622109E-1
2.664886542E0,7.999641515E-2,-6.376152953E-2,-1.517779309E-1,1.830341481E-1
2.674885542E0,8.800925676E-2,-5.396038097E-2,-1.610516149E-1,1.912981303E-1
2.684883542E0,7.272865500E-2,-6.149126583E-2,-4.577902079E-2,1.056709599E-1
2.694882542E0,4.795020159E-2,-8.281137440E-2,6.067597210E-2,1.133071893E-1
2.704880542E0,2.823105153E-2,-8.382041196E-2,7.088988841E-2,1.133500331E-1
2.714879542E0,1.722370461E-4,-5.236886024E-2,8.109912694E-2,9.653805248E-2
2.724878542E0,1.499043368E-3,-2.583636090E-2,1.720660150E-2,3.107783472E-2
2.734876542E0,4.107668996E-3,2.691573864E-3,-9.158143044E-2,9.171300843E-2
2.744875542E0,-2.620999798E-2,2.392824998E-2,-1.014328194E-1,1.074622817E-1
2.754873542E0,-4.168227877E-2,2.621690501E-2,-6.294703066E-2,7.991912876E-2
2.764872542E0,-3.951153651E-2,3.453398455E-2,-3.329463065E-2,6.214732525E-2
2.774870542E0,-6.064662639E-2,3.362324417E-2,1.625584424E-2,7.122350955E-2
2.784869542E0,-6.555569284E-2,3.359906958E-2,4.245253980E-2,8.502155301E-2
2.794867542E0,-4.575837281E-2,6.512974145E-2,3.181762397E-2,8.572090234E-2
2.804866542E0,-2.575296499E-3,7.723229013E-2,-7.265165448E-3,7.761598689E-2
2.814864542E0,3.332492653E-2,8.317843337E-2,-6.670445144E-2,1.117080407E-1
2.824863542E0,5.073281843E-2,9.248115247E-2,-9.815194666E-2,1.440846524E-1
2.834861542E0,7.451190960E-2,9.228061125E-2,-8.873208225E-2,1.481253466E-1
2.844860542E0,7.827272907E-2,6.510688249E-2,-7.285747647E-2,1.251948008E-1
2.854858542E0,6.994695179E-2,6.941653624E-2,-2.301288664E-2,1.011969590E-1
2.864857542E0,4.784049321E-2,4.816313161E-2,1.979107082E-2,7.071128991E-2
2.874856542E0,4.213774033E-2,2.360151853E-2,1.005896509E-2,4.933359520E-2
2.884854542E0,3.011889819E-2,1.792701501E-2,-2.946119606E-2,4.578742152E-2
2.894853542E0,3.821484335E-3,1.903208395E-2,-4.083812356E-2,4.521699125E-2
2.904851542E0,3.252111711E-3,-2.075517618E-2,-6.165304184E-2,6.513410118E-2
2.914850542E0,2.931063026E-3,-2.231198821E-2,-6.285230577E-2,6.675948089E-2
2.924848542E0,-1.923342917E-2,-1.982249047E-2,-2.409462154E-2,3.665251305E-2
2.934847542E0,-2.687296260E-2,-3.910668078E-2,-3.894245625E-3,4.760938720E-2
2.944845542E0,-2.501468092E-2,-3.314305985E-2,1.301765621E-2,4.351615851E-2
2.954844542E0,-2.802639898E-2,-4.412365576E-2,4.478382468E-3,5.246362499E-2
2.964842542E0,-2.322934326E-2,-6.601219593E-2,-1.216220856E-3,6.999065361E-2
2.974841542E0,-1.182734583E-2,-6.751334064E-2,-1.889001489E-2,7.109690525E-2
2.984840542E0,5.515386164E-4,-4.931079386E-2,-2.354381382E-2,5.464585762E-2
2.994838542E0,-2.823912799E-3,-5.191710801E-2,-1.981445968E-2,5.564147194E-2
3.004837542E0,-2.683323808E-3,-3.960394079E-2,-3.928978086E-2,5.585122409E-2
3.014835542E0,2.619501449E-2,-4.403326146E-2,-8.405314028E-2,9.843798703E-2
3.024834542E0,4.584392488E-2,-2.571116653E-2,-1.322646028E-1,1.423258750E-1
3.034832542E0,4.045564257E-2,-1.710377273E-2,-4.170935869E-2,6.057118671E-2
3.044831542E0,2.504643861E-2,-1.884842657E-2,1.629092753E-1,1.658976168E-1
3.054829542E0,4.327531613E-2,-8.517785221E-3,1.916430777E-1,1.966529300E-1
3.064828542E0,7.355278350E-2,-3.264361627E-2,6.620860755E-2,1.042074727E-1
3.074826542E0,6.652494192E-2,-1.345602379E-2,-6.340954542E-2,9.288381411E-2
3.084825542E0,5.373390187E-2,-1.637777695E-3,-1.906315094E-1,1.980666224E-1
3.094823542E0,2.740885992E-2,-5.414220197E-3,-2.638175994E-1,2.652928290E-1
3.104822542E0,-1.022908252E-2,4.678873443E-2,-2.084187394E-1,2.138508610E-1
3.114820542E0,-7.992818546E-2,7.082180489E-2,-1.532555223E-3,1.068016461E-1
3.124819542E0,-1.051654626E-1,5.455638584E-2,1.685161704E-1,2.059948384E-1
3.134818542E0,-8.195987362E-2,7.369262332E-2,2.662541342E-1,2.881653823E-1
3.144816542E0,-5.318265561E-2,4.914098706E-2,2.430295783E-1,2.535874749E-1
3.154815542E0,1.119920868E-2,-2.976582686E-2,7.355037153E-2,8.013166588E-2
3.164813542E0,2.008909609E-2,-6.312008084E-2,-1.122501683E-1,1.303373188E-1
3.174812542E0,6.751388881E-2,-6.933705065E-2,-2.341236842E-1,2.533370310E-1
3.184810542E0,8.166648958E-2,-1.327977409E-1,-2.185741836E-1,2.684759379E-1
3.194809542E0,8.466366269E-2,-7.842105648E-2,-8.356080472E-2,1.424787913E-1
3.204807542E0,7.708066452E-2,5.095464718E-3,3.200415015E-2,8.361613619E-2
3.214806542E0,7.931722451E-2,-6.482214136E-3,1.007212132E-1,1.283666779E-1
3.224804542E0,9.175724890E-2,-2.200517384E-2,1.005931592E-1,1.379224568E-1
3.234803542E0,9.913599651E-2,-4.643604683E-2,1.559978664E-2,1.105785042E-1
3.244801542E0,8.367179219E-2,-1.327688429E-1,-7.732065618E-2,1.749486162E-1
3.254800542E0,4.455647763E-2,-1.214731278E-1,-9.824140906E-2,1.624573018E-1
3.264799542E0,1.824623644E-3,-1.060529694E-1,-7.260896981E-2,1.285403597E-1
3.274797542E0,-5.428978935E-2,-8.168094316E-2,-2.108096659E-2,1.003173208E-1
3.284796542E0,-9.210084591E-2,-6.761080641E-3,2.385137737E-2,9.537906600E-2
3.294794542E0,-9.699076273E-2,4.641775601E-2,6.802533746E-2,1.272370334E-1
3.304793542E0,-1.118969600E-1,9.299877724E-2,5.979479671E-2,1.573058166E-1
3.314791542E0,-9.657232136E-2,1.136606629E-1,2.549853802E-2,1.513113842E-1
3.324790542E0,-3.422287613E-2,9.494259272E-2,-6.148931980E-2,1.181788374E-1
3.334788542E0,-1.170623537E-2,7.286482204E-2,-8.336667717E-2,1.113387673E-1
3.344787542E0,8.778059408E-3,5.002601797E-2,-5.839789689E-2,7.739490398E-2
3.354785542E0,4.783088185E-2,2.881990269E-2,-5.707993448E-2,7.985298347E-2
3.364784542E0,8.224934734E-2,3.760251196E-2,-4.468266785E-2,1.008734100E-1
3.374782542E0,1.033298023E-1,7.131741123E-2,-6.894861281E-2,1.432380271E-1
3.384781542E0,1.100654293E-1,9.573649842E-2,-2.450158775E-2,1.479195851E-1
3.394780542E0,1.269522977E-1,7.352056900E-2,4.388335347E-3,1.467699474E-1
3.404778542E0,1.150220044E-1,7.321126956E-2,1.404501200E-3,1.363522061E-1
3.414777542E0,8.553471509E-2,1.559731985E-2,5.215716362E-4,8.694674180E-2
3.424775542E0,3.685646206E-2,-2.532502189E-3,-1.668152153E-2,4.053499135E-2
3.434774542E0,5.183410496E-3,-4.918628471E-2,-2.685041428E-2,5.627702102E-2
3.444772542E0,-3.267438725E-2,-6.732125960E-2,-3.784317970E-3,7.492722228E-2
3.454771542E0,-5.880968705E-2,-6.075260717E-2,-2.084298491E-2,8.708552457E-2
3.464769542E0,-3.495187774E-2,-6.041524110E-2,-5.527899206E-2,8.903595947E-2
3.474768542E0,-1.160149712E-2,-5.816287536E-2,-5.453522623E-2,8.057050146E-2
3.484766542E0,8.262225352E-3,-8.215475036E-2,-4.917508364E-4,8.257063154E-2
3.494765542E0,7.299079299E-3,-8.713188205E-2,3.259647310E-2,9.331544077E-2
3.504763542E0,1.833748955E-2,-1.025999967E-1,2.946178079E-2,1.083098305E-1
3.514762542E0,1.933104113E-2,-9.347433859E-2,2.392329812E-2,9.840460009E-2
3.524760542E0,-4.982485548E-3,-7.466132423E-2,-6.162380576E-3,7.508071278E-2
3.534759542E0,-1.189276155E-2,-2.040694708E-2,-3.923598647E-2,4.579676736E-2
3.544758542E0,-1.247134354E-2,2.816865077E-2,-5.210746229E-2,6.053259388E-2
3.554756542E0,-1.615329869E-3,7.649062565E-2,-4.446924448E-2,8.849259182E-2
3.564755542E0,2.416519012E-2,8.022480374E-2,-5.165547252E-2,9.842897637E-2
3.574753541E0,5.420767251E-2,5.723850366E-2,-3.713391244E-2,8.714152577E-2
3.584752542E0,8.563115761E-2,2.313697552E-2,-1.259080946E-2,8.959097763E-2
3.594750541E0,8.236307569E-2,-2.880466338E-3,1.931920052E-3,8.243607001E-2
3.604749541E0,6.833958875E-2,-2.688747101E-2,3.034704924E-4,7.343927820E-2
3.614747541E0,4.907622915E-2,-3.014400467E-2,-9.706377983E-3,5.840677237E-2
3.624745875E0,1.615677048E-2,1.278400512E-2,-1.088049889E-2,2.329929774E-2
3.634743875E0,-1.609727506E-2,3.612855680E-2,-2.567570865E-2,4.715545457E-2
3.644742875E0,-6.566975009E-2,1.046800706E-1,-3.240819275E-2,1.277525898E-1
3.654740875E0,-7.527979519E-2,1.530332001E-1,-3.750404119E-2,1.746217656E-1
3.664739875E0,-7.387379564E-2,1.607777459E-1,-4.890084922E-2,1.835704615E-1
3.674738875E0,-6.458381251E-2,1.311792134E-1,-3.800046980E-2,1.510731299E-1
3.684736875E0,-2.929243080E-2,8.427670492E-2,-2.800406992E-2,9.351383548E-2
3.694735875E0,-1.565738171E-3,1.597536061E-2,-7.091503143E-3,1.754859252E-2
3.704733875E0,9.631168172E-3,-4.158985622E-2,-2.631831765E-3,4.277151014E-2
3.714732875E0,2.442692611E-2,-7.501838811E-2,-3.716490269E-3,7.898256500E-2
3.724730875E0,2.460599709E-2,-1.131242905E-1,7.408422232E-4,1.157717973E-1
3.734729875E0,2.645897973E-2,-9.258847629E-2,-1.982790828E-3,9.631528959E-2
3.744727875E0,2.099435471E-2,-4.959431986E-2,3.083236814E-3,5.394317234E-2
3.754726875E0,2.247724514E-2,-1.359697823E-2,-2.778129101E-2,3.823485970E-2
3.764724875E0,2.704322621E-2,-5.131297186E-4,-5.475157320E-2,6.106827453E-2
3.774723875E0,3.837929629E-2,1.236211938E-2,-5.731967032E-2,7.008093168E-2
3.784721875E0,6.177798953E-2,6.953353537E-3,-4.611406624E-2,7.740398065E-2
3.794720875E0,6.673164099E-2,-1.669529904E-2,-3.893777847E-2,7.904426299E-2
3.804718875E0,7.228010047E-2,-4.424830195E-2,-4.163802266E-2,9.442483826E-2
3.814717875E0,5.687667064E-2,-7.134084578E-2,-6.160626411E-3,9.144629712E-2
3.824716875E0,2.550902646E-2,-9.731325494E-2,3.695498765E-2,1.071739293E-1
3.834714875E0,-1.322906960E-2,-1.149502389E-1,6.256052971E-2,1.315385327E-1
3.844713875E0,-3.248226967E-2,-1.201941224E-1,3.995519400E-2,1.307598655E-1
3.854711875E0,-4.409725193E-2,-1.366921602E-1,-7.353458405E-3,1.438172021E-1
3.864710875E0,-3.445135608E-2,-1.244472044E-1,-4.493000507E-2,1.367212784E-1
3.874708875E0,-2.393623509E-2,-9.707572094E-2,-3.402085483E-2,1.056127715E-1
3.884707875E0,2.584366992E-2,-6.367759458E-2,9.237431288E-3,6.934018649E-2
3.894705875E0,6.222263373E-2,-4.614508389E-2,2.629843712E-2,8.180851246E-2
3.904704875E0,1.214970648E-1,-2.338817739E-2,-3.687137246E-2,1.291047703E-1
3.914702875E0,1.649972795E-1,-1.117330735E-2,-8.236972690E-2,1.847531243E-1
3.924701875E0,1.704831737E-1,-2.158073908E-2,-6.870829225E-2,1.850704467E-1
3.934700875E0,1.070030963E-1,-2.319516446E-2,-4.126555502E-2,1.170065139E-1
3.944698875E0,4.792725127E-2,1.795497201E-3,-4.031187415E-2,6.265215417E-2
3.954697875E0,-5.699610002E-3,3.322188763E-2,-4.310158074E-2,5.471677653E-2
3.964695875E0,-6.989597138E-2,8.756914414E-2,-8.176161647E-3,1.123416728E-1
3.974694875E0,-1.059063779E-1,1.285305343E-1,1.281358838E-2,1.670342695E-1
3.984692875E0,-8.707425043E-2,1.416274203E-1,1.388070524E-2,1.668320270E-1
3.994691875E0,-3.776617918E-2,1.330557676E-1,-2.353562772E-2,1.402998480E-1
4.004689875E0,-9.600762650E-4,6.596240323E-2,-3.939561546E-2,7.683732754E-2
4.014688875E0,3.294134919E-2,-2.320891455E-2,2.077691138E-2,4.533725011E-2
4.024686875E0,9.172454104E-2,-1.130876175E-1,-1.333808362E-2,1.462193733E-1
4.034685875E0,1.687236004E-2,-1.350944724E-1,7.937010527E-3,1.363751779E-1
4.044683875E0,3.087128866E-2,-1.195639388E-1,7.606935203E-2,1.450348863E-1
4.054682875E0,-2.024547257E-2,-4.525479963E-2,3.193573773E-2,5.897259866E-2
4.064680875E0,-2.859606396E-2,9.294390477E-2,-1.075460833E-1,1.449912561E-1
4.074679875E0,2.136682235E-3,1.874767356E-1,-2.063271904E-1,2.787884526E-1
4.084677875E0,-2.632723466E-2,2.143823695E-1,-5.590990663E-2,2.231117238E-1
4.094676875E0,-4.582280181E-3,9.753340261E-2,8.957875907E-2,1.325070413E-1
4.104675875E0,-4.699659381E-2,1.804205167E-1,-2.839524865E-2,1.885909140E-1
4.114673875E0,-3.016410448E-2,1.526126757E-1,-1.086570543E-1,1.897547297E-1
4.124672875E0,5.458339266E-3,1.033311545E-1,5.118711054E-2,1.154436713E-1
4.134670875E0,1.625708677E-2,3.728276063E-3,1.375329441E-1,1.385406208E-1
4.144669875E0,8.015037965E-2,2.457822282E-3,-4.360678017E-2,9.127801228E-2
4.154667875E0,4.681796137E-2,-1.575461726E-1,-7.506304622E-2,1.806853035E-1
4.164666875E0,2.944807637E-2,-3.581218589E-1,9.692637026E-2,3.721735835E-1
4.174664875E0,-2.892840508E-2,-2.364442979E-1,8.734161437E-2,2.537150296E-1
4.184663875E0,-2.110113949E-2,-1.695786460E-1,-1.256747907E-1,2.121233799E-1
4.194661875E0,-2.786307894E-3,-1.497992788E-1,-2.449679303E-1,2.871530503E-1
4.204660875E0,-4.261322860E-2,-2.000059300E-2,-1.071128047E-1,1.170002730E-1
4.214658875E0,-7.509286702E-4,1.134152535E-1,7.250781298E-2,1.346141395E-1
4.224657875E0,3.479703616E-2,2.502891524E-2,1.468995988E-1,1.530253981E-1
4.234655875E0,7.881633740E-2,3.368122296E-2,1.462990898E-1,1.695578470E-1
4.244654875E0,8.800370190E-2,3.767372008E-2,6.261900187E-2,1.143901225E-1
4.254653875E0,1.371348583E-1,-1.121086109E-1,-6.610511184E-2,1.890613546E-1
4.264651875E0,1.232177542E-1,-1.313518890E-1,-1.349361956E-1,2.250415752E-1
4.274650875E0,6.641230993E-2,-9.365050424E-2,-1.513662869E-1,1.899809587E-1
4.284648875E0,8.615616448E-3,-1.055367242E-1,-1.055147606E-1,1.494844263E-1
4.294647875E0,-4.624109700E-2,-1.258679864E-1,3.555691838E-2,1.387273711E-1
4.304645875E0,-1.250077696E-1,-5.952425335E-2,1.546068138E-1,2.075411913E-1
4.314644875E0,-1.406410681E-1,1.480123971E-2,1.363693482E-1,1.964575930E-1
4.324642875E0,-1.190100612E-1,6.868802799E-2,2.065587401E-2,1.389536074E-1
4.334641875E0,-5.117812045E-2,7.733293533E-2,-1.103375441E-1,1.441317333E-1
4.344639875E0,1.278325595E-2,1.140175623E-1,-1.497238040E-1,1.886282949E-1
4.354638875E0,6.482840884E-2,1.412059640E-1,-1.135201836E-1,1.924283735E-1
4.364636875E0,1.468694491E-1,9.730170669E-2,-1.139826983E-1,2.098340123E-1
4.374635875E0,1.828126857E-1,6.752360981E-2,-8.178383589E-2,2.113492649E-1
4.384633875E0,1.439815824E-1,4.520740064E-2,2.587159038E-2,1.531135015E-1
4.394632875E0,7.964222006E-2,1.359057371E-2,1.062889320E-1,1.335100145E-1
4.404631875E0,2.912417717E-2,1.102724573E-2,7.189677894E-2,7.835154540E-2
4.414629875E0,-4.871147253E-2,2.304952310E-2,-2.626744688E-2,5.995053658E-2
4.424628875E0,-1.223088410E-1,2.917583367E-2,-7.669734299E-2,1.472859949E-1
4.434626875E0,-1.608359257E-1,2.782417668E-2,-7.729375899E-2,1.806009551E-1
4.444625875E0,-1.409369007E-1,4.461281190E-2,-4.228530943E-2,1.537581229E-1
4.454623875E0,-9.399757303E-2,5.003670741E-2,-2.645397305E-2,1.097225069E-1
4.464622875E0,-3.305858586E-2,2.275568224E-2,2.696735859E-3,4.022391773E-2
4.474620875E0,4.456568699E-2,-1.723742729E-2,2.556168795E-2,5.419067491E-2
4.484619875E0,1.098763084E-1,-7.720325505E-2,2.627914131E-2,1.368347142E-1
4.494617875E0,1.447563019E-1,-1.441579856E-1,7.104951739E-3,2.044172011E-1
4.504616875E0,1.374231992E-1,-1.620712962E-1,-3.069788218E-3,2.125127392E-1
4.514614875E0,1.106983173E-1,-1.512555918E-1,-5.439664721E-3,1.875152299E-1
4.524613875E0,7.325373497E-2,-1.271556895E-1,-2.007758439E-2,1.481141062E-1
4.534611875E0,2.492203910E-2,-8.926366724E-2,-9.967397690E-2,1.361029463E-1
4.544610875E0,-2.334829755E-3,-1.321044987E-2,-1.129623592E-1,1.137561515E-1
4.554608875E0,-2.075893119E-2,-3.007990457E-3,-7.547585964E-3,2.229231447E-2
4.564607875E0,-3.862221155E-2,-5.585134311E-2,6.700324416E-3,6.823446416E-2
4.574606875E0,-2.866582856E-2,-3.448375331E-2,-5.825931787E-2,7.351875331E-2
4.584604875E0,1.332105361E-2,-4.946422845E-2,-4.118310928E-2,6.572829570E-2
4.594603875E0,5.566721063E-2,-1.311832882E-1,-6.445385814E-3,1.426514508E-1
4.604601875E0,4.663227573E-2,-1.347000229E-1,2.636568010E-2,1.449614238E-1
4.614600875E0,2.338824134E-2,-9.178966440E-2,8.970681310E-2,1.304594368E-1
4.624599500E0,2.775417455E-2,-8.511846643E-2,1.153298968E-1,1.460014816E-1
4.634598500E0,3.954636399E-2,-1.993831102E-2,7.345330775E-2,8.577202090E-2
4.644596500E0,-1.032647520E-2,1.655223229E-1,8.815262318E-3,1.660782476E-1
4.654595500E0,2.474103123E-4,2.116723678E-1,-5.058835566E-2,2.176337157E-1
4.664593500E0,2.968561951E-2,2.698191450E-1,-1.673280162E-1,3.188765780E-1
4.674592500E0,3.509564616E-2,3.229067103E-1,-2.078843039E-1,3.856375653E-1
4.684590500E0,2.516513709E-2,3.592215740E-1,-1.177664316E-1,3.788698401E-1
4.694589500E0,3.123231769E-2,3.227633804E-1,-2.735327482E-2,3.254225853E-1
4.704587500E0,2.949923951E-2,2.495226920E-1,1.021333158E-2,2.514678729E-1
4.714586500E0,-7.354262397E-3,1.265077997E-1,7.128282130E-2,1.453944606E-1
4.724585500E0,-4.320098341E-2,7.445129955E-2,6.888195455E-2,1.102453837E-1
4.734583500E0,-8.022577219E-2,-6.321315207E-3,6.947603166E-2,1.063158150E-1
4.744582500E0,-1.264051445E-1,-9.396897649E-2,3.038622558E-2,1.604111960E-1
4.754580500E0,-1.578402875E-1,-1.259683758E-1,-1.112140417E-2,2.022505221E-1
4.764579500E0,-1.598126630E-1,-1.390367018E-1,-4.634678543E-2,2.168393788E-1
4.774577500E0,-1.372321048E-1,-1.341490142E-1,-3.623811901E-2,1.952992828E-1
4.784576500E0,-7.306311574E-2,-6.427663269E-2,-3.348115683E-2,1.029110891E-1
4.794574500E0,2.370278500E-3,-2.194496579E-3,-3.148491740E-2,3.165018261E-2
4.804573500E0,9.553582929E-2,4.083730130E-2,-6.030993640E-2,1.201335435E-1
4.814571500E0,2.122159578E-1,7.883932427E-2,-1.180049980E-1,2.552967516E-1
4.824570500E0,2.772217566E-1,7.924546821E-2,-1.448384553E-1,3.226606959E-1
4.834568500E0,3.166337442E-1,4.096983209E-2,-1.029373080E-1,3.354572171E-1
4.844567500E0,3.085250814E-1,-2.227546139E-2,-3.540489078E-2,3.113477611E-1
4.854565500E0,2.235115359E-1,-7.987216182E-2,1.853742778E-2,2.380768892E-1
4.864564500E0,1.029171351E-1,-1.157661174E-1,6.575427890E-2,1.682776153E-1
4.874562500E0,-1.772064485E-2,-1.690699382E-1,9.351510465E-2,1.940199476E-1
4.884561500E0,-1.487920867E-1,-2.079878545E-1,1.083898365E-1,2.777523885E-1
4.894560500E0,-2.433028260E-1,-2.118070182E-1,6.322477341E-2,3.287184967E-1
4.904558500E0,-2.716875131E-1,-1.938868371E-1,-3.972013593E-3,3.337993219E-1
4.914557500E0,-2.514564759E-1,-1.668201489E-1,-4.230635941E-2,3.047115840E-1
4.924555500E0,-1.844630624E-1,-9.548846684E-2,-5.056905985E-2,2.137800236E-1
4.934554500E0,-1.230334207E-1,-1.527632598E-2,6.866385341E-3,1.241681762E-1
4.944552500E0,-2.524425723E-2,2.342882467E-2,3.494588435E-2,4.906523394E-2
4.954551500E0,9.539067216E-2,3.042808799E-2,1.527994394E-2,1.012853670E-1
4.964549500E0,1.789795070E-1,2.211420614E-2,2.383325100E-3,1.803562648E-1
4.974548500E0,2.146930942E-1,-8.351157848E-3,-1.617749155E-2,2.154636344E-1
4.984546500E0,2.288903896E-1,-5.472030887E-2,-9.370046139E-2,2.533079137E-1
4.994545500E0,2.005830319E-1,-4.424215324E-2,-1.583273971E-1,2.593424097E-1
5.004543500E0,1.144641434E-1,1.604402885E-3,-1.221939433E-1,1.674394637E-1
5.014542500E0,1.688580863E-2,2.679029759E-2,-3.082827508E-2,4.419539708E-2
5.024540500E0,-7.574066542E-2,9.815284202E-2,5.004514933E-2,1.336979647E-1
5.034539500E0,-1.415844798E-1,1.681971500E-1,4.452771664E-2,2.243193343E-1
5.044537500E0,-1.305846977E-1,1.428633024E-1,4.108955383E-2,1.978652013E-1
5.054536500E0,-1.263093233E-1,1.176594641E-1,5.319445968E-2,1.806306872E-1
5.064535500E0,-5.932753108E-2,9.045684641E-2,-1.779015362E-2,1.096297705E-1
5.074533500E0,1.934671897E-2,9.913113602E-3,-1.155766493E-1,1.176032620E-1
5.084532500E0,4.181055207E-2,-5.160843898E-2,-1.117192411E-1,1.299720819E-1
5.094530500E0,7.351572677E-2,4.033043906E-3,-1.954139471E-2,7.617541358E-2
5.104529500E0,6.244789772E-2,5.186781781E-2,2.145226479E-2,8.396552934E-2
5.114527500E0,4.183357548E-2,6.324909417E-2,3.715671659E-2,8.444594447E-2
5.124526500E0,3.499448933E-3,1.081336006E-1,9.154985547E-3,1.085768644E-1
5.134524500E0,-2.617213726E-2,1.102365700E-1,-3.352793455E-2,1.181575411E-1
5.144523500E0,-5.657985136E-3,5.478212491E-2,-6.273536146E-2,8.347945605E-2
5.154521500E0,-1.595047340E-2,8.630344123E-3,-6.604780912E-2,6.849243412E-2
5.164520500E0,-2.393170349E-2,5.245464072E-3,-8.285504580E-2,8.640138853E-2
5.174518500E0,1.421458125E-3,-3.654188186E-2,-4.158422828E-2,5.537668927E-2
5.184517500E0,3.515671302E-2,-1.048878295E-1,3.261927724E-2,1.153319925E-1
5.194515500E0,7.458328217E-2,-9.288594425E-2,5.832889974E-2,1.326375707E-1
5.204514500E0,8.940418314E-2,-7.226513525E-2,2.223052919E-2,1.170878054E-1
5.214513500E0,9.008183889E-2,-9.794577749E-2,-5.321550965E-3,1.331781962E-1
5.224511500E0,7.600382667E-2,-9.550986400E-2,3.366826773E-3,1.221067210E-1
5.234510500E0,5.415446285E-2,-1.039652119E-1,-1.429761171E-2,1.180927298E-1
5.244508500E0,1.319365740E-2,-1.191105968E-1,-6.009183526E-2,1.340613126E-1
5.254507500E0,-3.461873263E-2,-1.131400415E-1,-6.352765918E-2,1.342940397E-1
5.264505500E0,-7.433499478E-2,-9.247219892E-2,-3.448804736E-2,1.235565637E-1
5.274504500E0,-1.139179404E-1,-7.078944420E-2,2.344031811E-2,1.361539242E-1
5.284502500E0,-1.178259270E-1,-6.083529046E-2,5.501002014E-2,1.435617775E-1
5.294501500E0,-8.313593142E-2,-1.934741333E-2,3.268476605E-2,9.140130977E-2
5.304499500E0,-4.200679924E-2,-9.197304770E-4,-1.180435896E-2,4.364355596E-2
5.314498500E0,-5.345305279E-3,-5.934923887E-3,-3.293210328E-2,3.388685639E-2
5.324496500E0,1.813049812E-2,3.942832332E-3,-4.612868428E-2,4.972038216E-2
5.334495500E0,3.372728806E-2,6.629865468E-3,-9.151711106E-2,9.775922817E-2
5.344493500E0,4.013484970E-2,2.030964576E-2,-9.333501041E-2,1.036084554E-1
5.354492500E0,2.912026685E-2,5.340430163E-2,-3.392788410E-2,6.964991524E-2
5.364490500E0,-1.899837110E-2,5.525308158E-2,6.274530172E-2,8.573688831E-2
5.374489500E0,-3.897432357E-2,7.306150775E-2,9.609840453E-2,1.268537944E-1
5.384487500E0,-4.923852593E-2,8.668705512E-2,5.684136808E-2,1.147607036E-1
5.394486500E0,-3.099810015E-2,8.725896763E-2,-3.384953141E-3,9.266319416E-2
5.404485500E0,-1.004361615E-2,9.647781573E-2,-5.747696042E-2,1.127494751E-1
5.414483500E0,1.784204766E-2,1.241420528E-1,-8.838007987E-2,1.534295488E-1
5.424482500E0,6.976693064E-2,1.195312492E-1,-1.058053672E-1,1.742122839E-1
5.434480500E0,1.048019850E-1,9.300107958E-2,-9.867468774E-2,1.713748840E-1
5.444479500E0,1.223009839E-1,6.079499949E-2,-5.606427312E-2,1.476372762E-1
5.454477500E0,1.303674371E-1,2.128337162E-2,-3.813846409E-2,1.374888832E-1
5.464476500E0,1.094661628E-1,-1.179560641E-2,-1.855496943E-2,1.116524250E-1
5.474474500E0,4.935696859E-2,-2.748642689E-2,2.378822744E-2,6.129839946E-2
5.484473500E0,-2.476292174E-2,-3.938532801E-2,7.435962617E-2,8.771408302E-2
5.494471500E0,-1.035998340E-1,-4.572085013E-2,5.846046209E-2,1.274399756E-1
5.504470500E0,-1.666553305E-1,-2.391742350E-2,1.768958151E-2,1.692895852E-1
5.514468500E0,-1.985714436E-1,-2.348059081E-3,-1.365851104E-2,1.990544812E-1
5.524467500E0,-1.935332267E-1,-1.496240359E-2,-6.208515108E-2,2.037978149E-1
5.534465500E0,-1.683776279E-1,-3.762421975E-2,-4.168246150E-2,1.774937607E-1
5.544464500E0,-9.818074420E-2,-6.037950000E-2,-1.349946678E-2,1.160490334E-1
5.554462500E0,-1.977784149E-2,-7.484470753E-2,2.650718272E-2,8.182618160E-2
5.564461500E0,5.454377778E-2,-1.114854347E-1,5.349208295E-2,1.351496533E-1
5.574460500E0,1.358648065E-1,-1.376825323E-1,3.259238005E-2,1.961580704E-1
5.584458500E0,2.007030826E-1,-1.533619781E-1,-1.583952248E-2,2.530859817E-1
5.594457500E0,2.466216325E-1,-1.523761193E-1,-6.918951809E-2,2.980400993E-1
5.604455500E0,2.477812085E-1,-1.502381397E-1,-9.301750660E-2,3.043341625E-1
5.614454500E0,2.060131584E-1,-1.208636012E-1,-8.403969169E-2,2.532036755E-1
5.624452125E0,1.550727638E-1,-7.681777736E-2,-4.556091964E-2,1.789534308E-1
5.634451125E0,1.028163437E-1,-4.607669888E-2,-1.675812006E-3,1.126812808E-1
5.644449125E0,4.382170189E-2,-3.622742957E-3,2.170077145E-2,4.903457255E-2
5.654448125E0,2.360692721E-2,4.660553386E-2,-8.077343702E-3,5.286403578E-2
5.664446125E0,4.349096876E-2,4.029641557E-2,-4.279460192E-2,7.312074552E-2
5.674445125E0,2.966036685E-2,2.834423169E-2,-4.039081156E-2,5.757213293E-2
5.684443125E0,3.444547232E-2,8.752075844E-3,-5.341197610E-2,6.415550316E-2
5.694442125E0,6.994201820E-2,-1.101306623E-2,-6.731548548E-2,9.769620322E-2
5.704440125E0,7.466455847E-2,-2.560316663E-2,-3.556042671E-2,8.657287324E-2
5.714439125E0,7.894556087E-2,-1.371067917E-2,-1.053317428E-2,8.081665709E-2
5.724438125E0,7.827305797E-2,1.587292470E-2,-2.635866344E-2,8.410351052E-2
5.734436125E0,6.696297146E-2,3.777219085E-2,-2.272461891E-2,8.016973402E-2
5.744435125E0,5.916249342E-2,6.127465390E-2,-3.795135319E-2,9.324746134E-2
5.754433125E0,4.277621973E-2,8.211798599E-2,-4.268993676E-2,1.019588118E-1
5.764432125E0,-7.664822638E-3,7.171394382E-2,-3.872610927E-3,7.222628579E-2
5.774430125E0,-5.571482889E-3,5.447679061E-2,-1.566001296E-2,5.695610716E-2
5.784429125E0,-9.871963821E-3,3.837653713E-2,-3.553762257E-2,5.322721945E-2
5.794427125E0,-3.942203756E-2,-9.156392533E-3,-1.184645891E-2,4.216959994E-2
5.804426125E0,-5.441243470E-2,-4.323517134E-2,1.602370977E-2,7.132147198E-2
5.814424125E0,-2.560656533E-2,-4.847032970E-2,1.709141135E-2,5.742112321E-2
5.824423125E0,-2.423517399E-2,-5.116911208E-2,-3.248713017E-3,5.671133772E-2
5.834421125E0,-2.734892596E-2,-5.137842413E-2,4.998199940E-3,5.841821822E-2
5.844420125E0,2.227778200E-2,-2.808165517E-2,-3.779640198E-2,5.209075667E-2
5.854418125E0,6.092499040E-2,-1.563264068E-2,-7.609449506E-2,9.872490105E-2
5.864417125E0,7.715733614E-2,-1.824523145E-2,-5.331842065E-2,9.554578469E-2
5.874415125E0,8.383726839E-2,-1.268644799E-2,-5.089299560E-2,9.889252011E-2
5.884414125E0,6.983530652E-2,-1.148173884E-3,-4.097494841E-2,8.097675430E-2
5.894412125E0,3.188917927E-2,3.582040854E-3,9.065523148E-3,3.334568160E-2
5.904411125E0,-1.958276376E-2,-3.885785434E-3,4.742910504E-2,5.145973154E-2
5.914410125E0,-6.828831598E-2,-1.328889392E-3,3.279703259E-2,7.576744283E-2
5.924408125E0,-9.750586588E-2,2.251092145E-2,-4.740922451E-3,1.001828918E-1
5.934407125E0,-1.468675122E-1,5.964828741E-2,-1.085769475E-2,1.588895021E-1
5.944405125E0,-1.785204640E-1,9.085211819E-2,1.847954035E-2,2.011595309E-1
5.954404125E0,-1.861093094E-1,1.046351749E-1,2.084824741E-2,2.145223631E-1
5.964402125E0,-1.722558668E-1,1.086550809E-1,2.544065058E-2,2.052443347E-1
5.974401125E0,-1.207431029E-1,1.007960759E-1,7.715985775E-3,1.574747035E-1
5.984399125E0,-4.454788953E-2,8.191234672E-2,-1.405495226E-2,9.429575118E-2
5.994398125E0,3.626223877E-3,7.845848780E-2,-4.182162523E-2,8.898276319E-2
6.004396125E0,5.951679815E-2,9.453076601E-2,-2.992663443E-2,1.156456589E-1
6.014395125E0,1.189395658E-1,1.076043545E-1,-3.103234291E-2,1.633656136E-1
6.024393125E0,1.318687097E-1,9.202028224E-2,4.245663285E-3,1.608574357E-1
6.034392125E0,1.545318598E-1,5.708152419E-2,3.603054285E-3,1.647767523E-1
6.044390125E0,1.358437566E-1,1.091854233E-2,-7.500223517E-3,1.364880732E-1
6.054389125E0,1.039543946E-1,-2.811357731E-2,-4.644151032E-2,1.172761837E-1
6.064387125E0,6.591829330E-2,-5.650698043E-2,-5.589236498E-2,1.032580103E-1
6.074386125E0,1.743961304E-2,-7.949782125E-2,-7.222480774E-2,1.088139078E-1
6.084385125E0,-1.797814161E-2,-9.523890951E-2,-8.706153274E-2,1.302819018E-1
6.094383125E0,-4.106682278E-2,-1.117143532E-1,-8.035243750E-2,1.436074332E-1
6.104382125E0,-4.094110765E-2,-1.310096441E-1,-3.367411494E-2,1.413281542E-1
6.114380125E0,-3.396099396E-2,-1.287827503E-1,1.225751817E-2,1.337482435E-1
6.124379125E0,-2.067995723E-2,-1.138320960E-1,5.338566363E-2,1.274183495E-1
6.134377125E0,-1.452843055E-2,-8.485306679E-2,5.349734545E-2,1.013562243E-1
6.144376125E0,2.225782838E-2,-3.939427243E-2,-1.838890851E-2,4.884128971E-2
6.154374125E0,4.294717770E-2,-1.221870728E-2,-7.933736086E-2,9.103940745E-2
6.164373125E0,6.740494788E-2,-2.879771068E-2,-8.355144918E-2,1.111466590E-1
6.174371125E0,1.173381596E-1,-4.362140735E-2,-7.847665071E-2,1.477486229E-1
6.184370125E0,1.601763598E-1,-8.054438149E-2,-7.204178989E-2,1.932197793E-1
6.194368125E0,1.820338001E-1,-1.094629651E-1,-9.153231382E-3,2.126081530E-1
6.204367125E0,1.847387951E-1,-1.146048603E-1,1.648563981E-2,2.180240188E-1
6.214365125E0,1.529412710E-1,-1.079512771E-1,1.519457459E-2,1.878174265E-1
6.224364125E0,1.003325927E-1,-9.894504838E-2,6.136652827E-3,1.410475461E-1
6.234362125E0,3.651834682E-2,-7.299369833E-2,-2.507286072E-2,8.538335900E-2
6.244361125E0,-3.853899837E-2,-5.466443142E-2,-2.395487309E-2,7.104428479E-2
6.254359125E0,-1.272656719E-1,-1.046432331E-2,-5.031529069E-3,1.277942471E-1
6.264358125E0,-1.983014484E-1,4.261218706E-2,9.969502687E-3,2.030730260E-1
6.274357125E0,-2.188992157E-1,4.445353009E-2,1.955425858E-2,2.242216582E-1
6.284355125E0,-1.986055401E-1,3.931212818E-2,8.159789443E-3,2.026232616E-1
6.294354125E0,-1.396944770E-1,3.518286103E-2,5.016911030E-4,1.440577395E-1
6.304352125E0,-7.061934505E-2,1.301827747E-3,-5.858910084E-4,7.063377321E-2
6.314351125E0,3.310119744E-2,-2.136581736E-2,-3.730231225E-2,5.425541377E-2
6.324349125E0,1.085989476E-1,-4.364056611E-2,-4.811147511E-2,1.265422636E-1
6.334348125E0,1.572147816E-1,-4.061715363E-2,-2.462496400E-2,1.642334606E-1
6.344346125E0,2.162475034E-1,6.148529984E-4,-1.474316955E-2,2.167503675E-1
6.354345125E0,2.429157038E-1,4.088574182E-2,-3.537273109E-2,2.488592235E-1
6.364343125E0,2.253640069E-1,1.005048662E-1,-7.244700193E-2,2.571745163E-1
6.374342125E0,1.688904653E-1,1.669214885E-1,-7.357785344E-2,2.485970094E-1
6.384340125E0,9.476516627E-2,2.335865809E-1,-4.551414192E-2,2.561535957E-1
6.394339125E0,2.630245708E-2,2.462513759E-1,-8.926944137E-3,2.478129329E-1
6.404337125E0,-4.415594336E-2,2.462415452E-1,-6.785693765E-3,2.502612467E-1
6.414336125E0,-6.485936254E-2,2.231683044E-1,-3.968973041E-2,2.357670539E-1
6.424334125E0,-7.640056025E-2,2.002525181E-1,-6.137763798E-2,2.229469243E-1
6.434333125E0,-8.987093713E-2,1.548890150E-1,-5.898378789E-2,1.885377404E-1
6.444331125E0,-8.360009070E-2,1.152915427E-1,-3.954355001E-2,1.477998895E-1
6.454330125E0,-8.208003391E-2,7.536684562E-2,2.121077478E-2,1.134336385E-1
6.464329125E0,-9.199468240E-2,1.812388346E-2,9.872731268E-2,1.361564505E-1
6.474327125E0,-9.713833183E-2,-9.392282004E-3,9.346014082E-2,1.351253803E-1
6.484326125E0,-8.537055451E-2,-2.588356803E-2,2.322864890E-2,9.218275762E-2
6.494324125E0,-9.115264680E-2,-5.061756433E-2,-1.018760383E-2,1.047603461E-1
6.504323125E0,-1.130805460E-1,-8.369012869E-2,-3.702866256E-2,1.454729163E-1
6.514321125E0,-1.134544024E-1,-9.280377259E-2,-4.532001436E-2,1.534221149E-1
6.524320125E0,-1.057270145E-1,-1.310525389E-1,-2.876537740E-2,1.708227634E-1
6.534318125E0,-9.912934531E-2,-1.578255964E-1,1.472621262E-2,1.869556293E-1
6.544317125E0,-4.987528771E-2,-1.662985042E-1,4.293668926E-2,1.788471306E-1
6.554315125E0,1.233411670E-2,-1.895946519E-1,3.103175819E-2,1.925129411E-1
6.564314125E0,6.320244435E-2,-1.936172805E-1,-1.814975739E-3,2.036798822E-1
6.574312125E0,1.063397297E-1,-1.723230367E-1,-3.958857358E-2,2.063264943E-1
6.584311125E0,1.715384134E-1,-1.582588020E-1,-7.181842625E-2,2.441908312E-1
6.594309125E0,2.142424931E-1,-1.660097797E-1,-5.253021598E-2,2.760770117E-1
6.604308125E0,2.195270605E-1,-1.746878334E-1,-1.256215811E-2,2.808305134E-1
6.614306125E0,2.206522109E-1,-1.601620707E-1,-5.351371765E-3,2.727048299E-1
6.624305125E0,1.999370973E-1,-1.612452856E-1,-2.326197803E-2,2.579069690E-1
6.634303750E0,1.441839692E-1,-1.713635086E-1,-3.230879009E-2,2.262704730E-1
6.644302750E0,7.061989322E-2,-1.562251404E-1,-2.369525671E-2,1.730749230E-1
6.654301750E0,1.619642191E-2,-1.430459183E-1,-4.306532800E-2,1.502633731E-1
6.664299750E0,-2.917259943E-2,-1.337201301E-1,-2.578154325E-2,1.392724011E-1
6.674298750E0,-5.866898842E-2,-8.325608256E-2,-1.758842468E-3,1.018661819E-1
6.684296750E0,-8.265105106E-2,-1.318608343E-2,2.480622768E-2,8.729500541E-2
6.694295750E0,-1.005719996E-1,7.237088763E-2,3.398869514E-2,1.284815313E-1
6.704293750E0,-1.005001519E-1,1.461964529E-1,3.342794716E-2,1.805300834E-1
6.714292750E0,-9.202095833E-2,2.059072324E-1,3.361564279E-3,2.255591835E-1
6.724290750E0,-5.505201045E-2,2.462531118E-1,-4.154154360E-2,2.557284082E-1
6.734289750E0,-5.982651785E-3,2.303523763E-1,-8.928815246E-2,2.471242269E-1
6.744287750E0,4.656656764E-2,1.931471460E-1,-8.583887994E-2,2.164314639E-1
6.754286750E0,8.355524987E-2,1.589752138E-1,-6.472166061E-2,1.909017856E-1
6.764284750E0,9.775605362E-2,1.245105736E-1,1.915547848E-3,1.583123440E-1
6.774283750E0,8.578380648E-2,9.880524511E-2,-8.987170458E-4,1.308516168E-1
6.784281750E0,1.015048863E-1,7.149061672E-2,-2.431856990E-2,1.265130154E-1
6.794280750E0,7.423058543E-2,4.133358372E-2,-1.066122830E-2,8.562888967E-2
6.804278750E0,1.780166533E-1,4.176432252E-2,1.129927647E-1,2.149454637E-1
6.814277750E0,5.032303825E-2,4.777420040E-2,1.352449286E-1,1.520064904E-1
6.824275750E0,-1.501816410E-1,1.067204017E-1,1.418534517E-1,2.325213349E-1
6.834274750E0,-6.808856048E-2,2.017098452E-2,1.402045369E-1,1.571630773E-1
6.844273750E0,-2.618068881E-2,-1.327151673E-2,1.632495832E-1,1.658673809E-1
6.854271750E0,2.192591849E-1,-3.740327722E-2,2.164878970E-1,3.103878298E-1
6.864270750E0,6.659964010E-2,5.068054067E-2,2.408292711E-1,2.549564023E-1
6.874268750E0,9.530230612E-3,8.428499152E-2,1.461394608E-1,1.689719713E-1
6.884267750E0,3.763253376E-2,-4.039244696E-2,2.036842489E-1,2.110332453E-1
6.894265750E0,1.104099034E-1,-5.552306215E-1,-4.385996461E-3,5.661189157E-1
6.904264750E0,-2.949753651E-1,-3.288520678E-2,1.394847447E-1,3.279449601E-1
6.914262750E0,-1.043904872E-1,1.636267469E-2,1.674654257E-1,1.980145948E-1
6.924261750E0,-3.525388643E-2,1.885854956E-3,-4.671931154E-1,4.685251327E-1
6.934259750E0,1.289276699E0,-3.501602535E-1,-1.342947561E0,1.894295320E0
6.944258750E0,-6.487231413E-1,-2.109603048E-1,-1.421294403E-1,6.968118412E-1
6.954256750E0,-5.617137949E-1,-3.300758352E-1,6.647003657E-1,9.307518576E-1
6.964255750E0,7.092139028E-1,-5.307105054E-1,-2.213966346E-1,9.130468062E-1
6.974253750E0,7.815688111E-1,2.064686492E0,-2.546035570E-1,2.222296804E0
6.984252750E0,-8.898336634E-2,-4.155009516E-1,2.997107327E-1,5.199861571E-1
6.994250750E0,2.716250941E-2,-5.158689199E-1,1.521129763E-1,5.385136042E-1
7.004249750E0,1.013961281E-1,2.027451130E-1,-2.155038106E-1,3.127757152E-1
7.014247750E0,1.885824989E-1,-3.398024592E-1,-1.378305674E-2,3.888689275E-1
7.024246750E0,2.203887208E-1,1.762376014E-1,6.474797308E-2,2.895223314E-1
7.034245750E0,3.662461996E-2,5.614180354E-2,-1.410482901E-1,1.561662097E-1
7.044243750E0,-8.987228930E-2,-8.313498124E-3,-5.250156462E-2,1.044153098E-1
7.054242750E0,-2.292095380E-1,-2.085320841E-2,6.029999614E-2,2.379242697E-1
7.064240750E0,-1.396942212E-1,7.025667150E-3,1.081822604E-1,1.768254419E-1
7.074239750E0,1.179495956E-1,3.886684444E-2,2.820287526E-2,1.273504647E-1
7.084237750E0,1.631408250E-1,-1.265159675E-1,-4.220461786E-2,2.107188852E-1
7.094236750E0,1.945412502E-1,-6.207064267E-2,-3.013713419E-2,2.064153811E-1
7.104234750E0,2.116512264E-1,2.221713541E-2,3.600072205E-2,2.158376583E-1
7.114233750E0,4.189318053E-1,-3.120387829E-1,-1.252713329E-1,5.371824331E-1
7.124231750E0,7.181373386E-1,-7.683266035E-2,-8.596167147E-2,7.273334199E-1
7.134230750E0,4.831171301E-1,8.031332511E-2,3.577911258E-2,4.910524783E-1
7.144228750E0,4.802274361E-2,2.822204316E-2,8.079214811E-2,9.813276120E-2
7.154227750E0,-5.101622567E-2,2.300390386E-1,1.744575262E-2,2.362730811E-1
7.164225750E0,-2.615561888E-2,3.323423622E-1,-4.011189938E-2,3.357745175E-1
7.174224750E0,-2.510322239E-1,3.128915262E-1,-2.783099234E-2,4.021104932E-1
7.184222750E0,-4.351302007E-1,2.736106258E-1,-8.222003818E-2,5.205393364E-1
7.194221750E0,-4.814939430E-1,2.357797984E-1,-8.704399109E-2,5.431437995E-1
7.204219750E0,-4.094518608E-1,1.262493162E-1,-6.060522079E-2,4.327386150E-1
7.214218750E0,-2.880304809E-1,9.171808169E-2,5.134381592E-2,3.066104236E-1
7.224217750E0,-1.926144464E-1,-1.519872520E-1,6.627818942E-2,2.541520178E-1
7.234215750E0,5.365609735E-2,-2.625083347E-1,5.719629407E-2,2.739726604E-1
7.244214750E0,3.358205053E-1,-6.778498035E-1,-2.005127192E-2,7.567415816E-1
7.254212750E0,4.594598803E-1,-3.237023702E-1,8.445016623E-2,5.683471093E-1
7.264211750E0,5.370142789E-1,-7.369359177E-2,1.586723828E-1,5.647937733E-1
7.274209750E0,3.202050774E-1,-6.016392047E-2,1.645505887E-1,3.650039522E-1
7.284208750E0,2.772777437E-1,8.936988557E-2,2.686649412E-1,3.962963212E-1
7.294206750E0,5.748529270E-2,1.870317077E-1,5.807741100E-1,6.128490722E-1
7.304205750E0,-3.785164355E-1,2.759713295E-1,9.424208897E-1,1.052421969E0
7.314203750E0,-9.914477465E-1,4.117243446E-1,1.364538989E0,1.736217792E0
7.324202750E0,-8.493197680E-1,3.761631504E-1,1.559868736E0,1.815498074E0
7.334200750E0,-4.541269273E-1,1.693169466E-1,1.680317286E0,1.748818365E0
7.344199750E0,-1.821662030E-1,4.416632216E-2,1.674357219E0,1.684816692E0
7.354197750E0,-1.485664938E-1,-4.422114712E-1,1.693585203E0,1.756659850E0
7.364196750E0,-8.473361000E-2,-4.377339658E-1,2.037837685E0,2.086042483E0
7.374194750E0,-2.355518666E-1,-4.275264814E-1,2.144152345E0,2.199011790E0
7.384193750E0,-5.991612643E-1,-3.706495550E-1,2.263125642E0,2.370255890E0
7.394191750E0,-7.816192433E-1,-9.099738495E-2,2.329159418E0,2.458494002E0
7.404190750E0,-7.706750098E-1,-2.075207898E-2,2.364246805E0,2.486771717E0
7.414188750E0,-1.027818451E0,3.605787493E-1,2.331297745E0,2.573203641E0
7.424187750E0,-9.541059655E-1,3.312745875E-1,2.523189329E0,2.717819978E0
7.434186750E0,-5.537554421E-1,4.077118025E-1,2.637129927E0,2.725312506E0
7.444184750E0,-6.374709056E-1,1.973543456E-1,2.709765794E0,2.790725453E0
7.454183750E0,-9.450426351E-1,-1.154089530E-1,2.995761298E0,3.143407476E0
7.464181750E0,2.847177409E-1,9.195107496E-2,2.724952183E0,2.741328800E0
7.474180750E0,1.348612051E-1,-2.229361882E-1,2.708733761E0,2.721236240E0
7.484178750E0,-1.870397110E-1,-2.907773932E-1,2.980810552E0,3.000794377E0
7.494177750E0,5.462731987E-2,-5.603347474E-2,2.613200782E0,2.614372242E0
7.504175750E0,-1.041131830E-1,2.319125961E-1,2.680948377E0,2.692973673E0
7.514174750E0,-7.433300672E-1,3.164259854E-1,2.849999567E0,2.962290081E0
7.524172750E0,-1.345542116E0,3.656277835E-1,2.851760749E0,3.174382874E0
7.534171750E0,-1.685951078E0,5.981589784E-1,2.897314067E0,3.405092363E0
7.544169750E0,-1.556813128E0,4.218312934E-1,2.925422217E0,3.340614300E0
7.554168750E0,-8.049876407E-1,3.652072956E-1,2.997177494E0,3.124812698E0
7.564166750E0,-7.622687602E-1,-3.069251005E-1,3.080409100E0,3.188130628E0
7.574165750E0,2.870933184E-1,-2.759469174E-1,2.510451170E0,2.541836806E0
7.584163750E0,2.661969776E-1,-2.434335296E-1,2.510022569E0,2.535810326E0
7.594162750E0,2.817627043E-2,-2.577270300E-1,2.510411409E0,2.523763571E0
7.604160750E0,-4.707105079E-1,-1.128535096E-1,2.561533615E0,2.606867614E0
7.614159750E0,-6.909872545E-1,9.775343151E-2,2.353025413E0,2.454332438E0
7.624157750E0,-1.281727797E0,2.734791731E-1,2.650172727E0,2.956523716E0
7.634156500E0,-1.638037093E0,-8.717405509E-2,2.106575798E0,2.669911314E0
7.644155500E0,3.052591556E-1,2.428352498E-1,1.618650210E0,1.664986671E0
7.654153500E0,4.157941894E-1,2.559693935E-1,1.368206363E0,1.452719446E0
7.664152500E0,7.410761118E-3,-3.223405536E-1,8.221693915E-1,8.831312814E-1
7.674150500E0,2.450772732E-1,1.275413864E-2,4.501683623E-1,5.127154106E-1
7.684149500E0,4.380393367E-1,-2.271445207E-1,-1.853830487E-1,5.271052726E-1
7.694147500E0,8.976981685E-2,-1.173705659E-1,-6.951398009E-1,7.106713816E-1
7.704146500E0,-3.870096624E-1,3.162738847E-1,-8.010890096E-1,9.442188572E-1
7.714144500E0,-4.307791413E-1,-3.459776305E-1,-7.027949756E-1,8.939753728E-1
7.724143500E0,-5.142042907E-1,-1.147341843E-1,-8.729144526E-1,1.019583065E0
7.734141500E0,-4.199347490E-1,-2.533203855E-1,-9.483499664E-1,1.067653535E0
7.744140500E0,4.484678458E-1,-1.334962731E-1,-1.034642006E0,1.135530160E0
7.754138500E0,7.110712709E-1,-1.365888380E-1,-1.242479532E0,1.438066149E0
7.764137500E0,8.032976492E-1,-1.830069960E-1,-8.645266217E-1,1.194229858E0
7.774135500E0,7.546130008E-1,-3.634114329E-1,-9.679673749E-1,1.280027144E0
7.784134500E0,1.084209291E0,8.066263229E-2,-1.133085144E0,1.570317863E0
7.794132500E0,7.374974696E-1,-1.819973281E-1,-1.412587314E0,1.603879193E0
7.804131500E0,2.520225960E-1,-4.628655910E-2,-1.649193141E0,1.668980483E0
7.814129500E0,8.305458203E-2,3.886143576E-1,-1.681888433E0,1.728197871E0
7.824128500E0,-2.174561960E-1,2.498262356E-1,-1.378053659E0,1.417297510E0
7.834126500E0,-2.243651198E-1,2.331386476E-1,-1.308846599E0,1.348248032E0
7.844125500E0,1.877513172E-1,3.906543050E-1,-1.449363962E0,1.512784597E0
7.854124500E0,3.871687067E-1,1.835944219E-1,-1.844998267E0,1.894102723E0
7.864122500E0,7.436829467E-1,1.125581339E-1,-2.054202288E0,2.187574158E0
7.874121500E0,6.724859333E-1,6.525544745E-2,-2.165091809E0,2.268064846E0
7.884119500E0,8.761713517E-1,-1.190935759E-1,-2.531095349E0,2.681101114E0
7.894118500E0,7.995095305E-1,3.679229801E-2,-3.816431463E0,3.899451023E0
7.904116500E0,7.364057945E-1,1.878577730E-1,-3.020631845E0,3.114771385E0
7.914115500E0,9.416734694E-1,-8.341322831E-1,-2.913823096E0,3.173781754E0
7.924113500E0,1.624143085E-1,-1.571372695E-1,-2.182665031E0,2.194332966E0
7.934112500E0,1.522234887E-1,-1.220768985E-1,-2.014171665E0,2.023601308E0
7.944110500E0,7.121809262E-1,-6.108661110E-2,-2.303878981E0,2.412217155E0
7.954109500E0,3.894790877E-1,-1.378940827E-1,-2.488764431E0,2.522827210E0
7.964107500E0,6.412009907E-1,4.844549730E-1,-2.405301275E0,2.536002673E0
7.974106500E0,8.884063581E-1,-1.101822914E-1,-2.187648613E0,2.363728506E0
7.984104500E0,3.792850520E-1,-3.662209835E-2,-2.068650173E0,2.103452369E0
7.994103500E0,8.665412799E-1,3.468621315E-2,-1.732959768E0,1.937845835E0
8.004101500E0,7.058017601E-1,1.064048896E-2,-1.860493973E0,1.989901297E0
8.014100500E0,6.932160670E-1,2.745155373E-2,-1.885658051E0,2.009230795E0
8.024098500E0,5.842897484E-1,-2.773130280E-1,-1.946766717E0,2.051389206E0
8.034097500E0,5.203622858E-1,-5.063963757E-2,-1.887468349E0,1.958539775E0
8.044095500E0,7.422674820E-2,-2.063785545E-1,-1.933637379E0,1.946035773E0
8.054094500E0,1.391570082E-1,-1.303227242E-1,-1.888902671E0,1.898499930E0
8.064093500E0,-3.510361299E-2,-3.548040026E-1,-1.852765709E0,1.886758839E0
8.074091500E0,1.872676063E-1,-2.985455471E-1,-1.840397093E0,1.873835655E0
8.084090500E0,2.572567311E-1,-8.708916997E-2,-1.864563051E0,1.884240144E0
8.094088500E0,-6.002313048E-3,-2.891215165E-1,-1.960353307E0,1.981568159E0
8.104087500E0,3.356189226E-1,-1.398912175E-1,-2.025539821E0,2.057916709E0
8.114085500E0,3.175520495E-1,1.740193505E-1,-2.042147083E0,2.074002591E0
8.124084500E0,5.098032376E-1,1.012132381E-1,-2.082477669E0,2.146358940E0
8.134082500E0,6.531825203E-1,1.567613300E-1,-2.081566088E0,2.187267450E0
8.144081500E0,7.953220470E-1,2.424109064E-1,-2.025646241E0,2.189644469E0
8.154079500E0,8.419942300E-1,1.619548087E-1,-1.969296623E0,2.147862387E0
8.164078500E0,6.540715894E-1,-2.128102908E-1,-1.861395029E0,1.984411580E0
8.174076500E0,6.974775177E-1,-3.935974279E-1,-1.751415335E0,1.925837350E0
8.184075500E0,1.077222892E0,2.826312168E-1,-1.366599548E0,1.762919138E0
8.194073500E0,3.475995751E-1,-7.283347548E-2,-1.154617515E0,1.208003223E0
8.204072500E0,2.131659476E-1,5.969607012E-2,-8.523381007E-1,8.806154552E-1
8.214070500E0,-5.928930491E-2,1.082418837E-1,-4.112183046E-1,4.293390515E-1
8.224069500E0,-3.899268383E-1,-4.728814146E-2,-1.340637910E-1,4.150327789E-1
8.234067500E0,-1.534680685E-1,-2.434127537E-1,-3.520409739E-1,4.546812774E-1
8.244066500E0,7.190936507E-1,2.720686420E-1,-4.741846311E-1,9.033095200E-1
8.254064500E0,7.128451699E-1,4.879384152E-1,-1.768478680E-1,8.817637448E-1
8.264063500E0,-1.351538582E-1,1.082032007E-1,-2.360404015E-2,1.747330786E-1
8.274062500E0,-4.520086272E-1,7.357112001E-2,1.603464407E-1,4.852169513E-1
8.284060500E0,-2.567684886E-1,4.125943737E-1,2.063891709E-1,5.279779009E-1
8.294059500E0,-3.624303067E-1,1.341491512E-1,1.889007336E-1,4.301571912E-1
8.304057500E0,-5.084256336E-2,1.658136969E-2,1.826763725E-1,1.903432824E-1
8.314056500E0,2.982072674E-1,-1.788964217E-1,2.517354977E-1,4.293043965E-1
8.324054500E0,-1.621003130E-1,-5.728852659E-1,2.458263016E-1,6.441308950E-1
8.334053500E0,3.635360152E-3,-3.918730840E-1,3.700562453E-1,5.389984736E-1
8.344051500E0,-1.573738624E-1,-3.584655656E-1,4.224502212E-1,5.759585781E-1
8.354050500E0,-3.700107832E-1,-4.321916094E-1,4.690466827E-1,7.373617548E-1
8.364048500E0,-4.433500703E-1,-2.188877405E-1,5.199969810E-1,7.175430217E-1
8.374047500E0,-4.792544594E-1,-1.335054459E-1,4.743869448E-1,6.874238244E-1
8.384045500E0,-1.834330022E-1,-5.700929280E-2,3.770074153E-1,4.231221064E-1
8.394044500E0,-1.806701928E-2,5.927697094E-2,2.222684544E-1,2.307454058E-1
8.404042500E0,2.282624352E-1,1.589347035E-1,3.181060731E-2,2.799569504E-1
8.414041500E0,1.880466016E-1,1.106994776E-1,-2.992604971E-2,2.202531887E-1
8.424039500E0,-2.126281500E-2,1.511290544E-2,-6.274939477E-2,6.795582210E-2
8.434038500E0,5.059069455E-2,1.374782726E-2,-6.317624152E-2,8.209542388E-2
8.444036500E0,-5.327398181E-2,-1.898091168E-2,-7.973731041E-2,9.775699882E-2
8.454035500E0,2.773875251E-2,8.262522281E-2,-1.164888149E-1,1.454854283E-1
8.464033500E0,-1.590954289E-2,1.188444754E-2,-2.557928807E-1,2.565625683E-1
8.474032500E0,1.974500938E-1,6.283307391E-2,-4.196494049E-1,4.680172622E-1
8.484030500E0,2.241107659E-1,-2.231113854E-2,-6.110211718E-1,6.512067987E-1
8.494029500E0,3.233478096E-1,-2.492740209E-2,-7.813458860E-1,8.459766988E-1
8.504028500E0,3.673339279E-1,2.585976804E-3,-9.095320559E-1,9.809125662E-1
8.514026500E0,2.961317982E-1,-2.427443256E-2,-1.032914738E0,1.074800515E0
8.524025500E0,2.669731955E-1,9.963381384E-3,-1.109488705E0,1.141200746E0
8.534023500E0,1.914173752E-1,5.823781108E-3,-1.160057180E0,1.175758134E0
8.544022500E0,2.481267424E-1,4.085368264E-2,-1.200481905E0,1.226536876E0
8.554020500E0,3.244573188E-1,9.458297982E-2,-1.254962752E0,1.299673037E0
8.564019500E0,4.041020970E-1,1.059141985E-1,-1.328455821E0,1.392591538E0
8.574017500E0,4.469813374E-1,1.252754259E-1,-1.390952032E0,1.466367554E0
8.584016500E0,4.624008836E-1,1.230532373E-1,-1.435447004E0,1.513097742E0
8.594014500E0,4.532741109E-1,9.585315038E-2,-1.453362873E0,1.525420888E0
8.604013500E0,3.534217939E-1,4.459671378E-2,-1.481763968E0,1.523981722E0
8.614011500E0,2.688592149E-1,-7.829604484E-4,-1.512748949E0,1.536455425E0
8.624010500E0,2.961674662E-1,2.024983970E-2,-1.559353012E0,1.587358510E0
8.634008750E0,2.790930118E-1,1.878005069E-2,-1.648052350E0,1.671622609E0
8.644007750E0,3.544497344E-1,1.453112575E-2,-1.727818896E0,1.763860512E0
8.654005750E0,4.512604760E-1,-1.413396277E-2,-1.784749142E0,1.840968573E0
8.664004750E0,4.838217196E-1,-6.077815220E-2,-1.847800253E0,1.911058140E0
8.674002750E0,5.332112499E-1,-1.265676697E-1,-1.867808256E0,1.946545990E0
8.684001750E0,5.770951881E-1,-1.547781007E-1,-1.801438265E0,1.897939656E0
8.693999750E0,5.265236431E-1,-1.760496865E-1,-1.780575399E0,1.865119136E0
8.703998750E0,5.661220108E-1,-1.435591485E-1,-1.891994678E0,1.980087681E0
8.713996750E0,5.715391637E-1,-1.496698269E-1,-1.931325390E0,2.019672210E0
8.723995750E0,5.088181280E-1,-1.521244880E-1,-1.842912565E0,1.917906273E0
8.733993750E0,4.429670776E-1,-1.572862273E-1,-1.726642436E0,1.789483974E0
8.743992750E0,4.023660587E-1,-1.788745860E-1,-1.655726236E0,1.713278708E0
8.753991750E0,4.292847392E-1,-1.464453890E-1,-1.512459512E0,1.579007731E0
8.763989750E0,4.215922885E-1,-1.111344648E-1,-1.508287523E0,1.570038910E0
8.773988750E0,4.189750747E-1,-1.171628984E-1,-1.692056156E0,1.747089377E0
8.783986750E0,4.173005784E-1,-1.419625023E-1,-1.586677635E0,1.646766238E0
8.793985750E0,2.366119668E-1,-1.485505693E-1,-1.188751221E0,1.221139616E0
8.803983750E0,2.377594829E-1,-1.233159052E-1,-1.229919128E0,1.258744392E0
8.813982750E0,4.208654796E-1,7.008618861E-4,-1.418071418E0,1.479207487E0
8.823980750E0,2.512139261E-1,-4.792811008E-2,-1.186353863E0,1.213606620E0
8.833979750E0,2.470849147E-1,2.493948938E-2,-1.004445814E0,1.034690450E0
8.843977750E0,2.964131954E-1,8.490447661E-2,-8.730360746E-1,9.258841937E-1
8.853976750E0,1.651142603E-1,1.870405516E-3,-6.489117140E-1,6.695913902E-1
8.863974750E0,2.082580872E-1,1.020210310E-1,-3.730886114E-1,4.392890092E-1
8.873973750E0,1.211969930E-1,1.949421133E-1,-6.338206351E-2,2.381353074E-1
8.883971750E0,-1.001758142E-1,1.571384389E-3,1.244983310E-1,1.598045600E-1
8.893970750E0,-4.836085886E-2,1.357885735E-1,1.942409956E-1,2.418819418E-1
8.903968750E0,-9.325197995E-2,1.848223738E-1,2.365549564E-2,2.083622425E-1
8.913967750E0,-1.640051897E-1,1.237366489E-1,6.603260636E-2,2.157979741E-1
8.923965750E0,-1.475733443E-1,1.397877401E-1,2.524184525E-2,2.048307959E-1
8.933964750E0,-1.969906488E-1,8.554173175E-2,5.636365056E-2,2.220350528E-1
8.943962750E0,-1.435190311E-1,3.741644260E-2,1.398712456E-1,2.038667894E-1
8.953961750E0,-4.595955357E-2,5.223200798E-2,1.337141275E-1,1.507313210E-1
8.963959750E0,-7.123399705E-2,-2.823582980E-2,1.163894123E-1,1.393486265E-1
8.973958750E0,1.215117194E-1,2.235525761E-2,1.913729364E-1,2.277903779E-1
8.983957750E0,2.086697312E-1,-2.818383526E-2,1.182885879E-1,2.415151658E-1
8.993955750E0,2.127285759E-1,-1.938181323E-1,2.000806099E-1,3.505013065E-1
9.003954750E0,2.685947746E-1,-1.998854774E-1,4.024439728E-1,5.235059773E-1
9.013952750E0,-2.126266882E-2,-2.836882837E-1,4.896475929E-1,5.662913637E-1
9.023951750E0,-8.054831922E-2,-1.844446436E-1,5.071231663E-1,5.456022032E-1
9.033949750E0,-6.906104015E-1,-1.744601026E-1,9.648063701E-1,1.199262434E0
9.043948750E0,-1.201972507E0,-3.540789478E-1,9.189127439E-1,1.553869505E0
9.053946750E0,4.560630865E-1,-6.931844006E-2,1.208104920E-1,4.768582179E-1
9.063945750E0,5.656068711E-1,2.501980089E-1,3.702106118E-2,6.195810966E-1
9.073943750E0,1.860899770E-1,1.346471056E-1,-3.788995743E-1,4.430848790E-1
9.083942750E0,5.388516203E-2,-1.531557541E-2,-6.143663639E-1,6.169150724E-1
9.093940750E0,3.325827558E-1,1.195932845E-1,-5.516801190E-1,6.551830255E-1
9.103939750E0,-4.075436220E-2,1.259157143E-1,-4.751698869E-1,4.932566336E-1
9.113937750E0,-7.961495742E-2,3.991260434E-1,-1.084056240E-1,4.211792009E-1
9.123936750E0,-4.919743462E-1,3.194591554E-1,4.123438936E-1,7.170218936E-1
9.133934750E0,-2.034550381E-1,3.126540562E-1,6.612505084E-1,7.592092902E-1
9.143933750E0,4.174911976E-2,-4.326231339E-1,6.273220396E-1,7.631767203E-1
9.153931750E0,-2.609013006E-2,-8.237002657E-1,6.958397126E-1,1.078589694E0
9.163930750E0,5.970181136E-1,3.013331158E-1,1.120760967E0,1.305119696E0
9.173928750E0,3.342663154E-2,1.395570583E-1,1.545444240E0,1.552092591E0
9.183927750E0,-6.756479613E-1,-9.611623853E-2,1.647831910E0,1.783560625E0
9.193925750E0,2.528200100E-1,-2.488620663E-1,9.862101030E-1,1.048074736E0
9.203924750E0,-3.047583416E-2,1.257954170E-1,1.487091367E0,1.492713635E0
9.213922750E0,-7.681590991E-1,9.585093026E-2,2.017580591E0,2.160992190E0
9.223921750E0,2.944336206E-2,4.520019760E-1,1.305845808E0,1.382174364E0
9.233920750E0,3.540951008E-1,2.346306743E-1,1.726046605E0,1.777546561E0
9.243918750E0,-1.077902777E0,1.490253450E-1,1.516787621E0,1.866742520E0
9.253917750E0,-7.422923326E-1,4.954015455E-1,1.834156360E0,2.039742668E0
9.263915750E0,-1.020340447E0,9.566190988E-3,1.818086457E0,2.084855992E0
9.273914750E0,-3.664955834E-1,3.226707386E-1,1.820760389E0,1.885100478E0
9.283912750E0,-4.823572844E-1,-5.441360414E-2,1.824403789E0,1.887876737E0
9.293911750E0,-6.145960133E-1,-5.285513844E-1,1.829846962E0,2.001358221E0
9.303909750E0,-6.592851131E-1,-7.306560080E-1,1.624517891E0,1.899361325E0
9.313908750E0,-3.544855486E-1,-4.532021170E-1,1.587728965E0,1.688767429E0
9.323906750E0,-1.385198664E0,-3.320657889E-1,2.501828281E0,2.878921286E0
9.333905750E0,-5.184715886E-1,-2.411885459E-1,1.446984730E0,1.555875802E0
9.343903750E0,7.416697504E-1,-1.257868380E-1,8.166788560E-1,1.110342605E0
9.353902750E0,5.899520458E-1,1.344492596E-1,5.688633317E-1,8.304971462E-1
9.363900750E0,3.282701419E-1,5.674669435E-1,8.296146512E-1,1.057374337E0
9.373899750E0,1.511189497E-1,4.381461580E-1,6.110007066E-1,7.668969006E-1
9.383897750E0,2.080823784E-1,2.988636539E-1,2.794489610E-1,4.590310247E-1
9.393896750E0,-1.155515063E-1,1.318140017E-1,3.340169317E-1,3.772192894E-1
9.403894750E0,-4.259369159E-1,7.952749587E-2,-3.039090335E-2,4.343621599E-1
9.413893750E0,-2.232671589E-1,1.056628962E-1,-4.052746099E-1,4.746160357E-1
9.423891750E0,-2.158856338E-1,-2.612609957E-2,-5.413328862E-1,5.833784995E-1
9.433890750E0,-1.290264148E-1,2.639095103E-2,-6.371541327E-1,6.506225379E-1
9.443888750E0,-8.030229762E-2,5.494937355E-2,-6.619884270E-1,6.691013153E-1
9.453887750E0,2.793216379E-1,1.156752845E-3,-8.193071795E-1,8.656131756E-1
9.463885750E0,5.715112433E-1,-6.368920678E-2,-9.501754671E-1,1.110637130E0
9.473884750E0,5.617743136E-1,-2.851266805E-1,-8.929318106E-1,1.092801364E0
9.483883750E0,3.251781343E-1,-5.255663443E-1,-6.037320328E-1,8.639752130E-1
9.493881750E0,6.213214807E-1,-3.305845064E-1,-7.545498508E-1,1.031829431E0
9.503880750E0,7.424279881E-1,-9.624263889E-2,-7.989600384E-1,1.094896847E0
9.513878750E0,6.240239176E-1,9.656267345E-2,-8.049984580E-1,1.023109338E0
9.523877750E0,-4.460123076E-1,4.092955574E-1,5.253799278E-1,8.015446964E-1
9.533875750E0,-1.931828396E0,-2.543859309E-1,4.906609154E-1,2.009333544E0
9.543874750E0,1.788222973E0,5.862806522E-1,-9.735567284E-1,2.118791898E0
9.553872750E0,1.745860042E0,2.065033378E-1,-1.257112189E0,2.161250094E0
9.563871750E0,-3.330240744E-1,-4.227779942E-1,-1.328599663E0,1.433465497E0
9.573869750E0,9.022366311E-1,1.243362900E-2,-7.044538307E-1,1.144744833E0
9.583868750E0,2.962456727E-1,-8.231196737E-2,-6.640098095E-1,7.317416113E-1
9.593866750E0,-9.671250835E-2,1.201673349E-1,-5.495488089E-1,5.707866423E-1
9.603865750E0,-2.143954709E-1,2.415884589E-1,-4.760481387E-1,5.752844791E-1
9.613863750E0,-4.284291454E-1,1.447398749E-2,-2.927040142E-1,5.190728936E-1
9.623862750E0,-5.860421589E-1,7.450394277E-2,-3.855712473E-2,5.920159638E-1
9.633859875E0,-1.373840447E0,-6.304023528E-1,1.367416404E0,2.038301333E0
9.643858875E0,-9.820088786E-1,-5.612995928E-1,9.681410372E-2,1.135240786E0
9.653856875E0,4.573462580E-1,1.222142897E-1,-1.685313731E-1,5.024985135E-1
9.663855875E0,9.998636439E-2,4.688016478E-1,-2.834098649E-1,5.568603143E-1
9.673853875E0,2.108969356E-1,3.617474981E-1,-3.234024811E-1,5.290821624E-1
9.683852875E0,4.364901169E-1,1.689415919E-2,-6.355332845E-1,7.711754603E-1
9.693850875E0,2.289744799E-1,3.025979782E-1,-6.308502495E-2,3.846746277E-1
9.703849875E0,-9.318473697E0,1.726175536E0,1.685233858E1,1.933429465E1
9.713847875E0,2.225738691E0,-2.934085452E0,-1.647144043E1,1.687812549E1
9.723846875E0,1.431961186E-1,1.053563815E0,-7.944850473E0,8.015681561E0
9.733845875E0,6.201334727E-1,-6.956206613E-1,6.993883878E0,7.055697366E0
9.743843875E0,-1.754639782E0,7.635207953E-1,-4.710167851E0,5.084034417E0
9.753842875E0,2.688589518E0,3.757481078E-2,8.358816969E-1,2.815781184E0
9.763840875E0,-8.330693324E-1,-1.318406796E0,-2.008725568E0,2.543064962E0
9.773839875E0,1.284966424E0,-1.449092432E-1,-2.710293213E0,3.002969647E0
9.783837875E0,1.239353903E-1,-6.743237132E-1,-2.797065893E0,2.879869800E0
9.793836875E0,-7.684641775E-1,6.697074826E-1,2.906937414E-1,1.059975545E0
9.803834875E0,-2.336221831E0,1.238029508E0,1.677659726E0,3.131324267E0
9.813833875E0,-6.351345044E-1,3.541259448E-1,2.279494922E0,2.392675934E0
9.823831875E0,3.377183653E-1,2.934945395E-1,6.170888275E-1,7.622278924E-1
9.833830875E0,9.827507441E-1,3.692639476E-1,-2.760938287E-1,1.085533367E0
9.843828875E0,8.555988005E-1,3.380757764E-2,-2.812715381E-1,9.012801661E-1
9.853827875E0,3.302978101E-1,-1.227995394E0,-6.917764825E-1,1.447627035E0
9.863825875E0,1.492687444E-1,-9.319033568E-1,-6.325178754E-1,1.136135506E0
9.873824875E0,2.948025799E-1,-1.732963605E-1,-3.157414591E-1,4.654383511E-1
9.883822875E0,-7.834581926E-1,-2.378448157E-2,5.224744463E-1,9.419936243E-1
9.893821875E0,-1.045309958E0,7.536172930E-2,7.286314827E-1,1.276423181E0
9.903819875E0,-5.362146722E-1,3.498334307E-1,9.247663915E-2,6.468860276E-1
9.913818875E0,-1.023233503E-2,4.324633587E-1,-4.083999467E-1,5.949115680E-1
9.923816875E0,2.380190992E-1,4.142519497E-1,-4.995755804E-1,6.912550397E-1
9.933815875E0,5.269629152E-1,1.620720819E-1,-1.769998956E-1,5.790390633E-1
9.943813875E0,6.987405163E-1,-1.097432112E-1,1.376130509E-1,7.205686874E-1
9.953812875E0,6.524489871E-1,-1.603567281E-1,2.721691775E-1,7.249000084E-1
9.963810875E0,5.627760878E-1,-4.368712457E-1,1.732576776E-1,7.332064056E-1
9.973809875E0,2.896776415E-1,-4.616191839E-1,-3.624104261E-3,5.449940744E-1
9.983808875E0,2.466856961E-1,4.720846402E-2,9.333325624E-2,2.679432187E-1
9.993806875E0,2.633585930E-3,5.932572210E-2,1.207216144E-2,6.059879668E-2
1.000380587E1,-1.394848908E-1,1.538526874E-1,-3.294303757E-1,3.894240062E-1
1.001380387E1,-4.487714624E-1,1.737424483E-1,-3.131178135E-1,5.741298015E-1
1.002380287E1,-6.379069617E-1,9.670678904E-2,-1.531970501E-3,6.451975216E-1
1.003380087E1,-8.210949656E-1,-4.109984128E-2,1.229441410E-1,8.312649405E-1
1.004379987E1,-5.209116317E-1,1.051242580E-1,6.777507663E-3,5.314564632E-1
1.005379787E1,-2.962010877E-1,-1.968549203E-2,-5.679985285E-3,2.969088499E-1
1.006379687E1,-1.920842502E-1,-1.429980625E-1,1.948058367E-2,2.402588150E-1
1.007379487E1,-5.640867412E-2,-9.004533034E-2,4.117667735E-2,1.139544593E-1
1.008379387E1,2.593459412E-2,-3.460641693E-1,-7.595533133E-3,3.471177100E-1
1.009379187E1,2.781343608E-1,-3.334846158E-1,1.785154939E-3,4.342509624E-1
1.010379087E1,3.444315536E-1,-6.461516820E-2,7.176287770E-2,3.577123505E-1
1.011378887E1,3.298138069E-1,7.283158427E-2,6.635595739E-2,3.442160658E-1
1.012378787E1,3.228771088E-1,1.117608477E-1,-5.175078213E-2,3.455694690E-1
1.013378587E1,2.757174142E-1,1.514954372E-1,-1.135850877E-1,3.344735148E-1
1.014378487E1,2.307409237E-1,1.133109994E-1,-1.187218666E-1,2.831530294E-1
1.015378287E1,1.671908990E-1,1.968170961E-2,-8.035594583E-2,1.865401952E-1
1.016378187E1,1.062901014E-1,-4.512159275E-2,-1.059573948E-2,1.159560843E-1
1.017377987E1,4.350167647E-2,-9.773469301E-2,2.077047944E-2,1.089765061E-1
1.018377887E1,-2.315789759E-2,-1.132081067E-1,9.749062657E-3,1.159629590E-1
1.019377687E1,-9.650332421E-2,-1.073710689E-1,2.229309440E-2,1.460767609E-1
1.020377587E1,-1.506081954E-1,-9.562624186E-2,2.436768651E-2,1.800582983E-1
1.021377387E1,-1.277204391E-1,-4.163365552E-2,-2.261703014E-3,1.343539622E-1
1.022377287E1,-8.865460664E-2,1.104263121E-2,-5.488021195E-2,1.048494952E-1
1.023377087E1,-7.624608412E-2,1.024046632E-2,-5.973457038E-2,9.739892912E-2
1.024376987E1,-3.414159983E-2,4.373445047E-2,-6.034794331E-2,8.197698005E-2
1.025376887E1,-6.954824477E-3,7.244782420E-2,-2.625458300E-2,7.737157064E-2
1.026376687E1,1.183695719E-2,2.925544716E-2,7.564542890E-3,3.245330574E-2
1.027376587E1,8.601970509E-2,1.151899656E-2,8.513545990E-3,8.720411349E-2
1.028376387E1,1.476394178E-1,-7.188548651E-3,-5.640808940E-3,1.479219106E-1
1.029376287E1,1.604573916E-1,-6.021636268E-2,-1.514253438E-2,1.720519724E-1
1.030376087E1,1.505355437E-1,-6.743524376E-2,-2.202763081E-2,1.664141777E-1
1.031375987E1,1.378150722E-1,-4.764433740E-2,-1.674642563E-2,1.467767686E-1
1.032375788E1,7.685624108E-2,-5.461918859E-2,-8.895369172E-3,9.470620438E-2
1.033375688E1,2.738558069E-2,-5.498920770E-2,-2.128971219E-2,6.501565072E-2
1.034375488E1,-1.089818671E-2,-2.320716038E-2,-3.084757090E-2,4.011128765E-2
1.035375388E1,-5.693989366E-2,-2.628162637E-2,-1.270599961E-2,6.398685647E-2
1.036375188E1,-8.846457213E-2,-3.286210114E-2,-6.124373674E-3,9.456958373E-2
1.037375088E1,-1.092913310E-1,-2.610456537E-2,-1.336673498E-2,1.131579117E-1
1.038374887E1,-9.155628741E-2,-1.288724503E-2,-6.069409847E-3,9.265782527E-2
1.039374788E1,-6.475542828E-2,-2.700920273E-2,-7.137696147E-3,7.052452928E-2
1.040374587E1,-3.762215495E-2,-3.368248377E-2,-6.519060731E-3,5.091595436E-2
1.041374487E1,1.861914262E-2,-2.949869134E-2,-2.444136143E-3,3.496882989E-2
1.042374287E1,8.395066783E-2,-2.807840265E-2,1.374797344E-2,8.958302349E-2
1.043374187E1,1.151747994E-1,-9.122734498E-3,8.424668312E-3,1.158422796E-1
1.044373987E1,1.622030778E-1,7.424556892E-3,-1.789072573E-2,1.633555649E-1
1.045373887E1,1.864579131E-1,3.334058611E-2,5.280035734E-4,1.894160152E-1
1.046373687E1,2.007381293E-1,1.095737150E-2,-1.663532853E-2,2.017240558E-1
1.047373587E1,2.350849664E-1,-1.773473298E-2,-4.504402578E-2,2.400175545E-1
1.048373387E1,2.474553359E-1,-1.824366001E-2,-5.837977052E-2,2.549022793E-1
1.049373287E1,2.360427403E-1,-3.066060618E-3,-4.127374113E-2,2.396436891E-1
1.050373087E1,1.925017413E-1,2.565268524E-2,2.958106399E-3,1.942259794E-1
1.051372987E1,7.552497625E-2,-3.487211807E-2,4.865234256E-2,9.636979347E-2
1.052372787E1,1.320418239E-2,-5.571720432E-2,4.906807959E-2,7.540844598E-2
1.053372687E1,-3.719837800E-2,-7.165104970E-3,4.500017166E-2,5.882238948E-2
1.054372587E1,-1.063535437E-1,2.904072644E-2,3.291046858E-2,1.150545044E-1
1.055372387E1,-1.873573610E-1,-1.787557779E-2,2.471150279E-2,1.898235375E-1
1.056372287E1,-3.452327684E-1,-1.646055708E-1,3.667373657E-3,3.824841277E-1
1.057372087E1,-2.505267321E-1,4.701307565E-3,-9.562536478E-3,2.507532410E-1
1.058371987E1,-1.758351302E-1,3.135551121E-2,-4.182513356E-3,1.786579260E-1
1.059371787E1,-1.284868629E-1,-1.982836509E-2,7.201430798E-3,1.302071373E-1
1.060371687E1,-6.575924903E-2,-1.073178409E-1,4.829800129E-2,1.348113302E-1
1.061371487E1,-5.997489095E-3,-2.801121449E-2,2.213340694E-1,2.231801252E-1
1.062371387E1,2.181406125E-2,-1.704593098E-2,5.033768553E-1,5.041375561E-1
1.063371287E1,-2.103711247E-2,2.497815410E-2,9.149389762E-1,9.155215991E-1
1.064371187E1,-1.070166180E-1,1.514620898E-1,1.361446397E0,1.374019509E0
1.065370987E1,-2.381303425E-1,1.567120855E-1,1.814150696E0,1.836411579E0
1.066370887E1,-3.552522647E-1,1.550231355E-1,2.223908951E0,2.257433801E0
1.067370687E1,-3.999862419E-1,1.754112071E-1,2.511425900E0,2.549121052E0
1.068370587E1,-5.094277002E-1,8.097110946E-2,2.750453644E0,2.798404573E0
1.069370387E1,-7.331575200E-1,1.833474867E-2,2.953464294E0,3.043157480E0
1.070370287E1,-8.400210871E-1,1.386953888E-1,2.969961044E0,3.089585804E0
1.071370087E1,-6.974244542E-1,1.649660882E-1,2.806037276E0,2.896111164E0
1.072369987E1,-7.243250084E-1,1.301477828E-2,2.663155299E0,2.759929755E0
1.073369787E1,-7.980901189E-1,-9.496963609E-2,2.629434407E0,2.749525844E0
1.074369687E1,-8.329933186E-1,-1.880853211E-1,2.676129102E0,2.809078305E0
1.075369487E1,-8.108956674E-1,-2.392739848E-1,2.715407188E0,2.843983126E0
1.076369387E1,-6.839378513E-1,-2.244150587E-1,2.562385554E0,2.661569618E0
1.077369187E1,-5.317115852E-1,-1.905992401E-1,2.323090593E0,2.390772926E0
1.078369087E1,-5.541292253E-1,-1.134137642E-1,2.234123452E0,2.304610483E0
1.079368887E1,-5.489918616E-1,-7.640918490E-2,2.204847028E0,2.273451307E0
1.080368787E1,-4.990484539E-1,-1.959838679E-2,2.133736115E0,2.191406686E0
1.081368587E1,-3.770414753E-1,1.154354573E-2,2.101842477E0,2.135423922E0
1.082368487E1,-2.120346576E-1,5.424058137E-2,2.130392677E0,2.141605401E0
1.083368387E1,-3.088888147E-1,1.099923025E-1,2.079770408E0,2.105458514E0
1.084368187E1,-2.085130258E-1,8.043974373E-2,2.073573529E0,2.085582751E0
1.085368087E1,-2.214767414E-1,1.011730659E-1,2.149501378E0,2.163248509E0
1.086367887E1,-5.505434203E-1,1.005665544E-1,2.211799368E0,2.281505672E0
1.087367787E1,-1.711886695E0,-7.877940858E-2,2.953161408E0,3.414370302E0
1.088367587E1,-3.603226778E-1,1.176560380E-1,2.145127076E0,2.178358452E0
1.089367487E1,1.098813151E-1,-6.461082847E-2,1.680142454E0,1.684970958E0
1.090367287E1,-2.406079540E-1,1.187078698E-1,1.571886519E0,1.594619382E0
1.091367187E1,-5.895276842E-1,1.949607513E-1,1.412848685E0,1.543273790E0
1.092366987E1,-5.044335933E-1,3.061042062E-1,1.173737326E0,1.313701772E0
1.093366887E1,-3.737418915E-1,2.837611364E-1,8.295678735E-1,9.530929864E-1
1.094366687E1,-3.341807999E-1,2.646735404E-1,4.055967915E-1,5.884196184E-1
1.095366587E1,7.202483296E-2,1.244766780E-1,1.775583047E-1,2.284928259E-1
1.096366387E1,2.036754781E-1,-3.014663775E-1,1.097382045E-1,3.800107244E-1
1.097366287E1,4.284803085E-1,-3.408976061E-1,6.895095170E-2,5.518702623E-1
1.098366087E1,1.562029575E-1,-4.260423850E-1,-3.198543906E-2,4.549005892E-1
1.099365987E1,-1.679757415E-1,-4.146807334E-1,-1.975183600E-1,4.890699980E-1
1.100365787E1,3.207579316E-1,-2.070140921E-2,-2.546339625E-1,4.100642071E-1
1.101365687E1,3.047117101E-1,-3.513738066E-2,-4.084285980E-1,5.107815399E-1
1.102365487E1,-1.182255842E-1,-2.500647655E-2,-6.929336464E-1,7.033915346E-1
1.103365387E1,5.389378667E-3,5.347698983E-3,-8.500155866E-1,8.500494931E-1
1.104365187E1,4.305243489E-1,1.720961282E-1,-7.377490461E-1,8.713449072E-1
1.105365087E1,3.175201821E-1,1.242019137E-1,-5.081785887E-1,6.119564196E-1
1.106364887E1,4.210938133E-1,5.855850345E-2,-3.404149550E-1,5.446388157E-1
1.107364787E1,4.636078951E-1,-1.838398954E-1,-4.401058888E-1,6.651485405E-1
1.108364587E1,3.202767058E-1,-8.683575712E-2,-4.129677916E-1,5.297735496E-1
1.109364487E1,2.810508057E-2,-8.824994277E-2,-1.580882460E-1,1.832207452E-1
1.110364287E1,-4.304237768E-2,-2.256606070E-1,-8.210718691E-2,2.439609517E-1
1.111364187E1,2.989242822E-2,-3.073087509E-1,-1.004341149E-1,3.246832874E-1
1.112364087E1,-4.279021651E-2,-9.481130445E-2,-2.462204039E-2,1.068944851E-1
1.113363887E1,-2.769853829E-1,1.193413608E-1,-2.508981764E-2,3.026429607E-1
1.114363787E1,-3.218437596E-1,2.427508123E-1,-2.117399579E-1,4.553517017E-1
1.115363587E1,-2.660619070E-1,2.446097518E-1,-4.083689564E-1,5.453329933E-1
1.116363487E1,-1.458269271E-1,2.159365777E-1,-6.398970616E-1,6.909141392E-1
1.117363287E1,2.270995702E-1,3.007271067E-1,-8.242591864E-1,9.063190464E-1
1.118363187E1,5.573786692E-1,2.527210276E-1,-1.013362234E0,1.183825120E0
1.119362987E1,2.647894067E-1,1.437975048E-1,-1.124321337E0,1.163997260E0
1.120362887E1,1.881727552E-1,-4.172827078E-1,-1.110880927E0,1.201495018E0
1.121362687E1,2.473404381E-1,-4.452761796E-1,-9.712868392E-1,1.096743494E0
1.122362587E1,2.467571783E-1,-1.102311430E-1,-8.363325173E-1,8.789152914E-1
1.123362387E1,-1.661177887E-1,-2.968560855E-1,-8.340246212E-1,9.007306612E-1
1.124362287E1,-9.388391778E-2,-2.490855944E-1,-9.201827592E-1,9.579113391E-1
1.125362087E1,-1.247425984E-1,-3.039990258E-1,-1.013685000E0,1.065614097E0
1.126361987E1,5.750673737E-1,-2.836636523E-1,-1.123531378E0,1.293634535E0
1.127361787E1,5.953613050E-1,9.168545606E-2,-1.664690017E0,1.770326004E0
1.128361687E1,9.193843219E-1,-3.968178185E-2,-2.788675139E0,2.936588362E0
1.129361487E1,6.128115892E-1,-1.606865476E-1,-2.334250588E0,2.418694693E0
1.130361387E1,7.099945061E-1,-1.053102725E-1,-2.607466418E0,2.704452545E0
1.131361187E1,4.902529259E-1,-4.423082426E-2,-2.249567703E0,2.302793770E0
1.132361087E1,2.635518435E-1,6.050201744E-2,-1.885402527E0,1.904694925E0
1.133360887E1,1.147882985E-1,1.865611347E-1,-1.762115740E0,1.775678262E0
1.134360787E1,2.445790905E-1,8.081537252E-2,-2.130123705E0,2.145641409E0
1.135360587E1,6.306318560E-1,6.963718641E-2,-2.120014454E0,2.212918246E0
1.136360487E1,6.363670975E-1,8.714487383E-2,-2.244242059E0,2.334347817E0
1.137360287E1,5.631121565E-1,-1.003090667E-1,-2.373590655E0,2.441534314E0
1.138360187E1,6.734923853E-1,-4.531191962E-2,-2.251701352E0,2.350702904E0
1.139359987E1,4.797194593E-1,-1.308312858E-1,-2.101042578E0,2.159080244E0
1.140359887E1,3.329444061E-1,-1.752655749E-1,-2.028430685E0,2.063032002E0
1.141359687E1,3.530545887E-1,-7.262418170E-2,-2.013548936E0,2.045556436E0
1.142359587E1,5.562694524E-1,-7.114604213E-2,-2.125724845E0,2.198454816E0
1.143359487E1,8.066519044E-1,-6.116013983E-3,-2.087735485E0,2.238160887E0
1.144359287E1,7.056769221E-1,-9.070932736E-2,-2.055529021E0,2.175179914E0
1.145359187E1,5.909631756E-1,-8.631043961E-2,-1.904984853E0,1.996410343E0
1.146358987E1,3.509827740E-1,-9.713396469E-2,-1.804900401E0,1.841273845E0
1.147358887E1,1.321811338E-1,-1.068383875E-1,-1.740977470E0,1.749253797E0
1.148358687E1,8.148635879E-2,-3.269445051E-2,-1.696166164E0,1.698437108E0
1.149358587E1,7.474101081E-2,-9.208980929E-3,-1.705145733E0,1.706807837E0
1.150358387E1,3.927720934E-1,3.458717594E-2,-1.716636681E0,1.761336903E0
1.151358287E1,3.673331970E-1,-5.952447262E-3,-1.782185138E0,1.819657378E0
1.152358087E1,3.304703030E-1,-5.051358439E-2,-1.816773173E0,1.847275563E0
1.153357987E1,4.019052981E-1,-2.458034243E-2,-1.727064021E0,1.773381570E0
1.154357788E1,4.738751672E-1,-4.921550252E-2,-1.255568524E0,1.342919267E0
1.155357688E1,4.933890800E-1,-8.548526958E-2,-1.057222783E0,1.169812177E0
1.156357488E1,4.369111164E-1,-8.587381706E-2,-9.250084662E-1,1.026599386E0
1.157357388E1,4.499321347E-1,-4.231779803E-2,-7.237174827E-1,8.532272362E-1
1.158357188E1,3.118317184E-1,-6.176494293E-2,-5.293525261E-1,6.174690483E-1
1.159357088E1,1.876947454E-1,-4.166389659E-2,-3.220704854E-1,3.750927822E-1
1.160356887E1,-1.160043731E-1,-6.039519612E-2,-2.071054548E-1,2.449433888E-1
1.161356787E1,-1.019383112E-1,2.941376053E-2,-3.920675039E-2,1.131094950E-1
1.162356587E1,-2.510557589E-1,-4.778375695E-2,4.880612433E-2,2.601813200E-1
1.163356492E1,-1.567990811E-1,5.434822496E-3,1.627350283E-1,2.260490623E-1
1.164356292E1,-2.591518137E-1,-2.956662867E-3,1.781155443E-1,3.144734512E-1
1.165356192E1,-1.290483418E-1,6.618995128E-2,2.127766693E-1,2.575043595E-1
1.166355992E1,-1.634298237E-1,7.570274988E-2,2.367321271E-1,2.974597680E-1
1.167355892E1,-8.207254216E-2,7.243653176E-2,2.833701038E-1,3.037788160E-1
1.168355692E1,-9.642263263E-2,3.701254617E-2,3.279539537E-1,3.438328786E-1
1.169355592E1,-1.170450313E-1,-3.385696834E-2,2.992657596E-1,3.231189077E-1
1.170355392E1,-2.430263624E-2,-3.702913765E-2,2.781935638E-1,2.816974159E-1
1.171355292E1,-7.716438934E-2,-1.457691128E-1,2.155640370E-1,2.714237117E-1
1.172355092E1,-3.585249513E-2,-1.672160785E-1,1.833458787E-1,2.507236119E-1
1.173354992E1,-9.076852128E-2,-1.859281188E-1,1.057790548E-1,2.323734026E-1
1.174354792E1,-7.361849159E-2,-1.777390933E-1,2.744858444E-2,1.943303691E-1
1.175354692E1,-4.439600810E-2,-1.143071274E-1,-7.222890079E-2,1.423170370E-1
1.176354492E1,1.647058323E-2,-9.488930997E-2,-1.777302128E-1,2.021467037E-1
1.177354392E1,1.499420513E-1,2.903690748E-3,-2.806388694E-1,3.181968340E-1
1.178354292E1,1.887813042E-1,1.984015089E-2,-3.931188333E-1,4.365483129E-1
1.179354092E1,2.787294611E-1,3.530196151E-2,-4.894090265E-1,5.643204198E-1
1.180353992E1,2.497049059E-1,-1.560570695E-2,-5.572180170E-1,6.108092964E-1
1.181353792E1,2.003253159E-1,-7.270643558E-2,-6.333557814E-1,6.682484597E-1
1.182353692E1,1.251331924E-1,-9.409834614E-2,-6.728934842E-1,6.908679003E-1
1.183353492E1,-6.105545640E-2,-1.400896391E-1,-7.272082704E-1,7.430913432E-1
1.184353392E1,-6.699593514E-2,-1.273262637E-1,-7.579605317E-1,7.714950424E-1
1.185353192E1,-1.187515412E-1,-1.321516602E-1,-8.130646920E-1,8.322500725E-1
1.186353092E1,-2.159172088E-2,-9.033750840E-2,-8.869781756E-1,8.918280955E-1
1.187352892E1,1.583722745E-1,6.126676016E-3,-9.497117829E-1,9.628456699E-1
1.188352792E1,2.531578329E-1,9.068499746E-2,-1.074323550E0,1.107467267E0
1.189352592E1,3.315439980E-1,1.284424058E-1,-1.183372368E0,1.235633050E0
1.190352492E1,3.551839985E-1,1.244460166E-1,-1.284999899E0,1.338979920E0
1.191352292E1,3.877445112E-1,8.666055992E-2,-1.443436055E0,1.497118400E0
1.192352192E1,4.869121192E-1,8.327429116E-2,-1.614892205E0,1.688755415E0
1.193351992E1,4.815258104E-1,5.338515200E-2,-1.807611170E0,1.871409956E0
1.194351892E1,4.851964000E-1,3.719890790E-2,-1.902972241E0,1.964205350E0
1.195351692E1,4.557224862E-1,3.067063781E-2,-1.911779317E0,1.965584857E0
1.196351592E1,3.797120449E-1,-1.880612561E-2,-1.922284425E0,1.959518389E0
1.197351392E1,5.210676062E-1,2.506197028E-2,-1.900233990E0,1.970540223E0
1.198351292E1,4.764966202E-1,-2.275632178E-2,-1.908317181E0,1.967038724E0
1.199351092E1,4.934045751E-1,-7.667998407E-2,-1.904652146E0,1.969016936E0
1.200350992E1,5.212688966E-1,-1.435509076E-1,-1.748967106E0,1.830632148E0
1.201350792E1,4.667643683E-1,-2.079649041E-1,-1.641894062E0,1.719573926E0
1.202350692E1,3.875620781E-1,-2.727988496E-1,-1.673967794E0,1.739767730E0
1.203350492E1,5.347395658E-1,-1.683228468E-1,-1.826984165E0,1.911059948E0
1.204350392E1,4.727019234E-1,-1.610725918E-1,-1.848143485E0,1.914425718E0
1.205350192E1,3.564772564E-1,-1.234301908E-1,-1.568453034E0,1.613181938E0
1.206350092E1,2.415930636E-1,-1.257374016E-1,-1.466774631E0,1.491846145E0
1.207349892E1,3.571048088E-1,-5.044064038E-2,-1.593756275E0,1.634052375E0
1.208349792E1,5.536097002E-1,-1.451108990E-2,-1.764762189E0,1.849616138E0
1.209349592E1,4.663122323E-1,-7.548271185E-2,-1.578197418E0,1.647377258E0
1.210349492E1,5.088323075E-1,-5.755929653E-2,-1.407380953E0,1.497646333E0
1.211349392E1,3.953359513E-1,-1.322461475E-1,-1.370078056E0,1.432094075E0
1.212349192E1,3.251817888E-1,-8.759335527E-2,-1.210935557E0,1.256893279E0
1.213349092E1,2.766545767E-1,-6.752167292E-2,-1.095699216E0,1.132101455E0
1.214348892E1,7.187719077E-2,-4.572380114E-2,-9.630913818E-1,9.668515947E-1
1.215348792E1,-1.483093625E-1,-6.468475007E-2,-8.372177857E-1,8.527094491E-1
1.216348592E1,-1.022074293E-1,5.031061292E-2,-6.820589948E-1,6.915070417E-1
1.217348492E1,-4.477651566E-2,1.295226424E-1,-7.478290612E-1,7.602824185E-1
1.218348292E1,3.857890561E-2,1.314446039E-1,-7.896343142E-1,8.014289525E-1
1.219348192E1,1.783156653E-1,1.782009868E-1,-6.279909611E-1,6.767013487E-1
1.220347992E1,2.697276726E-1,1.577556125E-1,-5.156893373E-1,6.029720916E-1
1.221347892E1,3.173036890E-1,1.422210041E-1,-2.876695615E-1,4.512895098E-1
1.222347692E1,2.007821296E-1,1.006592327E-1,-3.850274563E-2,2.278776122E-1
1.223347592E1,1.385683398E-1,1.901008381E-2,4.237477183E-3,1.399304266E-1
1.224347392E1,2.000142440E-1,-1.416579537E-1,1.189440608E-1,2.724341448E-1
1.225347292E1,-9.418110251E-2,-3.017148841E-1,1.548939121E-1,3.519859022E-1
1.226347092E1,5.708431989E-2,-1.788373100E-1,1.305636477E-1,2.286662833E-1
1.227346992E1,-1.396617691E-1,-2.878917922E-1,2.359100085E-1,3.975432378E-1
1.228346792E1,-1.843176860E-1,-1.406622734E-1,4.205358428E-1,4.802179501E-1
1.229346692E1,-3.676166408E-1,-2.595530789E-1,2.990558445E-1,5.403186037E-1
1.230346492E1,-5.458945915E-2,-1.825640694E-1,1.616176254E-1,2.498597713E-1
1.231346392E1,-2.374400787E-1,-2.086293488E-1,4.256539106E-2,3.189291594E-1
1.232346192E1,-2.892487483E-1,-1.485778045E-1,-2.274449944E-2,3.259716470E-1
1.233346092E1,1.313620850E-2,9.181760313E-2,-2.202570122E-1,2.389899238E-1
1.234345892E1,-9.733801425E-2,1.592994236E-1,-6.484497839E-1,6.747874611E-1
1.235345792E1,-9.890521422E-2,9.929723348E-2,-9.838823265E-1,9.938141750E-1
1.236345592E1,2.198501922E-1,2.104342929E-1,-8.767601663E-1,9.280760140E-1
1.237345492E1,2.458412120E-1,1.974621171E-1,-6.977412271E-1,7.656840140E-1
1.238345292E1,2.313408481E-1,9.979214547E-2,-4.792377949E-1,5.414295193E-1
1.239345192E1,4.111921383E-1,1.150375726E-1,-3.358032560E-1,5.432093929E-1
1.240344992E1,3.650399190E-1,6.494721696E-2,-2.085812920E-1,4.254156072E-1
1.241344892E1,2.543329771E-1,3.447923999E-2,-1.015556109E-1,2.760210560E-1
1.242344692E1,2.582802862E-2,-1.479273384E-1,-3.314201832E-3,1.502017591E-1
1.243344592E1,-4.251408175E-2,-7.389002167E-2,1.642178822E-1,1.850262016E-1
1.244344392E1,-1.927122411E-1,-1.409568178E-1,4.001968879E-1,4.660089928E-1
1.245344292E1,-1.191128992E-1,-1.489681610E-1,7.473969519E-1,7.713505036E-1
1.246344092E1,-1.784736863E-1,-4.605514641E-2,1.360952892E0,1.373377846E0
1.247343992E1,-6.580823408E-1,-2.524753715E-1,1.717309695E0,1.856332074E0
1.248343792E1,5.402068587E-1,-1.084742557E-2,1.411254149E0,1.511151677E0
1.249343692E1,6.471525791E-1,2.883004395E-1,1.523535892E0,1.680203922E0
1.250343592E1,-1.783223896E-1,1.740097574E-1,1.555961042E0,1.575783308E0
1.251343392E1,-5.806273448E-1,2.672126390E-1,1.601212059E0,1.724068086E0
1.252343292E1,-8.419239172E-1,3.972429476E-1,1.769519484E0,1.999459188E0
1.253343092E1,-2.379958127E0,1.212401619E-1,3.333335091E0,4.097563019E0
1.254342992E1,-5.149392857E-1,-1.141369004E-1,1.839962060E0,1.914066374E0
1.255342792E1,3.644014031E-2,-3.615513240E-1,2.185992097E0,2.215989325E0
1.256342692E1,-1.909462358E-1,-2.485383864E-1,1.771751951E0,1.799260062E0
1.257342492E1,3.068653858E-1,-6.807164010E-3,1.869005765E0,1.894042041E0
1.258342392E1,3.696463555E-1,3.593657079E-1,1.935326055E0,2.002815288E0
1.259342192E1,-5.617358682E-1,-1.982885114E-1,1.866685590E0,1.959433748E0
1.260342092E1,-7.048387237E-1,-3.238169025E-1,1.898987364E0,2.051294230E0
1.261341892E1,-1.294156493E0,-1.848307426E-1,1.849431626E0,2.264818044E0
1.262341792E1,-1.286716496E0,1.582302602E-1,1.582048395E0,2.045373628E0
1.263341562E1,-1.079102918E0,-2.073544183E-2,1.441732176E0,1.800967721E0
1.264341462E1,-9.930997311E-1,-1.627053354E-1,1.370310776E0,1.700138737E0
1.265341262E1,-1.846765296E0,-7.550126579E-1,3.128113609E0,3.710213056E0
1.266341162E1,-1.826849972E-1,1.717436872E-2,9.991254330E-2,2.089288957E-1
1.267340962E1,2.188252046E0,6.580093237E-1,1.354297006E-1,2.289053186E0
1.268340862E1,2.865537666E-1,9.956118411E-1,-1.809602147E-1,1.051714124E0
1.269340662E1,6.414797567E-1,1.292034758E-1,-5.999009371E-2,6.571062530E-1
1.270340562E1,5.987474276E-1,1.527475819E-1,1.325633955E-1,6.319836704E-1
1.271340362E1,8.145250341E-1,2.143354273E-1,1.436742747E-1,8.544196883E-1
1.272340262E1,1.428451395E-1,-6.586029623E-1,-1.668619931E-2,6.741224110E-1
1.273340062E1,1.005840668E0,4.524913514E-3,1.633022082E-1,1.019020871E0
1.274339962E1,4.220673747E-1,2.795581212E-3,1.367242742E-1,4.436690334E-1
1.275339762E1,-6.177612573E-1,-4.545261459E-1,6.317045277E-1,9.936164243E-1
1.276339662E1,-2.071071359E0,-6.658385993E-1,1.113207534E0,2.443748888E0
1.277339462E1,-3.157799046E-1,-5.720239710E-2,1.360074055E-1,3.485499630E-1
1.278339362E1,1.158434285E-1,1.441128981E-1,3.009971201E-1,3.532527334E-1
1.279339162E1,-4.046056885E-1,1.190164384E-1,-4.113639003E-1,5.891442389E-1
1.280339062E1,2.659741987E-1,1.432252085E-1,-5.780159783E-1,6.521949141E-1
1.281338862E1,-1.172847672E-1,3.901849928E-1,-8.720245063E-1,9.625106674E-1
1.282338762E1,1.540770561E-1,3.993208288E-1,-6.507196730E-1,7.788664561E-1
1.283338562E1,5.202047034E-1,4.089628874E-1,-3.229861593E-1,7.363311998E-1
1.284338462E1,2.543967117E-1,1.127028890E-1,6.707574964E-2,2.862145774E-1
1.285338262E1,-3.408469181E-1,-6.052762093E-1,2.359778363E-1,7.336357750E-1
1.286338162E1,-1.789704072E-1,-6.619479351E-1,3.839457214E-2,6.867893553E-1
1.287337962E1,3.788485573E-1,9.103171907E-2,9.226321578E-3,3.897411042E-1
1.288337862E1,4.645263465E-1,-6.590170182E-2,-3.311260682E-1,5.742579855E-1
1.289337662E1,-7.086135399E0,6.579662005E-1,1.587968350E1,1.740145346E1
1.290337562E1,-4.226351394E-1,-1.442825898E0,-1.365636044E1,1.373886995E1
1.291337462E1,6.052757562E0,-8.401106226E-1,-2.606551328E0,6.643475731E0
1.292337262E1,-4.656948248E0,1.863449010E0,9.167576357E0,1.045007490E1
1.293337162E1,4.412554514E-1,1.268594275E-1,-3.413734306E0,3.444471164E0
1.294336962E1,9.670803523E-1,5.249982142E-1,6.547565907E-1,1.280458405E0
1.295336862E1,-1.008798628E0,-2.158735374E-1,-1.672765022E0,1.965303761E0
1.296336662E1,5.715230839E-1,-6.172152004E-1,-2.167807841E0,2.325292255E0
1.297336562E1,-1.075429697E0,1.206928991E-1,-1.438835465E0,1.800378656E0
1.298336362E1,-7.544609731E-1,1.937279938E-1,2.156973535E-1,8.082494936E-1
1.299336262E1,-4.323434177E-1,-1.524277118E-1,1.334515291E0,1.411058503E0
1.300336062E1,1.426166596E-1,1.376037137E-1,1.422196628E0,1.435937862E0
1.301335962E1,8.575903621E-1,1.217574395E-1,4.347872615E-1,9.691883543E-1
1.302335762E1,1.031953017E0,-2.558777384E-1,-8.703171194E-2,1.066759095E0
1.303335662E1,9.779392165E-1,-3.836431280E-1,-4.121181911E-1,1.128445198E0
1.304335462E1,7.067561719E-1,-1.993205084E-1,-5.072529745E-1,8.924900737E-1
1.305335362E1,-5.299243838E-2,-1.708545450E-1,-2.727796268E-1,3.262026960E-1
1.306335162E1,-2.828114024E-1,-1.085139802E-1,-2.609366763E-1,3.998068562E-1
1.307335062E1,-1.215711417E0,3.265272697E-1,2.571125972E-1,1.284788385E0
1.308334862E1,-1.479033757E0,1.501320950E-1,3.447459877E-1,1.526083319E0
1.309334762E1,-7.086296198E-1,5.383285868E-1,7.673184156E-2,8.932196711E-1
1.310334562E1,-3.380803080E-1,3.223345237E-1,-4.143670303E-1,6.244180295E-1
1.311334462E1,-1.288020279E-1,2.712294203E-1,-4.219456065E-1,5.178739766E-1
1.312334262E1,2.332695521E-1,1.464782704E-1,-1.288977760E-1,3.041138016E-1
1.313334162E1,6.774013951E-1,-2.309381394E-1,2.339716566E-1,7.529593684E-1
1.314333962E1,7.150005998E-1,-4.784955274E-1,3.507627726E-1,9.290954472E-1
1.315333862E1,7.131306602E-1,-4.558873777E-1,5.427327096E-2,8.481357366E-1
1.316333662E1,7.836645994E-1,-5.377565464E-2,8.907297492E-2,7.905415993E-1
1.317333562E1,5.321866715E-1,5.629838102E-2,7.436664283E-2,5.402985828E-1
1.318333362E1,3.732321605E-1,1.253648518E-1,-1.240194440E-1,4.127946392E-1
1.319333262E1,1.387700687E-1,2.702906316E-1,-3.283767074E-1,4.473761499E-1
1.320333062E1,-1.771532388E-1,3.055461443E-1,-2.853511405E-1,4.540561526E-1
1.321332962E1,-4.147007601E-1,1.747375347E-1,2.464835286E-2,4.506855531E-1
1.322332762E1,-5.257423089E-1,6.730610252E-2,8.587220907E-2,5.369442458E-1
1.323332662E1,-5.586567244E-1,-1.161316597E-1,2.086052656E-2,5.709807875E-1
1.324332462E1,-4.430195564E-1,-2.197783811E-1,1.043201745E-2,4.946490586E-1
1.325332362E1,-3.392525285E-1,-1.847431257E-1,1.022081602E-1,3.995857963E-1
1.326332162E1,-2.378087457E-1,-1.413456667E-1,5.440717220E-2,2.819427910E-1
1.327332062E1,-2.124112183E-1,-4.231655549E-1,-6.615013540E-2,4.780831025E-1
1.328331862E1,5.578828454E-2,-5.359134858E-2,5.693843186E-2,9.605389298E-2
1.329331762E1,6.228746474E-2,2.096216944E-1,2.419870198E-2,2.200149091E-1
1.330331562E1,1.786438403E-1,2.398777829E-1,-1.976592779E-2,2.997426635E-1
1.331331462E1,3.338929707E-1,2.176188216E-1,-7.159564734E-2,4.049301225E-1
1.332331362E1,3.221483995E-1,1.699205437E-1,-1.299251318E-1,3.866951284E-1
1.333331162E1,2.472619392E-1,5.743059383E-2,-1.058240783E-1,2.750190452E-1
1.334331062E1,2.684721293E-1,-2.820321330E-2,-3.630594671E-2,2.723799317E-1
1.335330862E1,2.655071524E-1,-1.081346969E-1,2.575289190E-2,2.878374056E-1
1.336330762E1,1.260335174E-1,-1.591372547E-1,2.507987738E-2,2.045436716E-1
1.337330562E1,8.046514258E-2,-9.400804320E-2,-3.666262686E-2,1.290592870E-1
1.338330462E1,8.070078537E-2,-8.727060724E-3,2.455538213E-2,8.480415756E-2
1.339330262E1,-4.763989717E-2,3.307540574E-2,4.393247008E-2,7.275715906E-2
1.340330162E1,-1.699797285E-1,7.614923048E-2,-2.165925622E-2,1.875124976E-1
1.341329962E1,-2.229017079E-1,1.042098722E-1,-4.102348030E-2,2.494549955E-1
1.342329862E1,-2.555176230E-1,8.516682473E-2,-1.941860318E-2,2.700365269E-1
1.343329662E1,-2.624974443E-1,9.218400428E-2,-3.529496312E-2,2.804434584E-1
1.344329562E1,-2.654654910E-1,6.678572774E-2,-5.094678998E-2,2.784382081E-1
1.345329362E1,-2.417364666E-1,1.099383437E-2,-3.235556781E-2,2.441398502E-1
1.346329262E1,-1.041406649E-1,2.785775249E-2,-2.341868341E-2,1.103166678E-1
1.347329062E1,2.810625002E-2,4.767094223E-2,-1.853508890E-2,5.836119895E-2
1.348328962E1,1.535382351E-1,3.968140726E-2,-2.132070243E-2,1.600099249E-1
1.349328762E1,2.494118142E-1,4.777893299E-2,9.936173558E-3,2.541413132E-1
1.350328662E1,2.712286529E-1,1.384796997E-2,2.182005465E-2,2.724570851E-1
1.351328462E1,2.823892334E-1,-3.841856400E-2,-1.097522378E-3,2.849927539E-1
1.352328362E1,2.791162544E-1,-5.942383655E-2,5.388209224E-3,2.854226842E-1
1.353328162E1,2.558773729E-1,3.270200620E-2,8.632829189E-3,2.581030355E-1
1.354328062E1,1.046853331E-1,3.962568512E-2,7.376847267E-3,1.121767880E-1
1.355327863E1,9.449685216E-3,2.016431504E-2,-1.888007462E-2,2.919509153E-2
1.356327763E1,7.724171877E-3,1.278336558E-2,-2.113885403E-2,2.588297542E-2
1.357327563E1,7.725048959E-3,2.934077997E-2,3.603639007E-3,3.055395170E-2
1.358327463E1,-9.659337133E-2,1.327361807E-2,5.717407465E-3,9.766860842E-2
1.359327263E1,-1.613252646E-1,-3.723118636E-2,2.943546832E-2,1.681619726E-1
1.360327163E1,-1.037271206E-1,-3.704488859E-2,6.796686530E-2,1.294261724E-1
1.361326962E1,-1.505627333E-1,-3.847540076E-2,1.764666295E-1,2.351381816E-1
1.362326863E1,-3.072368301E-1,-8.814334986E-2,3.902338171E-1,5.044265575E-1
1.363326625E1,-3.424822381E-1,-6.410272370E-2,6.239844489E-1,7.146746358E-1
1.364326525E1,-3.429330584E-1,-1.114326819E-1,7.859172392E-1,8.646885173E-1
1.365326325E1,-4.056122866E-1,-8.137721686E-2,9.506069916E-1,1.036724279E0
1.366326225E1,-3.978021607E-1,4.077865555E-2,1.089928014E0,1.160970514E0
1.367326025E1,-2.858380674E-1,6.870557877E-2,1.180556933E0,1.216609440E0
1.368325925E1,-2.528872530E-1,4.622876303E-2,1.364845383E0,1.388845557E0
1.369325725E1,-2.861102553E-1,4.967689351E-2,1.573482808E0,1.600054693E0
1.370325625E1,-2.206981847E-1,9.165234620E-2,1.715124591E0,1.731692872E0
1.371325425E1,-1.500686435E-1,1.202587981E-1,1.858158011E0,1.868082966E0
1.372325325E1,-2.330241153E-1,1.204496914E-1,1.971103998E0,1.988481666E0
1.373325125E1,-3.077202487E-1,6.438376464E-2,2.029038795E0,2.053249973E0
1.374325025E1,-3.525382796E-1,3.099790829E-2,2.114007025E0,2.143424785E0
1.375324825E1,-5.009113768E-1,6.431900673E-3,2.158799620E0,2.216160955E0
1.376324725E1,-6.111398703E-1,3.680581969E-2,2.108821129E0,2.195899170E0
1.377324525E1,-6.575015661E-1,6.958601413E-2,2.045815042E0,2.150002258E0
1.378324425E1,-6.335374837E-1,7.836612920E-2,2.042647605E0,2.140074819E0
1.379324225E1,-6.182281575E-1,1.038974208E-1,1.953388104E0,2.051517929E0
1.380324125E1,-5.171416394E-1,1.102722106E-1,1.766315210E0,1.843763775E0
1.381323925E1,-4.042212340E-1,1.446362696E-1,1.626946240E0,1.682637372E0
1.382323825E1,-2.930669801E-1,1.442011179E-1,1.514458090E0,1.549279034E0
1.383323725E1,-2.682033035E-1,7.678287679E-2,1.556237031E0,1.581044692E0
1.384323525E1,-3.207887757E-1,-3.447653566E-2,1.595946642E0,1.628232094E0
1.385323425E1,-3.879332301E-1,-5.763429620E-2,1.620468695E0,1.667253038E0
1.386323225E1,-4.298223907E-1,-3.929848772E-2,1.669736749E0,1.724619514E0
1.387323125E1,-4.585421598E-1,-5.846299284E-2,1.752949644E0,1.812873765E0
1.388322925E1,-5.432547198E-1,-1.883020883E-2,1.653531775E0,1.740588291E0
1.389322825E1,-3.273746409E-1,2.405495184E-2,1.656513271E0,1.688724078E0
1.390322625E1,-2.357632434E-1,6.030756097E-2,1.705997672E0,1.723267062E0
1.391322525E1,-2.531363444E-1,1.025550736E-1,1.736308469E0,1.757658286E0
1.392322325E1,-3.704757831E-1,3.068036794E-2,1.667095562E0,1.708040164E0
1.393322225E1,-1.487758242E-1,2.057865970E-1,1.675557652E0,1.694690478E0
1.394322025E1,-4.824182416E-1,-3.163495330E-2,1.662079820E0,1.730964315E0
1.395321925E1,-3.252301745E-1,-1.427917654E-1,1.579780260E0,1.619218893E0
1.396321725E1,-4.068438564E-1,-9.132601675E-2,1.611437670E0,1.664510057E0
1.397321625E1,-4.227041365E-1,1.750129203E-2,1.470218056E0,1.529877843E0
1.398321425E1,-3.543538401E-1,-8.642622362E-2,1.354934937E0,1.403169562E0
1.399321325E1,-2.500915530E-1,-7.684165958E-2,1.165781604E0,1.194779132E0
1.400321125E1,-3.267763245E-1,3.878461797E-2,7.600579280E-1,8.282361177E-1
1.401321025E1,-1.312362237E-1,1.403338152E-1,4.460536766E-1,4.856752089E-1
1.402320825E1,5.155416951E-2,1.029840674E-1,2.924426436E-1,3.143028004E-1
1.403320725E1,-5.401350841E-2,1.036002634E-1,2.112704265E-1,2.414242465E-1
1.404320525E1,-2.242641091E-2,9.360496905E-2,1.407880890E-1,1.705465337E-1
1.405320425E1,9.555037424E-2,7.487791789E-2,1.336188179E-1,1.805285714E-1
1.406320225E1,-2.638716862E-2,6.931560782E-2,-6.775753498E-3,7.447715751E-2
1.407320125E1,1.455543007E-1,-2.448536173E-2,-1.247287112E-1,1.932429528E-1
1.408319925E1,1.468914127E-1,-1.136370274E-1,-2.202441484E-1,2.880936411E-1
1.409319825E1,-3.124152705E-2,-1.737012985E-1,-3.632541794E-1,4.038586051E-1
1.410319625E1,1.687445042E-1,-6.798069762E-2,-4.915397519E-1,5.241253768E-1
1.411319525E1,1.028089616E-1,2.608230027E-2,-4.645414031E-1,4.764962582E-1
1.412319325E1,-2.039103900E-1,-5.672314469E-2,-3.478368258E-1,4.071700133E-1
1.413319225E1,1.384372160E-2,5.007537212E-2,-1.857759815E-1,1.929038798E-1
1.414319025E1,2.134331654E-1,8.678489548E-2,-3.081003177E-1,3.847221594E-1
1.415318925E1,1.945631772E-1,2.975976038E-2,-5.282035482E-1,5.636838312E-1
1.416318725E1,3.022175802E-1,9.040262262E-2,-5.449885654E-1,6.296988458E-1
1.417318625E1,2.515770382E-1,3.254803257E-2,-4.703471035E-1,5.343938419E-1
1.418318425E1,2.552075744E-2,3.771819547E-4,-4.302305263E-1,4.309869570E-1
1.419318325E1,-2.686529544E-1,-4.887689391E-2,-5.014478588E-1,5.709757576E-1
1.420318125E1,-1.618778265E-1,4.085910045E-2,-3.684505999E-1,4.045117320E-1
1.421318025E1,-2.479751533E-1,9.477552680E-2,-2.732713777E-1,3.809873003E-1
1.422317825E1,-2.474845719E-1,6.241801296E-2,-3.758192611E-1,4.542958713E-1
1.423317725E1,1.880762762E-1,5.684605499E-2,-4.393609536E-1,4.812922264E-1
1.424317525E1,2.768655150E-1,3.738733443E-2,-5.464135319E-1,6.136937950E-1
1.425317425E1,3.676736511E-1,1.940731075E-2,-6.909005696E-1,7.828819544E-1
1.426317225E1,5.142808892E-1,1.801143419E-2,-6.536660850E-1,8.319186231E-1
1.427317125E1,2.318084791E-1,-1.105096624E-1,-5.889958799E-1,6.425447089E-1
1.428316925E1,1.932357131E-1,-1.538791643E-1,-4.186050922E-1,4.860545867E-1
1.429316825E1,7.828486204E-2,-1.303868791E-1,-2.948236299E-1,3.317381959E-1
1.430316625E1,-4.957079396E-2,-1.405594995E-1,-3.130447233E-1,3.467149193E-1
1.431316525E1,2.366792098E-2,-1.470579944E-1,-4.220824313E-1,4.475933456E-1
1.432316325E1,4.826116383E-2,-1.269441573E-1,-6.398760116E-1,6.541293979E-1
1.433316225E1,8.199682072E-2,-1.061087738E-1,-9.181935364E-1,9.279342222E-1
1.434316025E1,1.697937870E-1,-1.214702407E-1,-1.037189053E0,1.057991531E0
1.435315925E1,7.206064716E-2,-7.828178312E-2,-1.205422218E0,1.210108878E0
1.436315725E1,2.705340037E-1,4.327939091E-2,-1.494479324E0,1.519384810E0
1.437315625E1,5.873550050E-1,1.513258406E-1,-2.712206422E0,2.779199361E0
1.438315525E1,4.029782622E-1,7.396818249E-2,-2.213061782E0,2.250667728E0
1.439315325E1,4.630307749E-1,-5.005730057E-2,-2.767865483E0,2.806774406E0
1.440315225E1,7.384841873E-1,8.148042935E-2,-2.660666140E0,2.762452219E0
1.441315025E1,4.599658106E-1,-2.189488074E-2,-2.370389305E0,2.414703582E0
1.442314925E1,4.706453115E-1,9.939247001E-2,-2.132570765E0,2.186148197E0
1.443314725E1,3.606144539E-1,1.292036037E-1,-2.091000570E0,2.125798612E0
1.444314625E1,4.172023451E-1,5.742559629E-2,-2.440322589E0,2.476394523E0
1.445314425E1,5.481962018E-1,3.841439785E-2,-2.523368254E0,2.582514683E0
1.446314325E1,4.888108563E-1,-4.595405353E-2,-2.613244051E0,2.658964517E0
1.447314125E1,6.134274472E-1,-3.979231250E-3,-2.584959900E0,2.656751165E0
1.448314025E1,6.905396502E-1,3.043281144E-2,-2.514029081E0,2.607319195E0
1.449313825E1,3.357518005E-1,-4.997596032E-2,-2.460338193E0,2.483644679E0
1.450313725E1,4.553288224E-1,-3.582383464E-2,-2.371616635E0,2.415196296E0
1.451313525E1,6.770651802E-1,7.256495124E-2,-2.157664091E0,2.262564311E0
1.452313425E1,3.796215592E-1,-1.335004849E-1,-2.110854791E0,2.148870135E0
1.453313225E1,7.374588780E-1,3.011615731E-2,-1.940991422E0,2.076583800E0
1.454313125E1,4.543536530E-1,-1.156493010E-1,-1.824741758E0,1.884010214E0
1.455312925E1,2.991948621E-1,-2.381749275E-1,-1.549722648E0,1.596209619E0
1.456312825E1,4.034530561E-1,-1.498802079E-1,-1.419964162E0,1.483757617E0
1.457312625E1,1.129967116E-1,-2.274438981E-1,-1.392102179E0,1.415078606E0
1.458312525E1,2.730754960E-1,-1.466951107E-1,-1.317946036E0,1.353909685E0
1.459312325E1,2.337020999E-1,-2.503260629E-2,-1.213634632E0,1.236184583E0
1.460312225E1,3.067461026E-1,-5.704281379E-2,-7.947471195E-1,8.537974222E-1
1.461312025E1,4.560537310E-1,5.360591180E-2,-6.355303609E-1,7.840646906E-1
1.462311925E1,2.613722938E-1,6.911714053E-2,-5.991928393E-1,6.573619351E-1
1.463311725E1,4.043783779E-1,1.953504683E-1,-4.274642086E-1,6.200075222E-1
1.464311650E1,1.042150708E-1,6.635939263E-2,-2.755851209E-1,3.020124316E-1
1.465311450E1,8.886890709E-2,-8.547779610E-3,-5.293718219E-2,1.037935087E-1
1.466311350E1,-6.478466436E-2,-7.369801372E-2,1.271646613E-1,1.606216083E-1
1.467311150E1,-1.756149825E-1,-1.443201910E-1,2.677258784E-1,3.512066138E-1
1.468311050E1,-1.800084342E-1,-9.442521463E-2,4.206913787E-1,4.672262767E-1
1.469310850E1,-4.004154275E-1,-6.085178143E-2,4.758645362E-1,6.248859982E-1
1.470310750E1,-2.274293531E-1,4.461595478E-2,5.483752728E-1,5.953403513E-1
1.471310550E1,-3.746701370E-1,3.746070785E-2,5.411644864E-1,6.592723394E-1
1.472310450E1,-1.568720251E-1,1.036554831E-1,5.165196419E-1,5.496779347E-1
1.473310250E1,-1.729749647E-1,1.847789582E-1,3.310173100E-1,4.166966059E-1
1.474310150E1,-6.850451678E-2,9.211957527E-2,8.829237163E-2,1.448255083E-1
1.475309950E1,-3.114344001E-2,-6.534252528E-2,-4.935985565E-2,8.761252659E-2
1.476309850E1,-9.690897480E-2,-1.126876954E-1,-4.802961409E-2,1.561944619E-1
1.477309650E1,-3.246578783E-2,-5.482997158E-2,-1.321967751E-1,1.467526508E-1
1.478309550E1,-1.183146080E-1,-2.544976858E-2,-2.099974877E-1,2.423736414E-1
1.479309350E1,-2.840825871E-2,-2.987758177E-2,-2.240799218E-1,2.278409762E-1
1.480309250E1,-8.548000708E-2,-2.504426418E-2,-1.447519165E-1,1.699622432E-1
1.481309050E1,5.841806978E-2,-3.406569567E-3,-3.105748594E-2,6.624834357E-2
1.482308950E1,1.295343916E-1,5.657833474E-2,-7.135064900E-2,1.583388193E-1
1.483308750E1,2.084862748E-1,6.064651676E-2,-8.560440660E-2,2.333937471E-1
1.484308650E1,2.759067178E-1,5.094869946E-2,-4.488848984E-2,2.841395140E-1
1.485308450E1,1.126885633E-1,1.956749705E-2,-1.164940774E-2,1.149665514E-1
1.486308350E1,1.541368438E-1,4.290747145E-2,2.670891166E-2,1.622115400E-1
1.487308150E1,-5.464018375E-2,1.054070896E-1,1.366260409E-2,1.195109659E-1
1.488308050E1,-1.429764095E-1,1.019800457E-1,9.906937480E-3,1.758986378E-1
1.489307850E1,-1.609880264E-1,1.285427404E-1,2.869111776E-2,2.079989447E-1
1.490307750E1,-2.075901890E-1,5.984997980E-2,-4.842196226E-2,2.214054947E-1
1.491307550E1,8.401571810E-3,3.846648376E-2,-1.053720886E-1,1.124879275E-1
1.492307450E1,-8.874772355E-2,-1.821541065E-2,-1.628402781E-1,1.863462256E-1
1.493307250E1,-4.696381286E-2,-3.455446808E-2,-2.188928568E-1,2.265252607E-1
1.494307150E1,-9.236905038E-2,-4.184607390E-2,-2.694332653E-1,2.878843862E-1
1.495306950E1,-6.206322402E-2,-6.862153418E-2,-3.391776842E-1,3.515711310E-1
1.496306850E1,1.261984089E-1,-1.511698022E-2,-4.251843792E-1,4.437750757E-1
1.497306650E1,1.501317935E-1,-7.228188205E-2,-5.308476591E-1,5.563842764E-1
1.498306550E1,2.664082083E-1,-1.011305731E-1,-6.282336205E-1,6.898392626E-1
1.499306350E1,2.362766290E-1,-1.014062876E-1,-7.024581760E-1,7.480356740E-1
1.500306250E1,2.097808483E-1,-8.674654140E-2,-8.041482729E-1,8.355760956E-1
1.501306050E1,1.973783192E-1,-4.507381003E-3,-9.086637443E-1,9.298646771E-1
1.502305950E1,1.465284468E-1,8.376401374E-3,-1.046476770E0,1.056718685E0
1.503305750E1,1.892547825E-1,2.680043885E-2,-1.166426552E0,1.181984153E0
1.504305650E1,1.798300941E-1,2.050216533E-3,-1.304615554E0,1.316952850E0
1.505305550E1,1.960292204E-1,-2.327578294E-2,-1.443107441E0,1.456546705E0
1.506305350E1,2.853585957E-1,2.707718574E-2,-1.534774826E0,1.561312418E0
1.507305250E1,2.290962481E-1,-2.668047957E-3,-1.595394080E0,1.611761297E0
1.508305050E1,2.599208687E-1,-2.435671384E-2,-1.640319992E0,1.660964112E0
1.509304950E1,2.863846359E-1,-2.585320819E-2,-1.653435296E0,1.678252909E0
1.510304750E1,3.017498030E-1,-1.613444142E-2,-1.712791552E0,1.739243561E0
1.511304650E1,4.437549900E-1,1.665733782E-2,-1.798277845E0,1.852295647E0
1.512304450E1,5.072722703E-1,3.273770163E-2,-1.886901169E0,1.954173210E0
1.513304350E1,5.513734326E-1,5.837465420E-2,-1.945534124E0,2.022998589E0
1.514304150E1,6.177150643E-1,8.453299569E-2,-1.916168822E0,2.015048556E0
1.515304050E1,5.478531164E-1,7.382572970E-2,-1.825331742E0,1.907204563E0
1.516303850E1,4.641554868E-1,2.120666346E-2,-1.773462262E0,1.833318966E0
1.517303750E1,5.303151239E-1,6.838907995E-2,-1.744393998E0,1.824505856E0
1.518303550E1,5.060614581E-1,8.646175459E-2,-1.771506953E0,1.844399826E0
1.519303450E1,3.696489868E-1,2.872335054E-3,-1.632054368E0,1.673394778E0
1.520303250E1,3.469660293E-1,4.329101225E-2,-1.339070272E0,1.383968472E0
1.521303150E1,1.310730864E-1,-7.170207580E-2,-1.203309034E0,1.212548545E0
1.522302950E1,2.761531779E-1,-8.577524579E-2,-1.271760634E0,1.304221254E0
1.523302850E1,3.893805622E-1,-7.527561078E-2,-1.487539263E0,1.539498847E0
1.524302650E1,2.686428680E-1,-2.154103648E-1,-1.458723015E0,1.498814015E0
1.525302550E1,3.871888795E-1,-2.146915410E-1,-1.274463217E0,1.349171663E0
1.526302350E1,2.644531918E-1,-2.319506396E-1,-1.178829666E0,1.230193469E0
1.527302250E1,2.533041595E-1,-1.898927503E-1,-1.070910530E0,1.116723608E0
1.528302050E1,3.673007450E-1,-7.870391554E-2,-8.598003173E-1,9.382754016E-1
1.529301950E1,2.455951904E-1,-9.408858860E-2,-7.436097103E-1,7.887490484E-1
1.530301750E1,2.595143411E-1,-7.632067267E-2,-6.326915377E-1,6.880923777E-1
1.531301650E1,3.138668418E-1,3.152670672E-2,-5.127844405E-1,6.020417013E-1
1.532301450E1,9.666426882E-2,-1.344501458E-2,-4.610260570E-1,4.712427978E-1
1.533301350E1,5.504174128E-2,3.176974989E-2,-4.510682487E-1,4.555232983E-1
1.534301150E1,-4.345840707E-2,4.635035771E-2,-6.058832234E-1,6.092056050E-1
1.535301050E1,-2.382129344E-1,-6.291792249E-2,-5.482980895E-1,6.011113558E-1
1.536300850E1,-2.681430772E-1,-7.090847159E-2,-5.088089186E-1,5.794956746E-1
1.537300750E1,-1.717647372E-1,3.079717521E-2,-4.817608684E-1,5.123915742E-1
1.538300550E1,-1.421741715E-1,5.202377401E-4,-4.524283111E-1,4.742416498E-1
1.539300450E1,-1.214517854E-1,-4.794357779E-2,-5.549399418E-1,5.700942569E-1
1.540300250E1,1.427002747E-1,1.069351589E-1,-7.215604448E-1,7.432684388E-1
1.541300150E1,1.379016110E-1,1.181028201E-1,-7.693450606E-1,7.904789388E-1
1.542299950E1,2.374756005E-1,1.577995214E-1,-7.808114505E-1,8.312411630E-1
1.543299850E1,2.074065864E-1,1.427054367E-1,-8.821583158E-1,9.173797621E-1
1.544299650E1,1.981750023E-1,1.114717212E-1,-7.877544343E-1,8.199123886E-1
1.545299550E1,2.801762085E-1,4.556609991E-2,-6.403893971E-1,7.004809471E-1
1.546299350E1,1.999850079E-1,-1.948312355E-1,-5.680955923E-1,6.329974847E-1
1.547299250E1,4.186726275E-1,-7.665151544E-3,-5.229094791E-1,6.699103275E-1
1.548299050E1,4.687601691E-1,1.067760690E-1,-3.789434284E-1,6.121563093E-1
1.549298950E1,2.768028036E-2,-5.783654591E-3,-1.568574071E-1,1.593859929E-1
1.550298750E1,-4.344642028E-2,1.074998538E-1,4.863129258E-2,1.257331007E-1
1.551298650E1,-4.898680329E-2,3.743677081E-2,1.851403892E-2,6.437381721E-2
1.552298450E1,-1.019950292E-1,-1.472272256E-2,-2.505941212E-2,1.060552623E-1
1.553298350E1,-2.819505461E-1,-1.360533975E-1,1.339228731E-1,3.405025306E-1
1.554298150E1,2.653846532E-2,1.786608337E-1,2.728907239E-1,3.272511740E-1
1.555298050E1,-6.884293900E-1,-1.504573920E-1,1.146307452E0,1.345582858E0
1.556297850E1,3.604846457E-1,-1.517679358E-1,3.747995067E-1,5.417170445E-1
1.557297750E1,9.588517119E-1,1.478674227E-1,5.984590137E-1,1.139918669E0
1.558297550E1,-5.943446204E-2,2.732521732E-2,4.194956231E-1,4.245653078E-1
1.559297450E1,1.728377013E-1,2.851880580E-1,3.887948173E-1,5.122172482E-1
1.560297250E1,-5.412007391E-2,1.642830421E-1,4.117737901E-1,4.466268628E-1
1.561297150E1,-5.288148746E-2,3.215321761E-1,2.360292917E-1,4.023545930E-1
1.562296950E1,-6.240500839E-1,-9.907323944E-2,2.825900853E-1,6.921785682E-1
1.563296850E1,-9.300915970E-1,-5.565239525E-1,6.907117045E-1,1.285251706E0
1.564296625E1,-6.044358914E-1,-4.921563042E-1,8.859701157E-1,1.180043906E0
1.565296525E1,-8.605420366E-1,-2.882152164E-1,1.050061113E0,1.387886504E0
1.566296325E1,-4.585290036E-1,-1.499505846E-1,1.047942667E0,1.153654133E0
1.567296225E1,-2.473742057E-1,-5.835427118E-2,1.061991772E0,1.091982483E0
1.568296025E1,-1.349844351E-1,1.936043252E-1,1.051304816E0,1.077471693E0
1.569295925E1,7.680171579E-2,3.685859630E-1,1.200851449E0,1.258490492E0
1.570295725E1,-3.713303536E-2,3.676558902E-1,1.445687817E0,1.492167210E0
1.571295625E1,7.837607861E-2,3.324545191E-1,1.619116818E0,1.654753180E0
1.572295425E1,-2.543287379E-1,1.054278655E-1,1.616180347E0,1.639462429E0
1.573295325E1,-1.658261442E0,-2.124399245E-1,2.943705876E0,3.385316236E0
1.574295125E1,-9.977431512E-1,-2.580140917E-1,1.837318534E0,2.106609139E0
1.575295025E1,1.881912178E0,2.739815586E-1,1.321830926E0,2.316008709E0
1.576294825E1,-1.746797204E-1,-1.324025423E-1,9.822187936E-1,1.006378257E0
1.577294725E1,-1.475249586E-1,4.527300274E-1,9.982430881E-1,1.105991571E0
1.578294525E1,-1.441756734E-1,1.777303955E-1,1.201404011E0,1.223007080E0
1.579294425E1,-5.146669516E-1,2.877842400E-2,1.112718122E0,1.226316390E0
1.580294225E1,-4.470441949E-1,-6.100065703E-2,1.019631618E0,1.114996964E0
1.581294125E1,-5.559215431E-1,-1.180908333E-1,9.015921217E-1,1.065768531E0
1.582293925E1,-4.891612507E-1,-1.515640781E-1,8.758000535E-1,1.014532470E0
1.583293825E1,-3.757432473E-1,-8.971295267E-2,7.940589023E-1,8.830407363E-1
1.584293625E1,-3.200922261E-1,-2.326014164E-2,6.388422239E-1,7.149261881E-1
1.585293525E1,-2.322427811E-1,-6.498657603E-2,5.687265068E-1,6.177457438E-1
1.586293325E1,-9.192013040E-2,-1.900183740E-1,4.643203783E-1,5.100487296E-1
1.587293225E1,1.218662068E-2,-1.753300770E-1,2.907007581E-1,3.396999858E-1
1.588293025E1,-1.028209484E-1,-7.855564294E-2,1.842048347E-1,2.251101010E-1
1.589292925E1,-2.162082539E-1,4.967851063E-2,8.452091753E-2,2.373978707E-1
1.590292725E1,-8.735827893E-2,1.780194307E-1,6.672023892E-2,2.092223145E-1
1.591292625E1,1.251733920E-1,2.536563811E-1,8.271529734E-2,2.947062235E-1
1.592292425E1,2.422345032E-1,2.274678900E-1,1.945146453E-1,3.850391444E-1
1.593292325E1,3.317759863E-1,1.319030804E-1,3.813320160E-1,5.223866711E-1
1.594292125E1,4.501875119E-1,1.011402576E-1,5.072249079E-1,6.856932658E-1
1.595292025E1,3.550148678E-1,7.844052589E-2,5.170657718E-1,6.320961041E-1
