"Time (s)","Linear Acceleration x (m/s^2)","Linear Acceleration y (m/s^2)","Linear Acceleration z (m/s^2)","Absolute acceleration (m/s^2)"
9.233500110E-3,1.470724571E-2,-1.419840091E-2,-2.439633787E-2,3.182890143E-2
1.923150010E-2,1.096389480E-2,-5.630640266E-3,-2.410339236E-2,2.707184187E-2
2.923050011E-2,-3.736370802E-3,-1.531038601E-2,-2.365608037E-2,2.842496306E-2
3.922850010E-2,-5.367926694E-3,-1.921449881E-2,-2.635690928E-2,3.305598687E-2
4.922750010E-2,-6.175025180E-4,5.946161505E-4,-3.533823252E-2,3.534862876E-2
5.922550010E-2,8.062835298E-3,-1.467876795E-2,-2.680597544E-2,3.160752854E-2
6.922450010E-2,7.812793739E-3,-8.561027208E-3,-3.668660045E-2,3.847385587E-2
7.922250009E-2,1.820238233E-2,-6.193599226E-3,-3.428924203E-2,3.931207846E-2
8.922050009E-2,2.346721530E-2,-4.579265211E-3,-2.110961795E-2,3.189507538E-2
9.921950009E-2,2.414808702E-2,-1.767914789E-3,-2.903961182E-2,3.780945231E-2
1.092175001E-1,2.170270834E-2,-5.673900526E-3,-1.227096677E-2,2.556906963E-2
1.192165001E-1,2.021422651E-2,-1.302927755E-2,-2.199488640E-2,3.259067435E-2
1.292145001E-1,1.786952958E-2,-1.338738296E-3,-3.575689316E-2,3.999584623E-2
1.392135001E-1,-3.905574605E-3,2.237574114E-3,-2.781988263E-2,2.818166284E-2
1.492115001E-1,-1.446666934E-2,9.421234857E-4,-3.216260970E-2,3.527896797E-2
1.592095001E-1,-1.646685563E-2,-1.275332551E-4,-2.961965561E-2,3.388949096E-2
1.692085001E-1,-1.823483437E-2,-2.738689631E-4,-2.931910872E-2,3.452816713E-2
1.792065001E-1,1.152668931E-3,1.652094238E-3,-2.587860703E-2,2.595689433E-2
1.892055001E-1,8.648762852E-3,5.893993378E-3,-1.165876329E-2,1.566738709E-2
1.992035001E-1,2.297374684E-2,4.514644342E-3,-1.419937849E-2,2.738242880E-2
2.092025001E-1,2.700898346E-2,4.098806810E-4,-1.748843729E-2,3.217916451E-2
2.192005001E-1,2.430651002E-2,3.605648987E-3,-2.557806015E-2,3.546892013E-2
2.291985000E-1,1.924786448E-2,-2.202874543E-3,-2.706851542E-2,3.328719680E-2
2.391975001E-1,1.379500698E-2,2.446657754E-3,-2.362509012E-2,2.746694805E-2
2.491955000E-1,4.869341925E-3,1.237462694E-2,-1.898357034E-2,2.317795991E-2
2.591945000E-1,-1.215559389E-2,-1.061616819E-3,-2.766668558E-2,3.023790641E-2
2.691925000E-1,-1.328787066E-2,-8.835024079E-3,-1.674233258E-2,2.312857231E-2
2.791915000E-1,-5.091134124E-3,-1.645424757E-2,-1.181196034E-2,2.088502614E-2
2.891895000E-1,1.549753346E-2,-2.069829374E-2,-1.121729851E-2,2.818546953E-2
2.991875000E-1,2.867905788E-2,-1.056759976E-2,-1.361874998E-2,3.346091566E-2
3.091865000E-1,2.283136714E-2,-5.766021581E-3,-2.081199467E-2,3.142701788E-2
3.191845000E-1,3.028726146E-2,-7.479484174E-3,-2.560203373E-2,4.035746550E-2
3.291835000E-1,2.693490654E-2,-1.190566197E-3,-4.221397340E-2,5.008918235E-2
3.391815000E-1,7.165616602E-3,2.151208911E-3,-4.191050291E-2,4.257304329E-2
3.491805000E-1,-1.997555047E-3,6.287912987E-3,-2.813621700E-2,2.889939070E-2
3.591785000E-1,-6.668676361E-3,8.899919037E-3,-1.795913815E-2,2.112369396E-2
3.691765000E-1,-1.806299932E-2,2.173364377E-3,-5.388209224E-3,1.897441055E-2
3.791755000E-1,-7.385471910E-3,-9.941518279E-3,4.636842012E-3,1.322419317E-2
3.891735000E-1,-3.206722699E-3,-1.957261336E-2,1.436719358E-2,2.449053931E-2
3.991725000E-1,1.066524826E-2,-1.475312809E-2,-3.448103070E-3,1.852813330E-2
4.091705000E-1,2.165267810E-2,-1.208077694E-2,-2.260592043E-2,3.355311132E-2
4.191695000E-1,1.890682563E-2,-4.973787814E-3,-2.993891358E-2,3.575674995E-2
4.291675000E-1,1.330508340E-2,-1.155315709E-2,-2.844494998E-2,3.346066142E-2
4.391655000E-1,-3.727599978E-3,2.056383519E-3,-4.349159002E-3,6.085959152E-3
4.491645000E-1,-1.431168158E-2,4.498326955E-3,-5.706297755E-3,1.605057659E-2
4.591625000E-1,-2.641161729E-2,3.933549877E-3,-9.750816822E-3,2.842753544E-2
4.691615000E-1,-1.744487554E-2,1.839357714E-2,-4.538374901E-2,5.198395942E-2
4.791595000E-1,-2.855524309E-3,2.124222184E-2,-8.026765287E-2,8.307997415E-2
4.891585000E-1,1.407454044E-2,1.522354572E-2,-9.404544711E-2,9.630366117E-2
4.991565000E-1,3.082600929E-2,9.293747284E-3,-8.416949987E-2,9.011726414E-2
5.091545000E-1,5.313353900E-2,1.135640742E-2,-4.315069735E-2,6.938388601E-2
5.191535000E-1,5.526503183E-2,-2.523402460E-3,2.690186977E-2,6.151667986E-2
5.291515000E-1,6.706277613E-2,-2.138885904E-2,5.923697233E-2,9.199955502E-2
5.391505000E-1,6.426217910E-2,-2.996388302E-2,2.406070769E-2,7.487576112E-2
5.491485000E-1,5.805539623E-2,-3.213824325E-2,-3.012485504E-2,7.287525370E-2
5.591475000E-1,4.201882258E-2,-2.958537631E-2,-5.975678980E-2,7.881465517E-2
5.691455000E-1,9.250185527E-3,-1.384431546E-2,-8.878295302E-2,9.033074643E-2
5.791435002E-1,-3.176065017E-2,1.837186022E-2,-7.245635748E-2,8.121691872E-2
5.891425002E-1,-5.566421393E-2,3.325137952E-2,-1.737032354E-2,6.712590478E-2
5.991405002E-1,-6.743900791E-2,3.343830770E-2,1.855087638E-2,7.752596484E-2
6.091395002E-1,-6.997615132E-2,2.437880536E-2,3.680120587E-2,8.273642885E-2
6.191375002E-1,-3.934799720E-2,8.736471087E-4,2.586632788E-2,4.709665658E-2
6.291365002E-1,-9.495695494E-3,-3.632202655E-2,-5.577659011E-3,3.795481690E-2
6.391345002E-1,2.698208626E-2,-4.507304259E-2,-3.207840979E-2,6.155190104E-2
6.491325002E-1,3.753978230E-2,-4.376303787E-2,-4.959432900E-2,7.605285141E-2
6.591315002E-1,3.367064316E-2,-2.558766237E-2,-4.435288489E-2,6.128310595E-2
6.691295002E-1,3.766056385E-2,-1.662007095E-2,-1.740891516E-2,4.469468822E-2
6.791285002E-1,2.219047576E-2,1.156241214E-3,-1.411459386E-2,2.632443481E-2
6.891265002E-1,1.308771316E-2,1.776730380E-2,4.444468617E-3,2.251041140E-2
6.991255002E-1,1.319040488E-2,9.672053000E-3,-1.321821570E-2,2.102989816E-2
7.091235002E-1,1.980338652E-2,4.188223528E-3,-3.926171422E-2,4.417236169E-2
7.191215002E-1,2.584264666E-2,-2.003237810E-3,-6.021521151E-2,6.555705184E-2
7.291205002E-1,2.566814382E-2,-1.127456468E-2,-4.913181424E-2,5.656769914E-2
7.391185001E-1,4.051345691E-2,-1.728875488E-2,-4.163860738E-2,6.061365243E-2
7.491175001E-1,3.087311592E-2,-2.169241176E-2,-1.124536514E-2,3.937217611E-2
7.591155001E-1,1.790742684E-2,-2.051174928E-2,-6.755872965E-3,2.805440454E-2
7.691145001E-1,3.676473387E-3,-1.461844113E-2,-2.635632455E-2,3.036233063E-2
7.791125001E-1,-1.980057254E-2,-1.571042692E-2,-1.197509766E-2,2.796932518E-2
7.891105001E-1,-4.167665083E-2,6.070414837E-3,2.005770385E-2,4.664873679E-2
7.991095001E-1,-4.795904551E-2,-6.488509029E-3,2.140373290E-2,5.291777185E-2
8.091075001E-1,-4.655852772E-2,-1.109842644E-2,-1.812461436E-2,5.117981261E-2
8.191065001E-1,-2.983088627E-2,-7.227377817E-3,-3.849514425E-2,4.923406236E-2
8.291045001E-1,-8.203570470E-3,-1.486998104E-2,-1.545419097E-2,2.296185800E-2
8.391035001E-1,1.008224431E-2,-3.988997927E-3,-6.186354160E-3,1.248337826E-2
8.491015001E-1,4.021225221E-2,-6.253633685E-3,-7.089164257E-3,4.130846659E-2
8.590995001E-1,6.144323643E-2,4.622927466E-3,-3.523356736E-2,7.097920139E-2
8.690985001E-1,5.725231770E-2,1.604068497E-2,-8.463493824E-2,1.034321238E-1
8.790966668E-1,6.113450345E-2,1.037731857E-2,-1.019918132E-1,1.193626667E-1
8.890956668E-1,3.963319514E-2,-3.994753780E-3,-8.536700964E-2,9.420336804E-2
8.990936668E-1,1.651304863E-2,-9.098002603E-3,-3.057509065E-2,3.592061518E-2
9.090926668E-1,2.144722156E-3,-2.310552847E-2,1.928236306E-2,3.017076074E-2
9.190906668E-1,-1.132971123E-3,-1.336910128E-2,3.784844220E-2,4.015620835E-2
9.290886668E-1,9.695414454E-4,6.651801663E-3,2.138560653E-2,2.241719524E-2
9.390876668E-1,1.123082019E-2,2.878406108E-2,-2.905598402E-2,4.241348491E-2
9.490856668E-1,1.664603624E-2,3.439745206E-2,-5.884403944E-2,7.016335375E-2
9.590846668E-1,1.361155059E-2,2.716456507E-2,-7.829714119E-2,8.398589301E-2
9.690826668E-1,7.060403265E-3,1.495293841E-2,-7.140853643E-2,7.329814961E-2
9.790806668E-1,-1.513018213E-2,2.024351740E-3,-4.057324469E-2,4.334983963E-2
9.890796668E-1,-3.058784489E-2,2.215948552E-3,-9.146214724E-3,3.200281123E-2
9.990776668E-1,-3.862838767E-2,9.914036365E-3,3.186381698E-2,5.104648160E-2
1.009076667E0,-3.219590228E-2,1.388707322E-2,3.050960183E-2,4.647862660E-2
1.019074667E0,-1.135606024E-2,2.705979028E-2,4.010605216E-3,2.961886744E-2
1.029073667E0,1.886304460E-2,2.587012857E-2,-3.267131746E-2,4.574377541E-2
1.039071667E0,5.065022651E-2,5.937646497E-3,-6.785693765E-2,8.488383284E-2
1.049069667E0,6.089250181E-2,-1.121072953E-2,-8.671654701E-2,1.065520378E-1
1.059068667E0,5.442197297E-2,-1.378556008E-2,-7.294226110E-2,9.204545759E-2
1.069066667E0,3.954614472E-2,-1.866950177E-2,-3.926229894E-2,5.877053663E-2
1.079065667E0,2.114608996E-2,-3.880303670E-3,-5.735533834E-3,2.225107245E-2
1.089063667E0,6.082054451E-3,-4.093964584E-4,2.180660605E-2,2.264259392E-2
1.099062667E0,-1.271060430E-2,8.557034656E-3,6.989761591E-3,1.684158754E-2
1.109060667E0,-1.438290797E-2,1.104959305E-2,-3.387759805E-2,3.842724551E-2
1.119058667E0,-1.917894043E-2,-1.681275498E-3,-5.753075480E-2,6.066668107E-2
1.129057667E0,-1.689472564E-2,-1.682079490E-2,-5.124382854E-2,5.651814628E-2
1.139055667E0,1.025455445E-4,-3.150472485E-2,-4.076795697E-2,5.152266025E-2
1.149054667E0,2.645791993E-3,-2.551204143E-2,-1.068052411E-2,2.778377348E-2
1.159052667E0,9.129111618E-3,-2.852808095E-2,1.671660483E-2,3.430214218E-2
1.169051667E0,6.345617697E-3,-1.407777468E-2,2.315088093E-2,2.782829301E-2
1.179049667E0,8.626981974E-3,2.890443150E-3,-1.245456934E-3,9.183171704E-3
1.189047667E0,9.975386448E-3,7.617368829E-4,-2.609904706E-2,2.795082889E-2
1.199046667E0,1.002066582E-2,-6.559863333E-3,-5.020068526E-2,5.160963429E-2
1.209044667E0,4.661254138E-3,-2.408248857E-3,-5.574267626E-2,5.598904276E-2
1.219043667E0,1.298173238E-2,-6.935345940E-3,-3.987742603E-2,4.250686422E-2
1.229041667E0,8.526556045E-3,-8.185343603E-3,-2.789998949E-2,3.030035348E-2
1.239040667E0,1.514633507E-2,1.452252852E-2,-6.195709705E-3,2.187926231E-2
1.249038667E0,3.070062306E-2,1.161521067E-2,1.289311051E-3,3.284971382E-2
1.259036667E0,3.154978495E-2,8.537035352E-3,-1.457301557E-2,3.578606832E-2
1.269035667E0,3.442219310E-2,-3.948990181E-3,-3.342619300E-2,4.814345521E-2
1.279033667E0,2.952032603E-2,-1.412571271E-2,-4.389563262E-2,5.475227824E-2
1.289032667E0,6.587180793E-3,-1.558749835E-2,-4.822549582E-2,5.110831148E-2
1.299030667E0,-1.323276065E-2,-9.751355862E-3,-2.561899066E-2,3.043891552E-2
1.309029667E0,-2.982927829E-2,1.273788521E-2,-4.662569761E-3,3.276856908E-2
1.319027667E0,-3.139775734E-2,3.069360640E-2,-2.718955278E-3,4.399215109E-2
1.329025667E0,-2.836634148E-2,3.132363475E-2,-9.609314203E-3,4.333772424E-2
1.339024667E0,-1.131622609E-2,2.903767493E-2,-4.734373569E-2,5.668044502E-2
1.349022667E0,1.780221350E-3,1.446892600E-2,-4.660464764E-2,4.883146720E-2
1.359021667E0,1.645859644E-2,-5.078745335E-3,-2.475067914E-2,3.015418990E-2
1.369019667E0,2.610091086E-2,-1.905528096E-2,-3.652755618E-3,3.252236006E-2
1.379018667E0,1.699306849E-2,-1.692798167E-2,9.515174031E-3,2.580425308E-2
1.389016667E0,2.816143312E-2,-1.169357250E-2,4.124041200E-3,3.077033748E-2
1.399014667E0,2.895742189E-2,1.629673820E-3,-2.027872860E-2,3.538947518E-2
1.409013667E0,3.185742158E-2,4.685912943E-3,-6.997421443E-2,7.702755206E-2
1.419011667E0,2.180989511E-2,9.714938672E-3,-9.332214653E-2,9.632795333E-2
1.429010667E0,-9.472891353E-3,1.086083762E-3,-5.739568412E-2,5.818229803E-2
1.439008667E0,-1.346895162E-2,-3.662997382E-3,1.250777900E-2,1.874232491E-2
1.449006667E0,-1.068907566E-3,-1.355766485E-2,2.552777410E-2,2.892438573E-2
1.459005667E0,7.565346882E-3,-2.504652997E-2,1.385205388E-2,2.960477215E-2
1.469003667E0,1.192525014E-2,-1.449357566E-2,-6.056545973E-3,1.972199472E-2
1.479002667E0,2.111327246E-2,-1.361557055E-2,-3.001200378E-2,3.913916716E-2
1.489000667E0,2.401816919E-2,-2.686183462E-3,-5.560702085E-2,6.063191240E-2
1.498999667E0,2.136514127E-2,-1.117323426E-2,-6.653078914E-2,7.076479583E-2
1.508997667E0,-2.207908630E-3,-1.488068875E-2,-3.584810972E-2,3.887668619E-2
1.518995667E0,-2.125751596E-2,-2.495624531E-2,-1.938293517E-2,3.808404312E-2
1.528994667E0,-3.182295956E-2,-1.508843849E-2,1.190142274E-2,3.717533583E-2
1.538992667E0,-3.075397890E-2,-8.389767744E-3,1.175290346E-2,3.397537580E-2
1.548991667E0,-1.666847493E-2,5.451240381E-3,2.618383169E-3,1.773161044E-2
1.558989667E0,7.828252316E-3,1.169526271E-2,-1.669263124E-2,2.183356686E-2
1.568988667E0,3.032994613E-2,1.235055286E-2,-4.184267521E-2,5.313427572E-2
1.578986667E0,4.053779595E-2,6.609911844E-4,-6.279792666E-2,7.474844081E-2
1.588984667E0,4.758997656E-2,-1.082146028E-2,-4.827812076E-2,6.864901176E-2
1.598983667E0,2.674118098E-2,-1.853395600E-2,-2.507169127E-2,4.107539395E-2
1.608981667E0,1.010471955E-2,-2.518475267E-2,-7.258148789E-3,2.809017352E-2
1.618980667E0,2.111027576E-3,-2.975054188E-3,-2.169901729E-3,4.244509201E-3
1.628978667E0,-5.677500218E-3,7.583701657E-3,-6.814345121E-3,1.166969747E-2
1.638977667E0,-1.582632970E-2,1.567524313E-2,-1.998636782E-2,2.992725944E-2
1.648975667E0,-1.055097174E-2,6.485621966E-3,-2.791753113E-2,3.054136280E-2
1.658973667E0,-6.696998812E-3,2.987095797E-3,-2.746904969E-2,2.843099058E-2
1.668972667E0,-2.953209355E-4,-2.585812351E-3,-2.702056825E-2,2.714562117E-2
1.678970667E0,1.175999321E-2,-6.949415803E-4,-1.699317813E-2,2.067724563E-2
1.688969667E0,1.728491765E-2,-2.258167276E-3,-1.220781684E-2,2.128141183E-2
1.698967667E0,1.710453104E-2,6.023299070E-3,-8.615287542E-3,2.007656079E-2
1.708965667E0,1.030323252E-2,5.935179703E-3,-1.310653389E-2,1.769644566E-2
1.718964667E0,1.260319825E-2,4.436739329E-3,-2.164229929E-2,2.543451161E-2
1.728962667E0,-4.578114040E-3,-4.728487981E-3,-1.491215408E-2,1.630000203E-2
1.738961667E0,-1.262940109E-2,-1.645383644E-2,2.597917914E-3,2.090405901E-2
1.748959667E0,1.416999623E-3,-1.806348355E-2,-3.241696358E-3,1.840668142E-2
1.758958667E0,3.297610357E-3,-1.147360755E-2,-2.480681241E-2,2.752990821E-2
1.768956667E0,8.715896197E-3,-8.673613518E-3,-2.526172578E-2,2.809543037E-2
1.778954667E0,2.650020260E-2,4.385594465E-4,-4.741682589E-2,5.432134433E-2
1.788953667E0,3.288053814E-2,7.275334122E-3,-7.795449436E-2,8.491739201E-2
1.798951667E0,4.349078603E-2,1.389824688E-2,-7.046596527E-2,8.396464731E-2
1.808950667E0,3.218428094E-2,2.147572674E-3,-3.139545500E-2,4.501238277E-2
1.818948667E0,1.021698609E-2,-1.423381311E-2,3.931083083E-3,1.795666045E-2
1.828947667E0,-3.369823471E-4,-3.388026584E-2,2.578855991E-2,4.257975802E-2
1.838945667E0,-7.191380896E-3,-1.629337605E-2,1.876137614E-2,2.586850009E-2
1.848943667E0,-8.185517192E-3,6.314901542E-4,-1.955484331E-2,2.120833252E-2
1.858942667E0,-4.539997503E-3,6.272289958E-3,-6.371827841E-2,6.418700960E-2
1.868940667E0,1.367554106E-3,2.158055635E-2,-6.640858233E-2,6.984046409E-2
1.878939625E0,3.371321820E-3,1.286376480E-2,-5.518485188E-2,5.676451474E-2
1.888937625E0,2.131529376E-3,1.094827177E-3,-1.761298299E-2,1.777524216E-2
1.898936625E0,-1.640692167E-3,-8.854018394E-3,1.711480021E-2,1.933912870E-2
1.908934625E0,5.566476211E-3,-3.804847179E-3,2.788829505E-2,2.869180232E-2
1.918932625E0,3.490933925E-3,9.459387939E-3,-6.837733984E-3,1.218282586E-2
1.928931625E0,1.426150516E-2,1.007095188E-2,-3.393197715E-2,3.816010580E-2
1.938929625E0,2.212560821E-2,1.210892580E-2,-5.847683430E-2,6.368444686E-2
1.948928625E0,1.573182408E-2,6.943477225E-3,-5.398383379E-2,5.665647779E-2
1.958926625E0,1.898832120E-2,1.020913803E-2,-4.769222975E-2,5.233862455E-2
1.968924625E0,7.270537578E-3,-4.892557198E-3,-2.044771314E-2,2.224650096E-2
1.978923625E0,-4.976126701E-3,-1.554529790E-2,-1.117519855E-2,1.978138485E-2
1.988921625E0,3.150150888E-3,-1.594329229E-2,-2.944073081E-3,1.651604026E-2
1.998920625E0,5.599695705E-3,-1.219687158E-2,-3.848052621E-3,1.396165382E-2
2.008918625E0,1.372129552E-2,-3.140228894E-4,-3.004299402E-2,3.302959356E-2
2.018917625E0,1.789540350E-2,5.176622244E-3,-4.381669521E-2,4.761245282E-2
2.028915625E0,9.530632608E-3,5.239525493E-3,-4.965455532E-2,5.083168745E-2
2.038913625E0,5.643622912E-3,6.152677853E-3,-3.752976894E-2,3.844722983E-2
2.048912625E0,-2.961541638E-3,-3.820853932E-3,-1.447595179E-2,1.526180965E-2
2.058910625E0,-5.740650147E-3,-1.537027429E-2,-4.296534061E-3,1.696056015E-2
2.068909625E0,-4.858926572E-3,-2.037617611E-2,-2.799062133E-3,2.113368092E-2
2.078907625E0,-5.746314637E-3,-1.999551323E-2,-2.199137807E-3,2.092072868E-2
2.088905625E0,1.742579900E-3,-1.961337942E-2,-1.971388757E-2,2.786321231E-2
2.098904625E0,3.964266032E-3,-1.466324542E-2,-3.617847741E-2,3.923784396E-2
2.108902625E0,1.516592324E-2,-1.365918713E-2,-4.201399863E-2,4.670925713E-2
2.118901625E0,1.519581713E-2,-7.654891508E-3,-3.542477131E-2,3.929916850E-2
2.128899625E0,2.226385832E-2,-3.619572669E-3,-1.731652915E-2,2.843664670E-2
2.138898625E0,2.636896916E-2,-7.486848012E-3,-2.375080526E-2,3.626949377E-2
2.148896625E0,2.245425828E-2,6.867436012E-3,-1.371698320E-2,2.719395191E-2
2.158894625E0,1.091777489E-2,9.123766897E-3,-2.119674146E-2,2.552925341E-2
2.168893625E0,7.181915715E-3,8.816504851E-3,-2.404608965E-2,2.659934395E-2
2.178891625E0,9.754800238E-3,-5.670922101E-3,-3.976808310E-2,4.133782672E-2
2.188890625E0,4.431020021E-3,-7.965205070E-3,-3.826827228E-2,3.933877341E-2
2.198888625E0,-1.010132086E-2,-7.970367065E-3,-3.003363848E-2,3.267388673E-2
2.208887625E0,-9.527672455E-3,-1.027935944E-2,-1.835733354E-2,2.309617864E-2
2.218885625E0,-1.107597861E-2,-5.466863411E-3,-7.282707095E-3,1.433881866E-2
2.228883625E0,-9.574559815E-3,1.011856101E-2,-1.237212360E-2,1.863134227E-2
2.238882625E0,1.126064099E-3,1.667914610E-2,-2.390049398E-2,2.916668558E-2
2.248880625E0,6.724298000E-3,1.087487094E-2,-3.377878010E-2,3.611765478E-2
2.258879625E0,1.445603471E-2,6.163906334E-3,-4.352024138E-2,4.627074768E-2
2.268877625E0,1.913150489E-2,6.923532737E-3,-5.519713104E-2,5.882748558E-2
2.278875625E0,1.140276488E-2,1.451788729E-2,-4.876519382E-2,5.214246088E-2
2.288874625E0,1.765468094E-2,8.939798875E-3,-5.295940161E-2,5.653588225E-2
2.298872625E0,1.345839009E-2,8.533892473E-3,-3.918920875E-2,4.230543306E-2
2.308871625E0,1.177472088E-2,7.556429878E-4,-1.987760961E-2,2.311567460E-2
2.318869625E0,1.679693095E-2,-3.509809468E-3,-7.004379630E-3,1.853421123E-2
2.328868625E0,2.228976879E-2,-4.342918927E-3,2.368414700E-2,3.281209467E-2
2.338866625E0,2.023944262E-2,4.392263945E-4,4.913298368E-2,5.314017353E-2
2.348864625E0,1.207303852E-2,-1.418486095E-2,1.829652250E-2,2.610998420E-2
2.358863625E0,1.553331111E-2,-3.371873651E-2,-4.951246798E-2,6.188474312E-2
2.368861625E0,1.448684223E-3,-1.252614291E-2,-9.201529384E-2,9.287527788E-2
2.378860625E0,-3.988166526E-3,-2.655687491E-2,-7.733702838E-2,8.186689830E-2
2.388858625E0,-3.306012075E-2,-1.105787965E-2,-8.477293253E-3,3.587635416E-2
2.398856625E0,-4.329410031E-2,2.552163452E-3,2.669780195E-2,5.092804030E-2
2.408855625E0,-4.780043978E-2,3.336868929E-3,3.118144691E-2,5.716904205E-2
2.418853625E0,-4.533397458E-2,1.312975829E-2,3.356769562E-2,5.791675054E-2
2.428852625E0,-1.075865753E-2,-2.773647758E-2,1.469580710E-2,3.318173665E-2
2.438850625E0,1.631322004E-2,-3.843420530E-2,-6.315460682E-2,7.570874221E-2
2.448849625E0,3.644474499E-2,-3.992015638E-2,-7.678446651E-2,9.390256982E-2
2.458847625E0,4.213576689E-2,-3.224902058E-2,-4.445579588E-2,6.922239499E-2
2.468845625E0,4.804324541E-2,-1.975717524E-2,-4.998843133E-2,7.209259789E-2
2.478844625E0,3.065936364E-2,-6.573567744E-3,-2.530090213E-3,3.145806301E-2
2.488842625E0,3.134955436E-2,1.481355540E-2,1.424089372E-2,3.748385034E-2
2.498841625E0,2.830015831E-2,9.307141062E-3,-1.837896824E-2,3.500440413E-2
2.508839625E0,1.394827712E-2,5.048020044E-3,-2.152067721E-2,2.613764505E-2
2.518837625E0,1.031448841E-2,-1.063277794E-2,-3.154105067E-2,3.484655672E-2
2.528836625E0,5.102572739E-3,-1.805949099E-2,-7.778667927E-2,8.001842872E-2
2.538834625E0,-2.294546094E-2,5.423968602E-3,-6.371243119E-2,6.793517131E-2
2.548833625E0,-1.765471749E-2,5.705228811E-3,-2.149787307E-2,2.839713422E-2
2.558831625E0,-2.996639550E-2,1.509240364E-2,-1.734284163E-3,3.359722084E-2
2.568830625E0,-2.328533035E-2,1.425075176E-2,2.281408131E-2,3.557770146E-2
2.578828625E0,-2.807430960E-3,1.533499913E-2,1.757029831E-2,2.348955619E-2
2.588826625E0,-1.820574448E-2,-1.251048334E-3,-1.940807819E-2,2.663996533E-2
2.598825625E0,-9.318378679E-3,-1.472874337E-2,-5.638703942E-2,5.901920262E-2
2.608823625E0,-8.017994463E-3,-6.256146161E-3,-5.354587734E-2,5.450310615E-2
2.618822625E0,-5.738859437E-3,-5.151561443E-3,-4.187541962E-2,4.257961791E-2
2.628820625E0,1.268706925E-2,2.044282523E-2,-3.439566135E-2,4.197537790E-2
2.638819625E0,1.825168166E-2,1.624327272E-2,-1.778138280E-2,3.021829523E-2
2.648817625E0,2.405621264E-2,2.653433573E-2,-4.911076427E-3,3.615094758E-2
2.658815625E0,2.945103653E-2,3.035814981E-2,-7.600795627E-3,4.297386306E-2
2.668814625E0,4.759326562E-2,8.358503412E-3,-1.627689421E-2,5.098941848E-2
2.678812625E0,3.623621866E-2,-1.636225442E-2,-3.409102142E-2,5.237351100E-2
2.688811625E0,2.339708526E-2,-4.726919283E-2,-4.650758386E-2,7.031895581E-2
2.698809625E0,-1.133775115E-3,-3.660877766E-2,-4.365765095E-2,5.698665225E-2
2.708807625E0,-1.727216341E-2,-2.506993711E-2,-4.320741534E-2,5.285555899E-2
2.718806625E0,-2.716397122E-2,-1.124218572E-3,-4.245604813E-2,5.041489088E-2
2.728804625E0,-4.569763485E-2,2.081639836E-2,-7.728849649E-3,5.080680455E-2
2.738803625E0,-2.795531876E-2,1.566776052E-2,-8.331112862E-3,3.311172011E-2
2.748801625E0,-1.228543863E-2,1.394009102E-2,-7.585592866E-3,2.006986196E-2
2.758800625E0,9.010778591E-3,-1.282564826E-2,-1.896661341E-2,2.460536138E-2
2.768798625E0,2.558321301E-2,-4.014478996E-2,-4.561179042E-2,6.592829722E-2
2.778796625E0,2.322952598E-2,-2.616047024E-2,-3.183750451E-2,4.730335901E-2
2.788795625E0,1.989303164E-2,-2.872731568E-2,-3.034178674E-2,4.627759066E-2
2.798793625E0,2.359402679E-2,-1.296327710E-2,-2.360579431E-2,3.580444356E-2
2.808792625E0,4.660303965E-3,-3.160867738E-3,2.594526529E-2,2.654931843E-2
2.818790625E0,1.408521160E-3,-1.670833650E-2,3.298355877E-2,3.700091337E-2
2.828788625E0,3.126542754E-3,-2.359132245E-3,-3.497570515E-2,3.519432802E-2
2.838787625E0,-1.264741782E-2,1.992804185E-3,-4.605851769E-2,4.780497357E-2
2.848785625E0,6.964655109E-3,1.806652592E-3,-6.312244713E-2,6.353120294E-2
2.858784625E0,1.177398998E-2,-3.437578082E-3,-6.102329671E-2,6.224376696E-2
2.868782625E0,1.212866016E-2,-1.461633065E-2,-2.461677790E-4,1.899479185E-2
2.878781417E0,2.827209167E-2,-8.250987735E-3,4.391785204E-2,5.287880194E-2
2.888779417E0,1.958133850E-2,-3.694636300E-3,1.832692802E-2,2.707314990E-2
2.898777417E0,5.350933224E-3,6.492538126E-3,4.407631159E-3,9.498039278E-3
2.908776417E0,2.557049531E-2,2.301235674E-3,-2.432441711E-2,3.536697873E-2
2.918774417E0,-9.992745370E-3,-1.254746698E-2,-7.192016780E-2,7.368720665E-2
2.928773417E0,-2.322276514E-2,-1.125997405E-2,-7.086825371E-2,7.542143740E-2
2.938771417E0,-2.979576644E-2,-1.414108906E-2,-5.275533378E-2,6.221642339E-2
2.948770417E0,-3.385157794E-2,-1.191922934E-2,-3.120542049E-2,4.755812891E-2
2.958768417E0,-2.571239993E-2,3.390864311E-3,-3.966166377E-3,2.623653839E-2
2.968766417E0,2.734158039E-3,1.844422865E-2,1.418534517E-3,1.869966392E-2
2.978765417E0,1.858921219E-2,2.662395344E-2,-2.328945994E-3,3.255484136E-2
2.988763417E0,4.689825095E-2,1.811699471E-2,-9.812797308E-3,5.122462719E-2
2.998762417E0,6.230153460E-2,-5.755405230E-3,-3.959734440E-2,7.404428125E-2
3.008760417E0,4.091753606E-2,-7.633430399E-3,-5.081873596E-2,6.568910063E-2
3.018758417E0,2.459028270E-2,-2.183607054E-2,-4.796997249E-2,5.816024622E-2
3.028757417E0,4.919408709E-3,-2.825995870E-3,-4.302147388E-2,4.339394024E-2
3.038755417E0,-2.587323491E-2,1.036257262E-2,-1.517293990E-2,3.173366195E-2
3.048754417E0,-3.201047245E-2,1.226684631E-2,1.147574544E-2,3.615022266E-2
3.058752417E0,-3.131059729E-2,1.624748454E-2,-1.143013716E-2,3.708075366E-2
3.068751417E0,-2.277961928E-2,1.157057083E-2,-3.538734913E-2,4.364692019E-2
3.078749417E0,2.593605593E-3,-3.476946289E-3,-3.180359066E-2,3.209804237E-2
3.088747417E0,2.650323585E-2,-1.019136798E-2,-4.453473330E-2,5.281692874E-2
3.098746417E0,3.638970807E-2,-1.911861361E-2,-4.648127139E-2,6.205030886E-2
3.108744417E0,4.160568025E-2,-2.168563264E-2,-1.804041445E-2,5.026684639E-2
3.118743417E0,3.338515285E-2,-4.870776320E-3,-7.261072397E-3,3.451110061E-2
3.128741417E0,2.269604065E-2,-9.060881920E-3,-5.221563578E-4,2.444345494E-2
3.138739417E0,8.233245090E-3,1.962106302E-3,-7.853980064E-3,1.154647949E-2
3.148738417E0,-1.134886086E-2,-4.417151157E-3,-1.578514338E-2,1.993686582E-2
3.158736417E0,-2.836656075E-2,-1.065534454E-2,-2.715797782E-2,4.069095594E-2
3.168735417E0,-1.571230900E-2,-1.736975709E-2,-2.491557062E-2,3.419606373E-2
3.178733417E0,-3.202446923E-3,-1.848874058E-2,-3.135335505E-2,3.653932221E-2
3.188732417E0,3.432717584E-3,-2.273828678E-2,-2.222760558E-2,3.198249030E-2
3.198730417E0,1.914678074E-2,-8.299483079E-3,-2.731585264E-2,3.437493910E-2
3.208728417E0,3.171712495E-2,1.091042932E-2,-4.378044248E-2,5.515197754E-2
3.218727417E0,1.933001786E-2,1.495246332E-2,-2.401977718E-2,3.426624353E-2
3.228725417E0,1.599418133E-2,8.611495988E-3,-1.279429257E-2,2.221858731E-2
3.238724417E0,-5.179171264E-4,-9.643365098E-3,-4.048846006E-2,4.162424927E-2
3.248722417E0,-2.094900224E-2,-7.405288490E-3,-3.270698547E-2,3.954043363E-2
3.258720417E0,-1.961894341E-2,-9.005342508E-3,-2.507929265E-2,3.309033173E-2
3.268719417E0,-3.763973314E-2,1.007405821E-2,-5.727113843E-2,6.926918115E-2
3.278717417E0,-8.898000419E-3,4.399717318E-2,-9.544819415E-2,1.054764591E-1
3.288716417E0,4.483242966E-3,2.306202153E-2,-1.321277779E-1,1.342002459E-1
3.298714417E0,1.391260911E-2,1.661804270E-2,-9.845249355E-2,1.008097888E-1
3.308712417E0,4.751520529E-3,1.402328594E-2,1.602049381E-1,1.608876989E-1
3.318711417E0,2.503284384E-2,-6.354251476E-3,2.544965529E-1,2.558036654E-1
3.328709417E0,5.408480790E-2,-3.386053149E-2,1.484257221E-2,6.551338785E-2
3.338708417E0,4.551227812E-2,3.241065041E-2,-1.179336619E-1,1.304996795E-1
3.348706417E0,3.803544346E-2,1.015712522E-2,-1.546097374E-1,1.595432012E-1
3.358705417E0,2.731336758E-2,1.888053143E-2,-2.062482530E-1,2.089038927E-1
3.368703417E0,-1.696522113E-2,4.599353137E-2,-9.996750712E-2,1.113405862E-1
3.378701417E0,-4.656960089E-2,1.155712224E-2,6.168578625E-2,7.815005455E-2
3.388700417E0,-4.014606904E-2,1.715637026E-2,7.305101931E-2,8.510287494E-2
3.398698417E0,-4.142628036E-2,1.826231629E-2,9.324554801E-2,1.036551066E-1
3.408697417E0,-4.917873815E-3,-1.979888233E-2,6.464330792E-2,6.778597557E-2
3.418695417E0,5.501484409E-2,-3.625885835E-2,-6.454039693E-2,9.223231925E-2
3.428693417E0,6.242121980E-2,-6.980427973E-2,-8.984480739E-2,1.297734008E-1
3.438692417E0,8.550248232E-2,-8.445302588E-2,-8.475129783E-2,1.470570316E-1
3.448690417E0,7.234891489E-2,-5.322555955E-2,-8.010100722E-2,1.203474014E-1
3.458689417E0,1.047583502E-2,-4.495782503E-2,-1.258320808E-2,4.784648656E-2
3.468687417E0,-1.616378713E-2,-2.540402326E-2,5.089124143E-2,5.913164015E-2
3.478686417E0,-4.518527258E-2,-2.732979460E-2,6.691612065E-2,8.524314479E-2
3.488684417E0,-7.104710542E-2,-1.699379940E-2,6.362062991E-2,9.687138357E-2
3.498682417E0,-6.602273919E-2,-3.114494749E-2,5.980532169E-3,7.324463536E-2
3.508681417E0,-4.120942175E-2,-1.774040661E-2,-8.339415908E-2,9.469701282E-2
3.518679417E0,-1.120991640E-2,2.805292158E-2,-1.161900222E-1,1.200531128E-1
3.528678417E0,1.455715500E-2,5.417887498E-2,-7.907832921E-2,9.695691520E-2
3.538676417E0,5.069068193E-2,7.500239049E-2,-3.926463783E-2,9.867429046E-2
3.548674417E0,6.371498935E-2,8.492785634E-2,4.021422565E-2,1.135320421E-1
3.558673417E0,6.223418199E-2,2.602446766E-2,5.218639970E-2,8.528649739E-2
3.568671417E0,4.483096786E-2,-3.030450161E-2,1.566527545E-2,5.633453072E-2
3.578670417E0,-6.227284670E-4,-7.662851944E-2,-2.744098306E-3,7.668016600E-2
3.588668417E0,-2.334636066E-2,-6.308159885E-2,-4.555273354E-2,8.123664323E-2
3.598667417E0,-5.273252964E-2,-5.688039824E-2,-6.801188886E-2,1.031586953E-1
3.608665417E0,-5.165872503E-2,-2.098111625E-2,-6.127238810E-2,8.284405021E-2
3.618663417E0,-4.403574653E-3,3.956072621E-2,-3.942017376E-2,5.602135867E-2
3.628662417E0,3.149752546E-2,4.890781106E-2,-4.542701840E-3,5.834984347E-2
3.638660417E0,9.239711702E-2,3.179205154E-2,-4.844418168E-3,9.783368623E-2
3.648659417E0,1.217124251E-1,1.135139161E-2,-1.382398725E-2,1.230197997E-1
3.658657417E0,1.204078016E-1,-3.077388684E-2,-3.237486362E-2,1.284258642E-1
3.668655417E0,7.900520246E-2,-5.724632431E-2,-3.191059470E-2,1.026511068E-1
3.678654417E0,1.381101374E-2,-3.849518993E-2,-1.123367071E-2,4.241248762E-2
3.688652417E0,-6.536463507E-2,-1.348796421E-2,-5.978193283E-3,6.700895082E-2
3.698651417E0,-1.471052746E-1,3.142851004E-2,7.354627848E-3,1.506047928E-1
3.708649417E0,-1.718225516E-1,7.566779450E-2,1.662772715E-2,1.884809955E-1
3.718648417E0,-1.525409194E-1,7.942102172E-2,-1.302467287E-2,1.724704986E-1
3.728646417E0,-1.072230247E-1,5.702076796E-2,-3.924826562E-2,1.276266875E-1
3.738644417E0,-2.899104338E-2,1.705627324E-2,-4.152867973E-2,5.344182157E-2
3.748643417E0,6.708404537E-2,-3.008845612E-2,-5.367977858E-2,9.103352659E-2
3.758641417E0,1.345987382E-1,-5.211723810E-2,-8.932031214E-2,1.697384605E-1
3.768640417E0,1.917678427E-1,-7.525846199E-2,-6.851474941E-2,2.171013876E-1
3.778638417E0,1.750346464E-1,-5.597303828E-2,4.243909121E-3,1.838154488E-1
3.788636417E0,1.418119730E-1,-3.490563906E-2,-9.956638813E-3,1.463836534E-1
3.798635417E0,8.087938126E-2,1.416076859E-3,-4.121409953E-2,9.078591073E-2
3.808633417E0,-1.681980819E-2,4.245378233E-2,-3.445530295E-2,5.720487290E-2
3.818632417E0,-9.105050325E-2,4.616021357E-2,-1.767554820E-2,1.036020485E-1
3.828630417E0,-1.239872112E-1,2.244601736E-2,-2.515589118E-2,1.284891867E-1
3.838628417E0,-1.339827340E-1,-6.455819439E-3,-4.349743724E-3,1.342086841E-1
3.848627417E0,-1.242959077E-1,-4.675925167E-2,2.452614605E-2,1.350460370E-1
3.858625417E0,-7.166475412E-2,-6.489963524E-2,1.926949918E-2,9.858556302E-2
3.868624417E0,-1.541278537E-2,-5.892058315E-2,2.149787307E-2,6.458597075E-2
3.878622542E0,4.668537576E-2,-7.511205319E-2,-1.743054986E-2,9.013971884E-2
3.888621542E0,9.337140933E-2,-8.262231748E-2,-5.351020932E-2,1.356761214E-1
3.898619542E0,1.090122727E-1,-5.121353265E-2,-7.670962214E-2,1.427965954E-1
3.908617542E0,8.990404699E-2,-9.263314353E-3,-6.187757492E-2,1.095325565E-1
3.918616542E0,5.459808379E-2,2.784652401E-2,-2.534300208E-2,6.632229948E-2
3.928614542E0,1.941169616E-2,9.137284015E-2,-4.823952913E-3,9.353651900E-2
3.938613542E0,-2.926896885E-3,1.219863488E-1,8.804152608E-3,1.223386657E-1
3.948611542E0,-1.848929789E-2,1.147906099E-1,-2.636392593E-2,1.192216208E-1
3.958609542E0,-7.456807941E-3,9.380962159E-2,-4.776941299E-2,1.055356144E-1
3.968608542E0,6.681357510E-3,2.859600001E-2,-5.585552752E-2,6.310476772E-2
3.978606542E0,5.927468687E-3,-1.606229226E-2,-3.325837791E-2,3.740657454E-2
3.988605542E0,3.855142370E-3,-5.317255089E-2,4.614622593E-3,5.351146637E-2
3.998603542E0,-2.103952445E-2,-6.196063279E-2,2.467583477E-2,6.993338564E-2
4.008602542E0,-2.114393380E-2,-1.779843109E-2,1.329715312E-2,3.067025214E-2
4.018600542E0,-7.397349067E-3,2.139169129E-2,-3.145918965E-2,3.875572013E-2
4.028598542E0,-2.174352922E-2,4.804954031E-2,-6.648985863E-2,8.486719441E-2
4.038597542E0,-2.738631159E-2,7.659910063E-2,-5.392536163E-2,9.759803742E-2
4.048595542E0,-2.719722725E-2,6.419705573E-2,-1.980685830E-2,7.247939549E-2
4.058594542E0,-2.613983139E-2,2.440911038E-2,2.183350325E-3,3.583102669E-2
4.068592542E0,-1.717721924E-2,-1.762953792E-3,2.836425841E-2,3.320686709E-2
4.078590542E0,3.966020197E-3,-2.707731365E-2,3.014473557E-2,4.071382215E-2
4.088589542E0,2.939925212E-2,-3.857086569E-2,-8.035828471E-3,4.915894878E-2
4.098587542E0,5.083262309E-2,-5.133413147E-2,-4.501712859E-2,8.512162176E-2
4.108586542E0,7.562171113E-2,-6.414192745E-2,-6.298269868E-2,1.174719132E-1
4.118584542E0,8.440327886E-2,-7.973961275E-2,-5.878732145E-2,1.301471033E-1
4.128582542E0,7.049845386E-2,-8.267867915E-2,-1.880815387E-2,1.102703162E-1
4.138581542E0,4.132373482E-2,-7.748573952E-2,1.084424615E-2,8.848326714E-2
4.148579542E0,2.984345779E-3,-5.640458107E-2,3.181002259E-2,6.482484572E-2
4.158578542E0,-2.577156644E-2,-3.770712230E-2,2.389113843E-2,5.154403171E-2
4.168576542E0,-2.800165795E-2,-1.321715590E-2,-2.489685953E-2,3.973209876E-2
4.178575542E0,-4.617860489E-2,1.045295779E-2,-5.049187660E-2,6.921818748E-2
4.188573542E0,-4.288570885E-2,-6.395821525E-3,-5.033692539E-2,6.643716290E-2
4.198571542E0,-3.485463124E-2,-1.027633533E-2,-4.464641511E-2,5.756518713E-2
4.208570542E0,-4.214552443E-2,-1.050384684E-2,-4.870730639E-4,4.343746388E-2
4.218568542E0,-3.473717529E-2,-2.759872084E-2,3.483595669E-2,5.640837365E-2
4.228567542E0,-2.008262761E-2,-4.689303414E-2,2.853850543E-2,5.845267209E-2
4.238565542E0,-5.268487483E-3,-3.533847920E-2,2.718662918E-2,4.489630139E-2
4.248563542E0,2.581432421E-2,2.932323832E-3,-3.733681083E-2,4.548642985E-2
4.258562542E0,5.280452348E-2,4.372924279E-2,-1.243065423E-1,1.419601382E-1
4.268560542E0,5.143916208E-2,7.948043492E-2,-1.121800017E-1,1.467905982E-1
4.278559542E0,5.707558561E-2,1.083769635E-1,-5.050298631E-2,1.324905292E-1
4.288557542E0,6.936752927E-2,1.141006659E-1,-4.316239178E-2,1.403346292E-1
4.298556542E0,6.255585194E-2,6.737547426E-2,-2.264918983E-2,9.468724805E-2
4.308554542E0,6.882487111E-2,3.146295380E-3,-7.973263264E-3,6.935657853E-2
4.318552542E0,5.191870686E-2,-3.990418618E-2,-1.544775903E-2,6.727948763E-2
4.328551542E0,1.658347104E-2,-5.673568879E-2,-2.187501848E-2,6.302750453E-2
4.338549542E0,-2.653323937E-2,-4.709709283E-2,-3.278709233E-2,6.322295760E-2
4.348548542E0,-7.426168531E-2,-1.616936940E-2,-2.125638306E-2,7.891818696E-2
4.358546542E0,-1.248939316E-1,4.295101494E-2,7.180965543E-3,1.322680994E-1
4.368544542E0,-1.358504809E-1,8.101818868E-2,1.166285634E-2,1.586042946E-1
4.378543542E0,-1.046521136E-1,9.771293040E-2,-1.829944611E-2,1.443424794E-1
4.388541542E0,-6.813570365E-2,6.595908676E-2,-1.054369926E-2,9.541616652E-2
4.398540542E0,-1.365544125E-2,1.842732654E-2,-4.066036820E-2,4.668300528E-2
4.408538542E0,3.280046783E-2,-1.002018160E-2,-4.563108623E-2,5.708301639E-2
4.418536542E0,7.976808138E-2,-3.688207104E-2,-4.550361693E-2,9.896369600E-2
4.428535542E0,1.079363850E-1,-5.405766402E-2,-4.402134776E-2,1.284926975E-1
4.438533542E0,1.186756005E-1,-7.045073510E-2,-3.235030532E-2,1.417524126E-1
4.448532542E0,1.168069766E-1,-5.368125865E-2,-9.439744949E-3,1.288978514E-1
4.458530542E0,9.841741025E-2,-1.079608885E-2,4.026217282E-2,1.068811711E-1
4.468529542E0,6.491995431E-2,2.267943090E-3,1.123191655E-2,6.592344032E-2
4.478527542E0,1.657217860E-2,4.107173810E-2,-1.227424121E-1,1.304884075E-1
4.488525542E0,9.233045876E-3,3.995629949E-2,-5.552282095E-2,6.902563764E-2
4.498524542E0,-4.321311638E-2,-3.994846056E-2,8.953081191E-2,1.071401848E-1
4.508522542E0,-2.160615619E-2,-2.869141926E-2,-7.018237531E-2,7.883900893E-2
4.518521542E0,5.886611268E-3,-7.606825568E-2,-6.343819678E-2,9.922417309E-2
4.528519542E0,6.985814720E-3,-2.076135413E-1,9.868228912E-2,2.299790824E-1
4.538517542E0,2.013258476E-2,-9.664595973E-2,4.929495156E-2,1.103438025E-1
4.548516542E0,3.360416763E-2,-8.660330289E-2,-3.720641792E-2,1.000684250E-1
4.558514542E0,-1.715178385E-2,-9.307800701E-2,-3.001083434E-2,9.928922024E-2
4.568513542E0,-4.638205145E-2,4.683840835E-2,2.627972603E-2,7.096305513E-2
4.578511542E0,-3.539144218E-2,4.728091467E-2,1.521387041E-2,6.098771126E-2
4.588510542E0,-1.013602043E-1,7.487639213E-2,3.302507401E-2,1.302728698E-1
4.598508542E0,-8.163224682E-2,5.909440991E-2,-2.550964773E-2,1.039553516E-1
4.608506542E0,-4.914617646E-2,5.318632839E-2,-1.042558551E-1,1.269386289E-1
4.618505542E0,-5.425960310E-2,3.581343756E-2,-8.630782664E-2,1.080543742E-1
4.628503542E0,5.831464715E-3,7.200069493E-3,-1.228535092E-1,1.232024014E-1
4.638502542E0,6.047354881E-2,3.931309663E-2,-6.029297948E-2,9.400964337E-2
4.648500542E0,1.397085103E-1,4.632520555E-3,-7.615706027E-2,1.591848797E-1
4.658498542E0,1.513522536E-1,4.520010989E-2,-9.620014608E-2,1.849459994E-1
4.668497542E0,1.453750104E-1,-5.146475279E-2,-2.463431954E-2,1.561709453E-1
4.678495542E0,1.095474025E-1,-1.442168141E-1,1.425954634E-1,2.305050738E-1
4.688494542E0,4.889766980E-2,-9.702213669E-2,7.735398531E-2,1.333713469E-1
4.698492542E0,-1.377735570E-2,-1.312319297E-1,-8.891685426E-2,1.591158128E-1
4.708490542E0,-1.108408432E-1,-1.416436098E-1,2.546579361E-2,1.816510703E-1
4.718489542E0,-1.337361642E-1,-1.048879939E-1,8.700539947E-2,1.909366189E-1
4.728487542E0,-1.612857959E-1,3.034707665E-2,-3.679360449E-2,1.681898402E-1
4.738486542E0,-1.974874429E-1,1.738949510E-1,-6.136185050E-2,2.701962634E-1
4.748484542E0,-6.499808773E-2,2.974645614E-1,-8.473551035E-2,3.160538299E-1
4.758483542E0,3.164695837E-2,3.631571156E-1,-8.281353056E-2,3.738217509E-1
4.768481542E0,1.781142287E-1,3.033935649E-1,-1.196504045E-1,3.716026816E-1
4.778479542E0,2.592262195E-1,1.144937907E-1,-8.806725383E-2,2.967539421E-1
4.788478542E0,1.887454900E-1,-4.772556801E-2,-1.651253700E-2,1.953848861E-1
4.798476542E0,1.011593159E-1,-9.752977551E-2,4.547321141E-2,1.476925091E-1
4.808475542E0,3.823205609E-2,-1.828472574E-1,4.564628899E-2,1.922976686E-1
4.818473542E0,-6.837291788E-2,-2.278585388E-1,7.336092174E-2,2.489501846E-1
4.828471542E0,-1.788596391E-1,-1.302941825E-1,2.142302871E-2,2.223202434E-1
4.838470542E0,-9.136014987E-2,-1.399374745E-1,-4.209995270E-4,1.671207677E-1
4.848468542E0,-1.329536971E-1,-1.293538131E-1,-3.530490339E-2,1.888267215E-1
4.858467542E0,-1.566035648E-1,-5.950795423E-2,-1.093546271E-2,1.678852509E-1
4.868465542E0,-5.561136972E-2,2.019814666E-2,-4.807814598E-2,7.623711492E-2
4.878463542E0,2.542584982E-2,7.702044734E-2,-1.321178377E-2,8.217770000E-2
4.888462542E0,2.319923010E-2,1.182750937E-1,4.394767284E-2,1.282910753E-1
4.898460542E0,1.429292298E-1,1.387663868E-1,-4.617312312E-2,2.044916432E-1
4.908459542E0,2.517146305E-1,4.974543384E-2,-8.971850753E-2,2.718166183E-1
4.918457542E0,1.843450582E-1,-1.940549263E-2,-6.246171176E-2,1.956045477E-1
4.928456542E0,1.320604619E-1,-1.221843959E-1,-1.169144922E-1,2.145646538E-1
4.938454542E0,3.302898433E-2,-1.368083096E-1,-1.161333042E-1,1.824674539E-1
4.948452542E0,-1.012149009E-1,-1.026231297E-1,4.226601362E-2,1.502077856E-1
4.958451542E0,-1.874346904E-1,-1.392287463E-1,1.431737530E-1,2.738889018E-1
4.968449542E0,-1.991222513E-1,-9.413552164E-2,6.848609805E-2,2.306545317E-1
4.978448542E0,-1.338245668E-1,2.669941907E-2,-6.370541453E-3,1.366106052E-1
4.988446542E0,-6.815068714E-2,5.809077188E-2,-4.747939110E-3,8.967495114E-2
4.998444542E0,3.503304441E-2,1.424383926E-1,-1.135856724E-1,1.855201198E-1
5.008443542E0,9.391541965E-2,2.408721750E-1,-1.746686107E-1,3.120074267E-1
5.018441542E0,1.244842976E-1,1.563685250E-1,-3.291046858E-2,2.025600033E-1
5.028440542E0,1.100723363E-1,5.164846499E-2,5.870546043E-2,1.350178293E-1
5.038438542E0,7.617222648E-2,-1.825743752E-2,1.051680207E-2,7.903255809E-2
5.048436542E0,3.089581043E-2,-1.155239056E-1,1.102784872E-3,1.195890463E-1
5.058435542E0,-6.486224961E-2,-1.523580843E-1,1.772758842E-2,1.665363764E-1
5.068433542E0,-1.092486829E-1,-1.720276792E-1,-4.244493842E-2,2.081594819E-1
5.078432542E0,-1.151613143E-1,-7.556211521E-2,-8.226447701E-2,1.604344282E-1
5.088430542E0,-7.217452168E-2,1.196724046E-3,-5.862126052E-2,9.298949357E-2
5.098429542E0,-1.770858496E-2,2.000070264E-2,-1.372926235E-2,3.003522486E-2
5.108427542E0,5.910292491E-2,1.009066979E-1,-2.511554539E-2,1.196081437E-1
5.118425542E0,1.387846502E-1,8.467182138E-2,-3.290462136E-2,1.658710661E-1
5.128424542E0,1.827641539E-1,3.245040234E-2,1.874149561E-2,1.865663641E-1
5.138422542E0,1.750629688E-1,7.560723927E-4,-1.985948324E-2,1.761874393E-1
5.148421542E0,1.354870399E-1,-2.103435332E-2,-6.443748593E-2,1.514971009E-1
5.158419542E0,4.167102288E-2,-2.729546048E-2,-4.134975493E-2,6.474039345E-2
5.168417542E0,-4.592172939E-2,-3.536715796E-3,-2.830578625E-2,5.406043955E-2
5.178416542E0,-1.024280520E-1,-1.268092054E-2,-1.451863647E-2,1.042262078E-1
5.188414542E0,-1.457438236E-1,-3.796047119E-2,2.021674812E-2,1.519571531E-1
5.198413542E0,-1.731180387E-1,-5.684978259E-2,5.358680785E-2,1.899297215E-1
5.208411542E0,-1.639789503E-1,-4.252344643E-2,3.530373394E-2,1.730424609E-1
5.218409542E0,-1.047358749E-1,-2.103203271E-2,-2.280004799E-2,1.092327427E-1
5.228408542E0,-2.961629346E-2,-7.238359619E-3,-1.165233135E-1,1.204458438E-1
5.238406542E0,2.392764699E-2,5.826033200E-2,-1.093528730E-1,1.261936979E-1
5.248405542E0,7.815677147E-2,4.598365506E-2,-2.338301539E-3,9.071077728E-2
5.258403542E0,1.287538249E-1,-6.633072300E-2,-1.184944099E-1,1.871316045E-1
5.268402542E0,1.074701792E-1,-4.989238168E-2,-1.319587934E-1,1.773477158E-1
5.278400542E0,7.831157651E-2,-2.880758699E-2,3.405710757E-2,9.012472834E-2
5.288398542E0,-5.625971630E-3,-2.068336324E-1,1.101206124E-1,2.343893178E-1
5.298397542E0,-9.752209190E-2,-1.444077531E-1,1.745002109E-1,2.466059228E-1
5.308395542E0,-6.842740662E-2,-5.287110865E-2,1.327493370E-1,1.584299548E-1
5.318394542E0,-2.299867060E-2,-9.196888156E-2,4.100067616E-2,1.032873151E-1
5.328392542E0,6.108432703E-2,-1.396629934E-1,-8.829880357E-3,1.526925457E-1
5.338390542E0,1.713482327E-1,-1.520510872E-1,-6.254649639E-2,2.374696069E-1
5.348389542E0,2.348560479E-1,-1.851215319E-1,-1.788131171E-1,3.484271455E-1
5.358387542E0,1.793423633E-1,-1.776179280E-1,-1.861045951E-1,3.136028251E-1
5.368386542E0,1.412683647E-1,-6.722037686E-2,-1.309630126E-1,2.040260782E-1
5.378384542E0,5.903348923E-2,1.158118353E-1,-4.662686706E-2,1.380992352E-1
5.388382542E0,-2.393309221E-2,3.133624464E-1,2.587217510E-2,3.153382075E-1
5.398381542E0,-6.688136626E-2,4.423187676E-1,1.528052866E-2,4.476075333E-1
5.408379542E0,-9.203974251E-2,4.754708724E-1,-4.711920261E-2,4.865840975E-1
5.418378542E0,-1.276627344E-1,4.890892569E-1,-9.965701997E-2,5.152063631E-1
5.428376542E0,-1.708111660E-1,3.848860633E-1,-6.793879867E-2,4.265318470E-1
5.438375542E0,-2.041872191E-1,2.468593584E-1,-3.894304097E-2,3.227205040E-1
5.448373542E0,-2.418562249E-1,1.010226737E-1,3.568906546E-2,2.645254685E-1
5.458371542E0,-2.089871253E-1,-2.113187391E-2,8.366956294E-2,2.261034507E-1
5.468370542E0,-1.275074178E-1,-1.442234561E-1,1.096452338E-1,2.215414728E-1
5.478368542E0,-3.558725081E-3,-2.516771352E-1,4.866228282E-2,2.563631461E-1
5.488367542E0,6.969497334E-2,-2.587172559E-1,-6.006435335E-2,2.745901207E-1
5.498365542E0,1.842723335E-1,-2.303007928E-1,-1.312027484E-1,3.228140475E-1
5.508363542E0,2.007022786E-1,-1.374941149E-1,-7.359130204E-2,2.541686763E-1
5.518362542E0,1.942398262E-1,-5.257463655E-2,-3.766951740E-2,2.047246811E-1
5.528360542E0,1.887388754E-1,9.320036000E-2,-6.265466988E-2,2.196230357E-1
5.538359542E0,1.833611546E-1,1.771979335E-1,-5.590347469E-2,2.610471588E-1
5.548357542E0,2.206898889E-1,1.832157964E-1,-4.764837563E-2,2.907617974E-1
5.558355542E0,1.629370861E-1,1.067827111E-1,4.014698267E-3,1.948516338E-1
5.568354542E0,1.241268500E-1,3.618695587E-2,-6.062100828E-2,1.428001307E-1
5.578352542E0,-2.259181403E-3,-4.985992050E-2,-7.407369733E-2,8.931980860E-2
5.588351542E0,-1.341252599E-1,-1.857000956E-1,-6.283008635E-2,2.375325885E-1
5.598349542E0,-2.368267423E-1,-2.337660538E-1,-1.237914026E-2,3.329965719E-1
5.608348542E0,-2.970550370E-1,-2.170119172E-1,7.848249793E-2,3.761587028E-1
5.618346542E0,-3.158524466E-1,-1.965809417E-1,1.194802505E-1,3.907459084E-1
5.628344542E0,-2.566837040E-1,-1.377414704E-1,7.483851314E-2,3.007657554E-1
5.638343542E0,-1.329451821E-1,-4.870873164E-2,3.887053549E-2,1.468260213E-1
5.648341542E0,-2.846578069E-2,5.693617520E-2,-6.678104997E-3,6.400488890E-2
5.658340542E0,6.966676053E-2,1.131990892E-1,-1.110427183E-1,1.731992396E-1
5.668338542E0,1.218572533E-1,9.684266372E-2,-1.299257165E-1,2.027520247E-1
5.678336542E0,1.708266246E-1,4.095431870E-2,-7.440289557E-2,1.907741669E-1
5.688335542E0,1.885197509E-1,1.827089525E-2,-3.862963021E-2,1.933022774E-1
5.698333542E0,2.060893549E-1,-3.164337695E-2,-3.173459351E-2,2.109056897E-1
5.708332542E0,1.654509868E-1,-2.792703286E-2,8.842159510E-3,1.680242006E-1
5.718330542E0,1.004547629E-1,-1.129069934E-2,-1.883563578E-2,1.028271387E-1
5.728328542E0,5.263616022E-2,2.023209706E-2,-8.767256677E-2,1.042419401E-1
5.738327542E0,-1.183893062E-2,2.362051285E-2,-4.289458930E-2,5.037891123E-2
5.748325542E0,-3.140250821E-2,4.531820538E-3,-1.459523499E-2,3.492385722E-2
5.758324542E0,-3.799308769E-2,4.526283955E-3,-6.803235412E-3,3.886188327E-2
5.768322542E0,-2.334303506E-2,1.924275731E-2,-2.147097588E-2,3.709695135E-2
5.778320542E0,-3.194092713E-2,5.252395763E-2,-2.596456110E-2,6.673190680E-2
5.788319542E0,-4.164949782E-2,7.655698241E-2,-2.267608702E-2,9.005474528E-2
5.798317542E0,-4.047537692E-2,8.012870841E-2,-5.306523621E-2,1.042822389E-1
5.808316542E0,-3.893035982E-2,6.068265986E-2,-1.084553254E-1,1.302325448E-1
5.818314542E0,-3.474240124E-2,2.904745988E-2,-9.693221748E-2,1.069889908E-1
5.828312542E0,-8.057123300E-2,1.286246745E-2,5.049596965E-2,9.595316361E-2
5.838311542E0,-9.142582141E-2,-4.278219486E-2,1.720168984E-1,1.994462593E-1
5.848309542E0,-8.330911864E-2,-9.144327169E-2,6.721315920E-2,1.407831309E-1
5.858308542E0,-6.929224636E-2,-4.438600388E-2,-2.720124722E-3,8.233426884E-2
5.868306542E0,-1.362854406E-2,-5.549143785E-2,-4.690987229E-2,7.392951377E-2
5.878305667E0,3.654177222E-2,-9.486728241E-2,-9.917637885E-2,1.420248447E-1
5.888303667E0,9.910946477E-2,-5.876682878E-2,-6.985376179E-2,1.347433642E-1
5.898301667E0,1.671911182E-1,-2.725293112E-2,-4.395995200E-2,1.750087702E-1
5.908300667E0,1.773661505E-1,-3.351854246E-2,-4.261333823E-2,1.854673574E-1
5.918298667E0,1.881953036E-1,-1.452038149E-2,-2.104529858E-2,1.899242437E-1
5.928297667E0,1.725440249E-1,-6.703467295E-4,-1.638038993E-2,1.733211097E-1
5.938295667E0,1.150407885E-1,-3.177741523E-2,-7.083726346E-2,1.387879859E-1
5.948293667E0,5.580399893E-2,-6.735390351E-2,-7.394915164E-2,1.145386906E-1
5.958292667E0,-2.708733615E-2,-8.639410961E-2,-2.822450995E-3,9.058494458E-2
5.968290667E0,-1.118710860E-1,-1.091801426E-1,7.100098550E-2,1.716874584E-1
5.978289667E0,-2.003602165E-1,-5.877957389E-2,1.877190113E-2,2.096464617E-1
5.988287667E0,-2.362501338E-1,2.291870079E-2,9.496112108E-2,2.556501654E-1
5.998285667E0,-2.411661072E-1,2.760253980E-2,1.399998844E-1,2.802194838E-1
6.008284667E0,-1.951708857E-1,4.838860572E-2,-2.589439452E-2,2.027403547E-1
6.018282667E0,-3.689403042E-2,4.735840855E-2,-2.613804799E-1,2.681860243E-1
6.028281667E0,-4.201882258E-3,1.422011783E-2,-6.742073536E-2,6.903204417E-2
6.038279667E0,8.758522399E-2,1.114087357E-2,7.266101003E-2,1.143455854E-1
6.048278667E0,2.289556957E-1,3.341833580E-2,-6.414980292E-2,2.401097519E-1
6.058276667E0,1.681332508E-1,6.358152665E-3,-8.151310980E-2,1.869588276E-1
6.068274667E0,1.901187086E-1,2.366764689E-2,-6.294410706E-2,2.016612047E-1
6.078273667E0,2.182441083E-1,3.381267568E-2,-4.436165571E-2,2.252592824E-1
6.088271667E0,7.115765434E-2,-8.645811835E-3,6.987481177E-2,1.001032025E-1
6.098270667E0,6.381406311E-2,1.660709744E-3,-6.930704713E-2,9.422557715E-2
6.108268667E0,-5.537009899E-2,4.021835525E-2,-1.374019665E-1,1.535013497E-1
6.118266667E0,-1.363782652E-1,3.316184403E-2,-2.108622909E-2,1.419273341E-1
6.128265667E0,-1.634857377E-1,7.108879424E-2,5.555322647E-2,1.867280484E-1
6.138263667E0,-1.688687940E-1,9.228116856E-2,2.111078739E-2,1.935927401E-1
6.148262667E0,-1.214285793E-1,8.619361407E-2,-5.391249776E-2,1.583691775E-1
6.158260667E0,-8.178654023E-2,6.979524395E-2,-2.101664722E-2,1.095541588E-1
6.168258667E0,-7.534393184E-3,5.629416006E-2,-1.888065934E-3,5.682749625E-2
6.178257667E0,1.380103692E-2,3.879629413E-2,-5.895279765E-2,7.191003691E-2
6.188255667E0,7.264251821E-3,5.909232683E-3,-6.901059330E-2,6.964302099E-2
6.198254667E0,2.743517239E-2,-5.794188716E-3,-4.283260882E-2,5.119466461E-2
6.208252667E0,7.909455523E-4,-1.579370406E-2,3.153754234E-2,3.528006888E-2
6.218250667E0,7.903864123E-3,-2.436669066E-2,3.884831607E-2,4.653384084E-2
6.228249667E0,8.299537897E-3,8.975887159E-3,-2.614465535E-2,2.886159876E-2
6.238247667E0,-2.200281668E-2,1.683071690E-2,-3.800046980E-2,4.702587244E-2
6.248246667E0,3.868006244E-3,2.742250951E-2,-4.850791633E-2,5.585672249E-2
6.258244667E0,1.863332212E-2,1.284852549E-3,-1.934551299E-2,2.689052644E-2
6.268243667E0,4.007217485E-2,-2.628533570E-2,-4.167486012E-2,6.350977906E-2
6.278241667E0,6.645970892E-2,-5.495628057E-2,-4.423769474E-2,9.692295559E-2
6.288239667E0,6.437031604E-2,-9.471498985E-2,2.449398637E-3,1.145446046E-1
6.298238667E0,5.685532831E-2,-1.065406911E-1,2.459280431E-2,1.232406315E-1
6.308236667E0,3.188099317E-2,-8.526126640E-2,3.180300593E-3,9.108235606E-2
6.318235667E0,-4.429521672E-3,-7.634971689E-2,-4.562231541E-2,8.905220712E-2
6.328233667E0,-3.483358126E-2,-5.628753626E-2,-3.559901834E-2,7.515953185E-2
6.338231667E0,-7.214243509E-2,-4.153908595E-2,2.786315203E-2,8.778600027E-2
6.348230667E0,-7.923770238E-2,-5.362353567E-2,1.407249391E-2,9.670642244E-2
6.358228667E0,-9.639321383E-2,-5.571524916E-2,-2.906241596E-2,1.150672181E-1
6.368227667E0,-7.017404303E-2,-3.202150907E-2,-5.917089880E-2,9.721609241E-2
6.378225667E0,-6.859763369E-2,-2.377816840E-2,-3.104813039E-2,7.896216209E-2
6.388223667E0,-5.722085238E-2,-8.272494525E-3,1.981504440E-2,6.111706879E-2
6.398222667E0,3.425993286E-3,2.481786730E-3,1.522614956E-3,4.496115176E-3
6.408220667E0,2.367051568E-2,-7.663735421E-3,-6.882757545E-3,2.581469551E-2
6.418219667E0,3.503154606E-2,8.284682315E-4,-4.148482561E-2,5.430364937E-2
6.428217667E0,6.659101546E-2,3.023494715E-3,-6.021170318E-2,8.982735697E-2
6.438215667E0,3.991652928E-2,-1.469616341E-2,-2.550029218E-2,4.959406648E-2
6.448214667E0,1.948401891E-2,-8.078659326E-3,-1.249140680E-2,2.451381188E-2
6.458212667E0,2.527345676E-2,-4.804657102E-3,-1.010925114E-2,2.764108003E-2
6.468211667E0,-1.305895217E-2,-2.454688540E-3,-1.476538897E-2,1.986399856E-2
6.478209667E0,-3.034704924E-4,7.002232606E-3,-4.022299647E-2,4.082906809E-2
6.488208667E0,-2.531785905E-2,5.080097504E-3,-3.171003520E-2,4.089410361E-2
6.498206667E0,-3.934368487E-2,1.477278021E-2,-2.455304325E-2,4.867250258E-2
6.508204667E0,-1.273512606E-2,4.728868051E-2,-4.730397463E-4,4.897577469E-2
6.518203667E0,-1.547867619E-2,5.834074949E-2,1.299251318E-3,6.037317717E-2
6.528201667E0,7.752359111E-2,4.940162670E-2,-5.440190971E-2,1.068175813E-1
6.538200667E0,1.128423085E-1,5.555826056E-2,-9.843085885E-2,1.597145607E-1
6.548198667E0,1.528021803E-1,5.992139806E-2,-7.763172805E-2,1.815647693E-1
6.558196667E0,1.687070089E-1,3.976533308E-2,-2.239834428E-2,1.747713432E-1
6.568195667E0,1.198311931E-1,2.517267452E-2,2.056114912E-2,1.241609408E-1
6.578193667E0,7.285612430E-2,2.720560522E-2,1.547874928E-2,7.929534339E-2
6.588192667E0,6.218999896E-2,2.995523097E-2,-4.153686583E-2,8.056192063E-2
6.598190667E0,-1.976746269E-2,8.713009134E-3,-3.120074272E-2,3.794938017E-2
6.608188667E0,-2.665471528E-2,2.512823568E-2,-2.520968556E-2,4.446830693E-2
6.618187667E0,-9.689702455E-2,1.212001724E-2,-1.399881899E-2,9.865036806E-2
6.628185667E0,-5.659191124E-3,-3.557311700E-2,-9.930911064E-2,1.056398247E-1
6.638184667E0,-7.052096564E-2,-1.768803748E-2,-5.575670958E-2,9.162359919E-2
6.648182667E0,-1.904564949E-1,-9.115991928E-4,8.597278118E-2,2.089636968E-1
6.658180667E0,-2.784648746E-2,-4.208559047E-2,-1.837779880E-2,5.370630576E-2
6.668179667E0,-8.630395286E-2,-7.552619138E-2,-4.183682799E-3,1.147609736E-1
6.678177667E0,-1.313081810E-1,-3.950593597E-2,3.215442359E-2,1.408419836E-1
6.688176667E0,-2.370808404E-2,-3.251594597E-2,2.942903638E-3,4.034873819E-2
6.698174667E0,-2.700704657E-2,-3.850210609E-2,-6.367617846E-3,4.745881683E-2
6.708172667E0,5.943950526E-3,-1.093551753E-2,-6.342767179E-2,6.463733937E-2
6.718171667E0,8.376523800E-2,1.499663721E-2,-1.219717491E-1,1.487233062E-1
6.728169667E0,4.018886335E-2,2.183619845E-2,-6.016492546E-2,7.557633595E-2
6.738168667E0,3.285967089E-2,3.891821771E-2,5.376514792E-3,5.121808813E-2
6.748166667E0,-1.547505822E-2,1.735701199E-2,6.897317111E-2,7.278764748E-2
6.758165667E0,-3.602582853E-2,-1.296581699E-2,6.206585526E-2,7.292559990E-2
6.768163667E0,-6.142434262E-2,-7.872892153E-3,3.195094049E-2,6.968353389E-2
6.778161667E0,-4.388898142E-2,1.224019580E-2,-2.600490689E-2,5.246256061E-2
6.788160667E0,2.820733376E-3,3.330279848E-2,-2.333389878E-2,4.076154751E-2
6.798158667E0,3.885602709E-2,5.072135241E-2,-2.799997687E-2,6.975991067E-2
6.808157667E0,1.131902910E-1,9.421296070E-2,-9.762920558E-2,1.766906498E-1
6.818155667E0,2.107389512E-1,1.238879365E-1,-1.453863394E-1,2.844227734E-1
6.828153667E0,2.260881846E-1,1.069764732E-1,-9.838934362E-2,2.687755494E-1
6.838152667E0,2.632969780E-1,8.037549745E-2,-8.235920191E-2,2.873474505E-1
6.848150667E0,2.329070613E-1,3.160968237E-4,-2.589907229E-2,2.343428281E-1
6.858149667E0,1.213482166E-1,-9.530226957E-2,5.061993062E-2,1.623893150E-1
6.868147667E0,3.287169423E-2,-1.998498824E-1,5.963165939E-2,2.111313776E-1
6.878145667E0,-6.851515140E-2,-2.881513355E-1,2.179257274E-2,2.969855794E-1
6.888144875E0,-1.480454704E-1,-2.912554213E-1,-4.763024926E-2,3.301754418E-1
6.898142875E0,-2.205594960E-1,-2.719755799E-1,-7.245752692E-2,3.575853752E-1
6.908141875E0,-2.615448598E-1,-1.845648039E-1,-1.137283444E-2,3.203111329E-1
6.918139875E0,-2.683239754E-1,-6.491399746E-2,4.100886226E-2,2.790937291E-1
6.928137875E0,-2.518135215E-1,3.140112863E-2,8.993602395E-2,2.692295840E-1
6.938136875E0,-1.654061460E-1,4.859783554E-2,8.497466147E-2,1.922020704E-1
6.948134875E0,-7.100635763E-2,6.270621674E-2,2.791285336E-2,9.875778362E-2
6.958133875E0,6.090971455E-3,6.197861298E-2,-1.177980065E-2,6.338148076E-2
6.968131875E0,9.264379643E-2,4.017295710E-2,-6.748096168E-2,1.214513058E-1
6.978130875E0,1.351395691E-1,2.196186790E-2,-1.025174779E-1,1.710405216E-1
6.988128875E0,1.633886008E-1,9.530577790E-3,-7.527354598E-2,1.801465334E-1
6.998126875E0,1.757803491E-1,7.799701458E-3,-4.054108500E-2,1.805634128E-1
7.008125875E0,1.604274977E-1,2.117372719E-2,-6.848258972E-3,1.619635990E-1
7.018123875E0,1.509346527E-1,3.419671898E-2,-2.569734335E-2,1.568790567E-1
7.028122875E0,1.332388585E-1,5.605140924E-2,-4.184559882E-2,1.504839129E-1
7.038120875E0,1.264481946E-1,5.734579093E-2,-8.208672166E-2,1.612944994E-1
7.048118875E0,1.104130828E-1,6.807832785E-2,-1.368441421E-1,1.885524511E-1
7.058117875E0,1.153455016E-1,6.058135685E-2,-1.390508813E-1,1.905513923E-1
7.068115875E0,8.322162967E-2,5.499651672E-2,-9.575458825E-2,1.382729101E-1
7.078114875E0,3.071301185E-2,6.313498210E-2,-6.355923414E-3,7.049619014E-2
7.088112875E0,-7.725158595E-3,8.055847876E-2,3.363786221E-2,8.764047209E-2
7.098110875E0,-7.818670191E-2,8.564060451E-2,6.075023174E-2,1.309124293E-1
7.108109875E0,-1.617442541E-1,8.319593847E-2,9.054588854E-2,2.031780644E-1
7.118107875E0,-2.380431459E-1,7.552969971E-2,5.265710056E-2,2.552293970E-1
7.128106875E0,-2.777466904E-1,3.995557772E-2,2.194752395E-2,2.814629034E-1
7.138104875E0,-2.793808410E-1,-1.130169941E-2,-1.012796223E-2,2.797927060E-1
7.148102875E0,-2.050302414E-1,-4.251057342E-2,-5.508311033E-2,2.165148905E-1
7.158101875E0,-9.923883442E-2,-6.582038898E-2,-6.636180460E-2,1.363251957E-1
7.168099875E0,5.443867408E-3,-7.517782523E-2,-5.458609700E-2,9.306440289E-2
7.178098875E0,1.531999372E-1,-5.533482383E-2,-7.841116190E-2,1.807774150E-1
7.188096875E0,2.246753511E-1,-3.714236350E-2,-4.339452624E-2,2.318224611E-1
7.198094875E0,2.760381705E-1,-3.560201503E-2,-5.672968626E-3,2.783823946E-1
7.208093875E0,3.084966493E-1,-4.049835465E-2,-3.107795119E-3,3.111590554E-1
7.218091875E0,2.581372852E-1,-2.819975065E-2,-1.474960148E-2,2.600915891E-1
7.228090875E0,1.535340324E-1,1.766420094E-2,-5.542868078E-2,1.641860584E-1
7.238088875E0,6.564062364E-2,2.730233096E-2,-7.813692749E-2,1.056384787E-1
7.248087875E0,-6.982452571E-2,1.889253650E-2,-3.888573825E-2,8.212486205E-2
7.258085875E0,-1.461410688E-1,-1.029677317E-2,-3.239942193E-3,1.465391850E-1
7.268083875E0,-1.719610209E-1,-5.547882979E-2,1.892626762E-2,1.816774529E-1
7.278082875E0,-1.919101128E-1,-7.811631605E-2,3.120191216E-2,2.095356999E-1
7.288080875E0,-1.591001432E-1,-8.944446498E-2,1.981855273E-2,1.835917834E-1
7.298079875E0,-9.777885776E-2,-6.962955762E-2,-1.177395344E-2,1.206134582E-1
7.308077875E0,-4.351285927E-2,-4.915688418E-2,-2.136104822E-2,6.903667551E-2
7.318075875E0,4.315943163E-2,-3.267914725E-2,-4.650173664E-2,7.136578111E-2
7.328074875E0,9.531878795E-2,-9.905585311E-3,-8.167975545E-3,9.617956011E-2
7.338072875E0,8.424375951E-2,-2.218592590E-2,3.165624082E-2,9.268950268E-2
7.348071875E0,6.894342341E-2,-3.181570536E-3,9.665447474E-3,6.969030705E-2
7.358069875E0,3.698444299E-2,-2.985910823E-2,-3.252455235E-2,5.759567582E-2
7.368067875E0,-2.178632353E-2,-3.662951700E-2,-4.852487326E-2,6.458350202E-2
7.378066875E0,-6.132691339E-2,-4.630163396E-2,-6.347620368E-2,9.966975492E-2
7.388064875E0,-1.084862425E-1,-3.057320857E-2,-2.948809326E-2,1.165055086E-1
7.398063875E0,-1.389865984E-1,3.948195325E-3,1.392338991E-2,1.397380534E-1
7.408061875E0,-1.121949487E-1,2.847771266E-2,3.592236936E-2,1.211986108E-1
7.418059875E0,-7.650032837E-2,5.263391269E-2,3.650475204E-2,9.977587849E-2
7.428058875E0,-2.273693461E-2,8.128134079E-2,4.367519259E-2,9.503234715E-2
7.438056875E0,3.706802163E-2,7.238014268E-2,-9.328063130E-3,8.185313704E-2
7.448055875E0,8.024261948E-2,8.158459201E-2,-6.352648973E-2,1.308836832E-1
7.458053875E0,1.066078610E-1,7.675384171E-2,-8.554184139E-2,1.567603103E-1
7.468051875E0,1.335528175E-1,6.758887935E-2,-8.494484067E-2,1.721053097E-1
7.478050875E0,1.411139617E-1,6.742115563E-2,-7.042445004E-2,1.715178287E-1
7.488048875E0,1.132441950E-1,6.822551323E-2,-1.488642633E-2,1.330435043E-1
7.498047875E0,8.530502915E-2,6.548035512E-2,-2.311404347E-2,1.099949268E-1
7.508045875E0,8.640854493E-2,3.657649920E-2,-7.699028850E-2,1.213745503E-1
7.518044875E0,3.880391378E-2,8.946084632E-3,-1.027203763E-1,1.101691965E-1
7.528042875E0,1.795208495E-2,1.117293276E-2,-1.016631997E-1,1.038389038E-1
7.538040875E0,-1.913428232E-3,1.892145281E-2,-8.368535042E-2,8.581911476E-2
7.548039875E0,-4.917409692E-2,3.714072810E-2,1.432567835E-4,6.162423236E-2
7.558037875E0,-6.783636276E-2,5.170900195E-2,4.115738153E-2,9.470756596E-2
7.568036875E0,-7.801972736E-2,6.221138698E-2,4.115270376E-2,1.079392401E-1
7.578034875E0,-1.171024071E-1,5.266463798E-2,5.431361675E-2,1.394148730E-1
7.588032875E0,-1.159573761E-1,1.986040601E-2,1.986825407E-2,1.193117611E-1
7.598031875E0,-8.715731744E-2,-2.287525780E-2,-2.730591238E-2,9.415565970E-2
7.608029875E0,-6.221287619E-2,-6.955544416E-2,-5.756349921E-2,1.096446908E-1
7.618028875E0,-3.936396740E-2,-1.020955008E-1,-3.707485557E-2,1.155316326E-1
7.628026875E0,1.586641967E-3,-1.172048979E-1,-1.160672307E-3,1.172213832E-1
7.638024875E0,3.907880601E-2,-1.118872938E-1,5.415691137E-3,1.186391558E-1
7.648023875E0,1.010147434E-1,-1.155998098E-1,8.410634995E-3,1.537466526E-1
7.658021875E0,1.649314252E-1,-1.193617804E-1,-2.870222747E-2,2.056050279E-1
7.668020875E0,2.119841157E-1,-1.242698510E-1,-5.576606512E-2,2.519724493E-1
7.678018875E0,2.019516458E-1,-1.418425796E-1,-7.279549599E-2,2.572993760E-1
7.688016875E0,1.642160184E-1,-1.231708942E-1,-6.271781981E-2,2.146427143E-1
7.698015875E0,7.911750555E-2,-9.473296090E-2,-2.958808064E-2,1.269226854E-1
7.708013875E0,4.889332093E-3,-8.538411275E-2,1.417365074E-2,8.669051074E-2
7.718012875E0,-6.945596840E-2,-6.926772460E-2,5.194374025E-2,1.109968530E-1
7.728010875E0,-1.201127730E-1,-4.829103031E-2,4.659295321E-2,1.375863552E-1
7.738008875E0,-1.433205181E-1,-1.314889879E-2,9.207025766E-3,1.442166210E-1
7.748007875E0,-1.483137479E-1,1.042614282E-2,-3.462896526E-2,1.526592202E-1
7.758005875E0,-1.446773280E-1,2.786276830E-2,-6.860187292E-2,1.625240907E-1
7.768004875E0,-1.315456145E-1,5.582282879E-2,-5.842245519E-2,1.543814114E-1
7.778002875E0,-9.499580238E-2,7.064658028E-2,-4.986505508E-3,1.184905355E-1
7.788000875E0,-7.321262173E-2,7.685307993E-2,5.487962723E-2,1.194916623E-1
7.797999875E0,-3.871437829E-2,8.387631683E-2,6.354870915E-2,1.121270621E-1
7.807997875E0,7.767368183E-3,9.782442036E-2,3.988502741E-2,1.059281107E-1
7.817996875E0,2.962192141E-2,1.292411537E-1,-1.222360432E-2,1.331546115E-1
7.827994875E0,5.651871141E-2,1.453917024E-1,-9.337126315E-2,1.818001778E-1
7.837993875E0,1.098127930E-1,1.338699284E-1,-1.760035300E-1,2.468952203E-1
7.847991875E0,1.274116331E-1,8.455891530E-2,-1.245041782E-1,1.971933690E-1
7.857989875E0,1.351965063E-1,4.016675357E-2,-6.446438313E-2,1.550713388E-1
7.867988875E0,1.353774411E-1,7.424502075E-3,-3.780634224E-2,1.407533101E-1
7.877986875E0,1.099504219E-1,-2.857952731E-2,-6.950000525E-3,1.138164626E-1
7.887985375E0,6.473492648E-2,-1.461505157E-2,2.075936973E-2,6.953532822E-2
7.897983375E0,4.799599260E-2,-8.915414158E-3,-3.039967418E-2,5.750860897E-2
7.907981375E0,2.854636263E-2,7.164794337E-3,-8.514247656E-2,9.008590573E-2
7.917980375E0,-3.233258095E-2,3.509164447E-2,-6.384984076E-2,7.970960712E-2
7.927978375E0,-8.184037115E-2,4.138692129E-2,-4.029725611E-2,1.001728130E-1
7.937977375E0,-1.503903500E-1,4.307418105E-2,1.729080141E-2,1.573900069E-1
7.947975375E0,-1.632914274E-1,-1.059590394E-2,6.164894879E-2,1.748626785E-1
7.957973375E0,-1.897183205E-1,-5.245602943E-2,6.413050711E-2,2.070202843E-1
7.967972375E0,-7.344121132E-2,-6.591345107E-2,6.952748716E-2,1.207156412E-1
7.977970375E0,-2.499852799E-2,-3.638482017E-2,1.296327710E-1,1.369431884E-1
7.987969375E0,-5.963063613E-4,-6.091717889E-2,8.245626569E-2,1.025197250E-1
7.997967375E0,1.252465553E-1,-1.611539046E-1,3.712104857E-2,2.074493982E-1
8.007965375E0,1.672853315E-1,-1.122913364E-1,-5.198700964E-2,2.080778112E-1
8.017964375E0,1.674160898E-1,-3.370697812E-2,-8.559563577E-2,1.910259678E-1
8.027962375E0,2.312776616E-1,-1.501210492E-2,-8.242878377E-2,2.459862281E-1
8.037961375E0,2.243252125E-1,1.353367299E-2,-1.042967856E-1,2.477554859E-1
8.047959375E0,1.292308846E-1,2.098127156E-2,-6.904743075E-2,1.480148066E-1
8.057957375E0,6.352539338E-2,1.163937612E-2,-3.994993150E-2,7.594042209E-2
8.067956375E0,-3.837936938E-2,1.014566833E-2,-1.039225638E-2,4.103546725E-2
8.077954375E0,-7.553586669E-2,-3.609949431E-2,5.234719813E-2,9.873737792E-2
8.087953375E0,-3.601855606E-2,-5.216323011E-2,1.783324760E-1,1.892638660E-1
8.097951375E0,-1.040225512E-1,3.990085144E-4,1.047867823E-1,1.476520237E-1
8.107949375E0,-3.308407972E-1,6.522151533E-2,6.217052042E-2,3.428916050E-1
8.117948375E0,-2.254847154E-1,-3.704836037E-2,7.948704958E-2,2.419382751E-1
8.127946375E0,1.079578004E-1,-1.659281745E-2,-3.698656261E-2,1.153178827E-1
8.137945375E0,3.040716592E-1,-1.031357478E-2,-2.303773731E-1,3.816276691E-1
8.147943375E0,-3.041385368E-2,9.110490977E-2,-1.420224363E-1,1.714510994E-1
8.157941375E0,-9.169800930E-2,3.152673230E-1,-1.507991070E-1,3.613064911E-1
8.167940375E0,3.646303216E-1,-4.190474706E-2,-1.699481535E-1,4.044671236E-1
8.177938375E0,3.258310490E-1,5.825496901E-2,-7.708910644E-2,3.398562111E-1
8.187937375E0,3.144807263E-1,1.664059103E-2,2.016704679E-2,3.155657559E-1
8.197935375E0,3.401576775E-1,-7.124374545E-2,4.802025855E-2,3.508402230E-1
8.207933375E0,2.461226092E-1,-8.908254974E-2,3.050843239E-2,2.635200256E-1
8.217932375E0,1.900213525E-1,-2.695966585E-2,1.726039588E-2,1.926988823E-1
8.227930375E0,2.393315068E-1,-1.723428807E-1,1.293298852E-1,3.220370443E-1
8.237929375E0,1.701188922E-2,2.928486597E-2,-2.031439662E-2,3.949281529E-2
8.247927375E0,6.918615595E-2,-7.368214401E-2,5.502990067E-2,1.150828940E-1
8.257926375E0,3.320049047E-2,-2.909732566E-2,2.984769702E-2,5.328988596E-2
8.267924375E0,-4.816936255E-2,-2.336355513E-2,-7.506129205E-2,9.219729259E-2
8.277922375E0,-1.147954613E-3,-7.930881914E-2,7.284461260E-3,7.965092572E-2
8.287921375E0,-1.763619643E-1,2.237227118E-1,-1.168624520E-1,3.079159413E-1
8.297919375E0,-8.355276480E-2,-7.786513246E-2,-5.208933592E-2,1.255282529E-1
8.307918375E0,-3.047978103E-2,-8.219795580E-2,-8.317021072E-2,1.208420661E-1
8.317916375E0,-1.716863845E-1,-3.170466308E-2,-5.078423738E-2,1.818252982E-1
8.327914375E0,-1.423183054E-1,-1.761133846E-2,-3.604983866E-2,1.478656490E-1
8.337913375E0,-5.551156506E-2,1.161181198E-2,-5.630050063E-2,7.991316790E-2
8.347911375E0,4.698983297E-2,3.366253015E-2,-1.559452415E-1,1.663133448E-1
8.357910375E0,2.776360318E-2,1.524497028E-2,-1.168577743E-1,1.210742177E-1
8.367908375E0,5.227337703E-2,1.230837981E-2,-7.529576540E-2,9.248488767E-2
8.377906375E0,1.071996358E-1,4.688201579E-2,-4.031245887E-2,1.237528976E-1
8.387905375E0,9.259621471E-2,2.938727447E-2,1.503786922E-2,9.830467125E-2
8.397903375E0,1.279228990E-1,7.374825410E-2,1.132839561E-2,1.480925576E-1
8.407902375E0,1.547814994E-1,1.124140000E-1,-5.995150208E-3,1.913900775E-1
8.417900375E0,1.537893730E-1,1.094724211E-1,-1.124653459E-2,1.891080823E-1
8.427898375E0,1.704846355E-1,2.864301528E-2,-3.063590169E-2,1.755676273E-1
8.437897375E0,1.788939549E-1,-2.067019056E-2,-3.833376110E-2,1.841189320E-1
8.447895375E0,1.240694377E-1,-4.400863007E-2,-9.644163609E-2,1.631899937E-1
8.457894375E0,5.501513645E-2,-4.268260946E-2,-8.993660867E-2,1.137412149E-1
8.467892375E0,1.317085326E-3,-4.680708007E-2,-8.844498396E-3,4.765356870E-2
8.477890375E0,-7.801837519E-2,-3.731391532E-2,5.503048539E-2,1.025063387E-1
8.487889375E0,-8.541378736E-2,-3.354309163E-2,4.407572687E-2,1.018004114E-1
8.497887375E0,-8.013170511E-2,-2.667666061E-2,3.925820589E-3,8.454671165E-2
8.507886375E0,-7.143894196E-2,-3.831663058E-2,-2.595286667E-2,8.511896320E-2
8.517884375E0,-2.863600776E-2,-2.755229943E-2,-4.356000245E-2,5.896290323E-2
8.527882375E0,-7.765979469E-3,-4.508404266E-3,-3.496050239E-2,3.609533035E-2
8.537881375E0,1.881049275E-3,3.606169755E-3,6.367617846E-4,4.116827935E-3
8.547879375E0,3.218044370E-2,-1.193001014E-2,-1.460634470E-3,3.435170377E-2
8.557878375E0,5.983631194E-2,7.867154572E-3,-6.965203285E-3,6.075187572E-2
8.567876375E0,8.163312390E-2,-3.882633420E-3,-1.681483805E-2,8.343728507E-2
8.577874375E0,1.072494833E-1,-1.906323865E-2,-1.467534184E-2,1.099146232E-1
8.587873375E0,7.251453727E-2,-2.663803244E-2,-1.932797134E-2,7.963361956E-2
8.597871375E0,2.818080202E-2,-1.886599562E-2,-6.594782174E-2,7.415658153E-2
8.607870375E0,-5.030198827E-2,-1.809183341E-3,-7.507766426E-2,9.038926285E-2
8.617868375E0,-1.274728096E-1,1.161035931E-2,1.003674567E-2,1.283933561E-1
8.627867375E0,-1.586701901E-1,-7.828864446E-3,8.534712911E-2,1.803376078E-1
8.637865375E0,-1.329408333E-1,-3.974585454E-2,2.173059225E-2,1.404464907E-1
8.647863375E0,-1.132263610E-1,-5.212884117E-2,-1.242942631E-2,1.252681745E-1
8.657862375E0,-9.242971525E-2,-7.539133997E-2,-1.107930422E-2,1.197908902E-1
8.667860375E0,-4.821657881E-2,-8.039107480E-2,-3.615859687E-2,1.004739146E-1
8.677859375E0,-3.143404663E-2,-6.038905654E-2,-3.501838982E-2,7.655863807E-2
8.687857375E0,-1.615454122E-2,-5.035440308E-2,-7.411930561E-3,5.339917440E-2
8.697855375E0,6.775241867E-2,-2.086015197E-2,-5.482934117E-3,7.110273372E-2
8.707854375E0,1.393574215E-1,-8.983543357E-3,-1.545594513E-2,1.404993994E-1
8.717852375E0,2.006656238E-1,-2.460916738E-2,-2.699133217E-2,2.039628293E-1
8.727851375E0,2.194900037E-1,4.631515564E-3,-7.908885419E-2,2.333502936E-1
8.737849375E0,1.914059731E-1,2.937423700E-2,-5.824645400E-2,2.022170659E-1
8.747847375E0,1.731714311E-1,3.313330231E-2,-2.546462417E-2,1.781420988E-1
8.757846375E0,1.703232524E-1,5.857949861E-2,-4.427920997E-2,1.854783448E-1
8.767844375E0,1.262327613E-1,7.214921420E-2,-3.686026275E-2,1.499963270E-1
8.777843375E0,7.606292009E-2,7.228603905E-2,-2.212235570E-2,1.072391620E-1
8.787841375E0,3.299686119E-2,7.045863798E-2,-1.306209505E-2,7.889125960E-2
8.797839375E0,-1.141332641E-2,6.010597821E-2,-1.181546867E-2,6.231049620E-2
8.807838375E0,-5.652766496E-2,4.788974687E-2,-4.075509310E-4,7.408758910E-2
8.817836375E0,-9.893094197E-2,3.846732429E-2,-7.208447456E-3,1.063909208E-1
8.827835375E0,-1.097175930E-1,1.981591235E-2,4.190699458E-3,1.115714236E-1
8.837833375E0,-1.087659587E-1,1.328151181E-2,-2.002437472E-2,1.113885448E-1
8.847832375E0,-8.619351357E-2,1.407598397E-3,-3.831855834E-2,9.433777095E-2
8.857830375E0,-4.459437490E-2,-1.027822654E-2,-1.691248655E-2,4.878865047E-2
8.867828375E0,-8.529772013E-3,-2.072463362E-3,3.887989104E-2,3.985847516E-2
8.877827375E0,2.223184481E-2,1.925058709E-3,5.305821955E-2,5.755984222E-2
8.887825625E0,9.258875951E-2,-2.339699389E-2,1.095417380E-2,9.612539537E-2
8.897824625E0,1.305814818E-1,-3.007733728E-2,-2.068744898E-2,1.355881268E-1
8.907822625E0,1.681925270E-1,-2.030091148E-2,-1.630671501E-2,1.701962458E-1
8.917820625E0,1.710921612E-1,-2.636851234E-2,1.944900870E-2,1.742012917E-1
8.927819625E0,1.601030503E-1,-1.175625647E-2,-5.894578099E-3,1.606422807E-1
8.937817625E0,1.717960198E-1,-9.779723994E-3,4.977033019E-2,1.791273324E-1
8.947816625E0,1.790499294E-1,7.098464984E-3,7.772060573E-2,1.953196303E-1
8.957814625E0,9.309132770E-2,-3.428967143E-2,2.132502937E-1,2.351966510E-1
8.967812625E0,-3.755491197E-1,1.324863950E-1,1.131684151E0,1.199707799E0
8.977811625E0,-4.073601656E-1,5.347845163E-2,8.944357145E-1,9.842852720E-1
8.987809625E0,-9.307407841E-2,-1.120817776E-1,6.226425129E-1,6.394597781E-1
8.997808625E0,-2.814627421E-1,3.887516210E-1,8.028414202E-1,9.353627339E-1
9.007806625E0,-1.133083682E-1,-9.273066413E-2,1.026468183E0,1.036858087E0
9.017805625E0,-2.060212348E-1,1.005182235E-1,9.695712662E-1,9.963017127E-1
9.027803625E0,-2.462275667E-1,-3.815293595E-2,8.405740875E-1,8.767259878E-1
9.037801625E0,-2.654603747E-1,-5.146048615E-2,9.582463789E-1,9.956673716E-1
9.047800625E0,-3.282778895E-1,2.268166198E-1,1.177534508E0,1.243301922E0
9.057798625E0,-3.448455365E-1,2.106356382E-1,1.355092227E0,1.414058259E0
9.067797625E0,-1.652310584E-1,1.585740948E-1,1.560960996E0,1.577671156E0
9.077795625E0,-2.515587656E-1,1.242591250E-1,1.925855319E0,1.946186233E0
9.087793625E0,-3.431792262E-1,3.991967216E-2,2.204459358E0,2.231368778E0
9.097792625E0,-2.733745810E-1,3.501584994E-2,2.415702887E0,2.431374140E0
9.107790625E0,-2.001099922E-1,-1.145365576E-1,2.322872491E0,2.334287738E0
9.117789625E0,-2.800301743E-1,-6.064754002E-2,2.446110163E0,2.462833724E0
9.127787625E0,-2.262939700E-1,-7.014098799E-2,2.182092004E0,2.194915541E0
9.137785625E0,-3.260302198E-1,-6.769809438E-2,1.989743752E0,2.017413922E0
9.147784625E0,-5.382933573E-1,-1.463229172E-1,1.847454683E0,1.929833915E0
9.157782625E0,-3.960292849E-1,-1.276428722E-1,1.202214435E0,1.272183731E0
9.167781625E0,-4.042805833E-1,8.591034388E-2,1.037537547E0,1.116829234E0
9.177779625E0,-5.141485959E-1,1.847751940E-1,1.015576574E0,1.153207019E0
9.187778625E0,-4.744522874E-1,1.765840124E-1,1.001308783E0,1.122009878E0
9.197776625E0,-5.000861885E-1,1.284679143E-1,1.071651957E0,1.189549544E0
9.207774625E0,-1.755410153E-1,4.307420846E-2,9.912346154E-1,1.007579326E0
9.217773625E0,-1.235985906E-1,1.111816810E-1,1.169230877E0,1.180990610E0
9.227771625E0,-2.434166640E-2,1.563985834E-2,1.386904589E0,1.387206351E0
9.237770625E0,-1.592497954E-1,4.040115383E-2,1.743321034E0,1.751045682E0
9.247768625E0,-6.059864268E-1,-1.616164742E-1,2.133593443E0,2.223861600E0
9.257766625E0,-1.647226430E-1,-4.334436444E-1,1.280016902E0,1.361414783E0
9.267765625E0,3.897553687E-1,1.078926953E-1,1.874384034E0,1.917515473E0
9.277763625E0,1.770925739E-1,1.081603151E-1,1.340270121E0,1.356239075E0
9.287762625E0,4.580080166E-2,-5.397531878E-2,1.464339851E0,1.466049879E0
9.297760625E0,-1.509230679E-1,2.260297124E-1,1.867670261E0,1.887341890E0
9.307758625E0,-3.677387014E-2,2.108422276E-1,1.136911561E0,1.156881438E0
9.317757625E0,-8.129150033E-2,1.886960445E-2,1.182624509E0,1.185565308E0
9.327755625E0,-1.157106967E-1,-5.884583015E-3,1.085136221E0,1.091303904E0
9.337754625E0,-4.377583779E-1,4.747711799E-1,1.751672612E0,1.866921801E0
9.347752625E0,-3.363062628E-1,2.078887990E-2,6.236271840E-1,7.088335098E-1
9.357751625E0,-2.170277412E-1,-5.252402524E-1,6.567545843E-1,8.685073098E-1
9.367749625E0,-6.467122838E-1,-1.622530350E-1,1.095274708E0,1.282259534E0
9.377747625E0,-1.041041198E-1,-2.555391846E-1,-9.621476412E-2,2.922246113E-1
9.387746625E0,-7.043994516E-2,-1.136479087E-1,-4.683619738E-4,1.337080865E-1
9.397744625E0,-2.960034518E-1,2.713718731E-1,6.264765322E-1,7.441327720E-1
9.407743625E0,1.351094194E-1,-1.284327945E-1,-6.250334394E-1,6.522394792E-1
9.417741625E0,-1.175035992E-1,-1.528556458E-1,4.910667121E-2,1.989557977E-1
9.427739625E0,-3.262483209E-2,1.061471553E-1,-1.958688605E-1,2.251581861E-1
9.437738625E0,-7.044988543E-2,2.321063765E-1,-5.333783340E-1,5.859428330E-1
9.447736625E0,9.802857041E-2,8.754485993E-2,-9.909779227E-1,9.996554138E-1
9.457735625E0,6.547530824E-1,-7.940063870E-2,-1.502930304E0,1.641281682E0
9.467733625E0,3.683669847E-1,-5.410730140E-2,-1.473001916E0,1.519327641E0
9.477732625E0,4.220615275E-1,9.566609429E-2,-1.608616388E0,1.665813501E0
9.487730625E0,2.928773841E-1,3.105674773E-1,-1.382112796E0,1.446535551E0
9.497728625E0,4.813435234E-1,-1.109199085E-1,-1.674352541E0,1.745695061E0
9.507727625E0,2.572979540E-2,-2.112445526E-1,-7.209494108E-1,7.517009620E-1
9.517725625E0,4.620906888E-1,-1.374290646E-1,-6.294761539E-1,7.928775320E-1
9.527724625E0,1.196955742E-1,8.816091891E-2,-2.783584553E-1,3.155674377E-1
9.537722625E0,3.956310895E-1,8.547242397E-2,-4.372103477E-1,5.958039798E-1
9.547720625E0,1.667579126E-1,-1.371732855E-1,-3.774886411E-1,4.348820367E-1
9.557719625E0,-1.546253787E-1,-2.827317706E-1,-1.990859985E-1,3.787895150E-1
9.567717625E0,6.606298265E-1,1.653221288E-1,-2.113417625E-2,6.813294558E-1
9.577716625E0,3.876326832E-1,4.715717297E-1,4.397644114E-1,7.523508031E-1
9.587714625E0,5.639683351E-2,-2.113487061E-2,3.201578611E-1,3.257734514E-1
9.597712625E0,-5.072244693E-1,-1.689433826E-1,6.702253997E-1,8.573334330E-1
9.607711625E0,-3.716048804E-1,2.860971356E-1,7.512315559E-1,8.856018342E-1
9.617709625E0,-5.992343545E-2,2.356168438E-1,3.275054723E-1,4.078798225E-1
9.627708625E0,-3.399097556E-1,-2.774409541E-1,7.475027865E-1,8.667597942E-1
9.637706625E0,-5.372845665E-2,-3.945918566E-2,8.979335189E-1,9.004045639E-1
9.647705625E0,-5.637582739E-1,-1.745389121E-1,1.191919827E-1,6.020747063E-1
9.657703625E0,-4.917194076E-1,2.011876157E-1,6.535006088E-1,8.422158145E-1
9.667701625E0,-1.382702780E-1,-2.224976836E-1,1.971160716E-1,3.278393427E-1
9.677700625E0,-8.193206280E-2,-2.530369600E-1,3.590640646E-1,4.468417713E-1
9.687698625E0,-2.495891310E-1,-6.044302269E-1,1.001323986E-1,6.615565968E-1
9.697697625E0,-3.996089503E-2,9.585541617E-3,6.438252211E-2,7.637974138E-2
9.707695625E0,3.337561458E-2,3.999813449E-2,1.182798171E-1,1.292435590E-1
9.717693625E0,1.644391993E-1,1.106337604E-1,3.576724273E-1,4.089127590E-1
9.727692625E0,1.984949912E-1,3.149341414E-2,1.897561812E-1,2.764046038E-1
9.737690625E0,3.656838436E-1,5.435114857E-2,-7.605216122E-1,8.456192071E-1
9.747689625E0,1.144400968E-1,4.144390241E-1,-1.219068450E0,1.292665512E0
9.757687625E0,1.326967120E-2,6.195503226E-2,-1.766559039E0,1.767694925E0
9.767686625E0,2.726806627E-1,-2.326319315E-1,-1.840578942E0,1.875154180E0
9.777684625E0,2.501389155E-1,1.820821310E-1,-1.951109444E0,1.975487647E0
9.787682625E0,3.827515738E-1,-1.275642454E-1,-2.089404865E0,2.128000022E0
9.797681625E0,4.221527441E-1,-3.039036614E-1,-2.411977041E0,2.467428545E0
9.807679625E0,6.779115647E-1,-8.353606369E-2,-3.968300611E0,4.026655200E0
9.817678625E0,6.989220724E-1,-4.705027856E-1,-3.408150800E0,3.510748753E0
9.827676625E0,4.709614997E-1,-6.316279292E-1,-1.611762190E0,1.794027852E0
9.837674625E0,2.923824173E-1,-2.123702147E-1,-1.039058992E0,1.100105529E0
9.847673625E0,2.092643930E-1,-5.607689945E-2,-1.321579496E0,1.339219388E0
9.857671625E0,3.392740171E-1,8.641631076E-2,-2.237991970E0,2.265211402E0
9.867670625E0,3.092212290E-1,1.871323163E-1,-2.335878453E0,2.363676040E0
9.877668625E0,5.856682295E-1,-8.171577064E-2,-2.274622437E0,2.350232324E0
9.887667917E0,7.431511424E-1,-2.756689919E-2,-2.515941120E0,2.623545936E0
9.897665917E0,6.323000666E-1,6.574304494E-1,-2.277717369E0,2.453571801E0
9.907663917E0,5.249159512E-1,3.379659218E-1,-1.854330423E0,1.956603956E0
9.917662917E0,4.858568430E-1,4.758143232E-1,-1.571637427E0,1.712454480E0
9.927660917E0,5.486271416E-1,4.439726891E-1,-1.377016363E0,1.547345324E0
9.937659917E0,5.356700040E-1,3.633998481E-1,-9.764177710E-1,1.171491983E0
9.947657917E0,3.655056497E-1,2.228960251E-1,-2.779064655E-1,5.104008440E-1
9.957655917E0,2.000484502E-1,8.010575809E-2,2.197541517E-1,3.077794699E-1
9.967654917E0,-8.263431340E-2,-5.869599525E-2,4.717814255E-1,4.825467470E-1
9.977652917E0,-8.212429002E-2,-2.586364364E-1,4.622913945E-1,5.360508732E-1
9.987651917E0,-2.611790434E-2,-4.248253602E-1,3.660614276E-1,5.613908624E-1
9.997649917E0,-3.313144948E-1,-7.077220588E-1,1.741803682E-1,8.006113961E-1
1.000764792E1,-1.074900962E-1,-3.968431077E-1,3.185738504E-2,4.123753944E-1
1.001764692E1,7.800404951E-2,-1.703275830E-1,-4.165404403E-1,4.567297403E-1
1.002764492E1,-5.219648615E-2,-8.154565321E-2,-7.508386230E-1,7.570553511E-1
1.003764392E1,-3.951621428E-2,1.369986730E-1,-1.138369272E0,1.147264036E0
1.004764192E1,7.082206070E-2,-1.319694463E-1,-1.336483464E0,1.344849340E0
1.005764092E1,5.826194912E-2,7.798303608E-3,-1.435986117E0,1.437188713E0
1.006763892E1,2.405753557E-1,1.316957052E-1,-1.590650234E0,1.614121565E0
1.007763692E1,1.257394025E-1,6.307312952E-2,-1.553083627E0,1.559441365E0
1.008763592E1,8.926768720E-2,1.297259610E-3,-1.448565817E0,1.451314345E0
1.009763392E1,2.638105828E-1,-7.481687844E-2,-1.503179396E0,1.527986219E0
1.010763292E1,3.115579225E-1,-1.436794824E-1,-1.455522834E0,1.495412603E0
1.011763092E1,3.158358917E-1,-1.456136134E-1,-1.341769347E0,1.386109885E0
1.012762892E1,2.699389033E-1,-1.900299040E-1,-1.160524957E0,1.206563945E0
1.013762792E1,1.510306567E-1,-2.757384459E-1,-7.849232125E-1,8.455450309E-1
1.014762592E1,1.785814212E-1,-2.216364983E-1,-4.646197557E-1,5.448720757E-1
1.015762492E1,2.119946042E-1,-8.111440279E-2,-3.552978730E-1,4.216133740E-1
1.016762292E1,8.106199712E-2,-2.522836011E-3,-1.815963918E-1,1.988835378E-1
1.017762192E1,3.394147888E-2,-1.285610860E-2,-6.210503161E-2,7.193287474E-2
1.018761992E1,6.355192512E-2,7.564442391E-2,3.634219944E-2,1.052695660E-1
1.019761792E1,-5.094401255E-2,9.616219399E-2,1.219091839E-1,1.634145314E-1
1.020761692E1,-7.372374147E-2,1.520261452E-1,1.401267689E-1,2.195054675E-1
1.021761492E1,-4.157472655E-2,2.292291992E-1,8.936884403E-2,2.495220911E-1
1.022761392E1,-7.145619124E-2,2.478780165E-1,7.570974827E-3,2.580829672E-1
1.023761192E1,-2.834759384E-2,2.284580428E-1,-4.927156270E-2,2.354237675E-1
1.024760992E1,3.111332685E-2,1.753125353E-1,-1.155322105E-1,2.122503611E-1
1.025760892E1,4.710019916E-2,1.170423635E-1,-1.510522914E-1,1.968099041E-1
1.026760692E1,1.140158813E-1,9.037370631E-2,-1.983451563E-1,2.459833917E-1
1.027760592E1,1.439097713E-1,2.396194456E-2,-2.465572035E-1,2.864867391E-1
1.028760392E1,1.175898457E-1,-3.078467678E-2,-2.463502121E-1,2.747061978E-1
1.029760292E1,1.211996242E-1,-4.181064343E-2,-2.786016995E-1,3.066861356E-1
1.030760092E1,7.361162111E-2,-3.306289818E-2,-2.853838849E-1,2.965734104E-1
1.031759892E1,1.915094689E-2,-5.145056415E-3,-2.888659018E-1,2.895457470E-1
1.032759792E1,4.455505237E-2,-1.412720192E-2,-3.281001341E-1,3.314127767E-1
1.033759592E1,4.733847320E-2,-2.326336674E-2,-3.719144905E-1,3.756361318E-1
1.034759492E1,1.652642414E-2,-6.673772575E-2,-4.213316488E-1,4.269044449E-1
1.035759292E1,4.905872405E-2,-8.010429628E-2,-5.012432063E-1,5.099688309E-1
1.036759092E1,7.530058935E-2,-9.256336067E-2,-5.704262924E-1,5.827729486E-1
1.037758992E1,8.773103893E-2,-1.140211986E-1,-5.871025515E-1,6.044724765E-1
1.038758792E1,1.541966316E-1,-1.067067155E-1,-6.281991220E-1,6.555890948E-1
1.039758692E1,1.479123366E-1,-1.370781769E-1,-6.395900828E-1,6.706295250E-1
1.040758492E1,1.502873294E-1,-1.557587335E-1,-6.476896459E-1,6.828974607E-1
1.041758392E1,2.155250068E-1,-1.491029028E-1,-7.219007528E-1,7.679996101E-1
1.042758192E1,2.247295475E-1,-1.819306881E-1,-7.775323319E-1,8.295532967E-1
1.043757992E1,2.297502592E-1,-2.024901196E-1,-8.200263870E-1,8.753460490E-1
1.044757892E1,2.605275173E-1,-1.566480768E-1,-8.487116575E-1,9.015124430E-1
1.045757692E1,2.309354898E-1,-1.216615725E-1,-7.977882564E-1,8.394038603E-1
1.046757592E1,1.857074229E-1,-7.195225440E-2,-7.325251436E-1,7.591162361E-1
1.047757392E1,1.990805899E-1,2.013852334E-2,-6.737325597E-1,7.028187557E-1
1.048757192E1,2.007159099E-1,9.527520793E-2,-6.251860517E-1,6.634921559E-1
1.049757092E1,1.899191724E-1,1.225845555E-1,-6.352263057E-1,6.742467833E-1
1.050756892E1,2.335146967E-1,1.131835118E-1,-7.345669913E-1,7.790560222E-1
1.051756792E1,2.778098403E-1,9.024939816E-2,-7.889975524E-1,8.413325139E-1
1.052756592E1,2.542677806E-1,5.485188950E-2,-8.261747342E-1,8.661556012E-1
1.053756492E1,2.557303154E-1,3.225665851E-2,-8.660328645E-1,9.035770075E-1
1.054756292E1,2.478083615E-1,2.863695793E-2,-9.484376746E-1,9.806952034E-1
1.055756092E1,1.711133574E-1,-4.561266750E-3,-1.010264379E0,1.024663214E0
1.056755992E1,1.613401750E-1,-2.199857745E-2,-1.084363219E0,1.096520944E0
1.057755792E1,1.358590324E-1,-4.911240879E-3,-1.052801703E0,1.061542850E0
1.058755692E1,1.012987719E-1,2.662396258E-2,-9.640228432E-1,9.696959930E-1
1.059755492E1,1.327772574E-1,6.988599457E-2,-9.311228997E-1,9.431350415E-1
1.060755292E1,1.423257606E-1,8.883687532E-2,-8.946105462E-1,9.102069226E-1
1.061755192E1,1.573305930E-1,9.238269998E-2,-1.030919083E0,1.046939175E0
1.062754992E1,1.880064020E-1,9.103500813E-2,-1.112745019E0,1.132181636E0
1.063754892E1,2.482811089E-1,7.844105579E-2,-1.167654467E0,1.196333341E0
1.064754692E1,2.454417010E-1,4.741607672E-2,-1.116023553E0,1.143677614E0
1.065754592E1,5.418015406E-2,3.462849017E-2,-4.876612937E-1,4.918822612E-1
1.066754392E1,9.518302292E-2,1.533834301E0,1.845642046E0,2.401687330E0
1.067754192E1,-7.508172807E-1,-1.337063069E0,-4.880121267E-1,1.609229653E0
1.068754092E1,-2.554499415E-1,-1.207388344E0,-1.057681789E0,1.625340596E0
1.069753892E1,-1.892175065E-1,2.822588040E-2,-1.186143948E0,1.201473025E0
1.070753792E1,1.436174397E0,4.816574458E-1,3.664485133E-1,1.558484940E0
1.071753592E1,6.855578224E-1,-3.320819418E-1,-1.659263801E0,1.825766772E0
1.072753392E1,5.882819349E-1,-1.053791052E-1,-6.732986963E-1,9.002841358E-1
1.073753292E1,3.224394447E-1,-1.364134946E-1,-2.196997726E-1,4.133325865E-1
1.074753092E1,1.136466296E-1,-3.913282697E-1,-4.012733603E-1,5.719035589E-1
1.075752992E1,6.645229027E-2,1.400833168E-1,1.693189931E-1,2.295825864E-1
1.076752792E1,-7.000831832E-1,-3.282667067E-1,-9.116393924E-3,7.732778303E-1
1.077752692E1,-6.245545524E-1,-1.478965857E-1,4.630719978E-1,7.914401204E-1
1.078752492E1,-4.251124585E-1,1.287139542E-1,2.591854352E-1,5.142615814E-1
1.079752292E1,-2.911739440E-1,1.563254384E-1,2.055027330E-1,3.891674211E-1
1.080752192E1,-7.728528053E-2,2.311988155E-1,3.963143367E-1,4.652858910E-1
1.081751992E1,7.400279984E-2,6.016925605E-2,2.409889001E-1,2.591763950E-1
1.082751892E1,1.069216007E-1,1.124838742E-1,2.731848389E-1,3.141891259E-1
1.083751692E1,-3.627334848E-2,1.648226122E-1,-4.421237630E-1,4.732395493E-1
1.084751492E1,1.975788787E-2,1.567830744E-1,-6.470207244E-1,6.660383805E-1
1.085751392E1,7.552877694E-2,3.703776960E-1,8.023315430E-2,3.864215223E-1
1.086751192E1,3.618958712E-1,-2.000345083E-1,-3.937316215E-1,5.709702408E-1
1.087751092E1,1.956023736E-1,-2.416626820E-1,-6.946843028E-2,3.185702486E-1
1.088750879E1,2.630953221E-1,-6.567607239E-2,-1.178383523E-1,2.956659809E-1
1.089750779E1,4.225445075E-1,-3.486729411E-2,-1.216980994E-1,4.411009141E-1
1.090750579E1,1.092357825E-1,-1.528550611E-1,1.970950216E-1,2.722931755E-1
1.091750379E1,4.084645584E-2,-1.925588248E-1,2.795565498E-1,3.419052478E-1
1.092750279E1,-1.372831218E-1,-3.605636196E-2,4.795009196E-1,5.000678440E-1
1.093750079E1,5.329590887E-2,1.256220013E-1,1.651727325E-1,2.142507239E-1
1.094749979E1,-2.004907921E-1,2.292369650E-1,2.670084250E-1,4.050180772E-1
1.095749779E1,-2.104667267E-1,1.297328498E-1,2.230028647E-1,3.329521483E-1
1.096749579E1,-3.643169108E-1,5.610894950E-2,3.693083864E-1,5.217889516E-1
1.097749479E1,-3.972776654E-1,2.343173549E-1,4.271560603E-1,6.286465351E-1
1.098749279E1,-1.839643680E-1,2.171950264E-1,3.891333711E-1,4.821217156E-1
1.099749179E1,-2.680806582E-1,1.146120415E-1,8.464897156E-2,3.035928321E-1
1.100748979E1,1.006666879E-1,-1.416913194E-1,-4.353918636E-1,4.688030364E-1
1.101748879E1,1.636289214E-1,2.148084671E-1,-1.743534458E-1,3.214284142E-1
1.102748679E1,2.697953542E-1,-9.002811760E-2,-7.484821951E-1,8.006998136E-1
1.103748479E1,2.271807003E-1,-1.310727575E-1,-4.328097332E-1,5.060784558E-1
1.104748379E1,1.336113627E-1,-2.097551388E-1,-1.602072769E-1,2.958303333E-1
1.105748179E1,2.691897288E-2,-2.489241747E-1,-5.808039308E-3,2.504428262E-1
1.106748079E1,1.999201038E-1,-6.623402467E-2,6.737980485E-2,2.211222107E-1
1.107747879E1,2.642558482E-1,-4.889567809E-2,-2.556291586E-1,3.709018838E-1
1.108747679E1,2.853067017E-1,-9.216790617E-2,-3.809034151E-1,4.847496762E-1
1.109747579E1,2.467440221E-1,-8.040756578E-2,-2.626469868E-1,3.692308611E-1
1.110747379E1,1.294459525E-1,-3.147371633E-2,1.332644767E-1,1.884310754E-1
1.111747279E1,-2.324160048E-1,-2.462973313E-2,7.048227900E-1,7.425624475E-1
1.112747079E1,-4.765583083E-2,-2.275351147E-1,1.384293222E-1,2.705660435E-1
1.113746879E1,5.896770805E-3,-6.797041018E-3,2.768264848E-1,2.769726961E-1
1.114746779E1,-8.234151408E-2,-7.729167592E-2,-3.354588550E-1,3.539587144E-1
1.115746579E1,2.995513961E-2,-1.160995731E-2,-4.553741384E-1,4.565059774E-1
1.116746479E1,-5.489731506E-2,1.232047441E-1,-5.184316814E-1,5.356907060E-1
1.117746279E1,-2.495553634E-1,2.296176005E-2,-3.588705218E-1,4.377135744E-1
1.118746179E1,-1.593651317E-1,1.228183711E-1,-2.043923467E-1,2.868062567E-1
1.119745979E1,-1.363968301E-1,9.100599132E-2,-4.198417783E-2,1.692597321E-1
1.120745779E1,6.611095905E-2,4.597557859E-2,-1.840177238E-2,8.260168255E-2
1.121745679E1,-2.255140977E-1,1.329234926E-1,9.408099818E-1,9.765493766E-1
1.122745479E1,1.315493421E-1,-5.122774869E-2,2.044169050E-1,2.484266144E-1
1.123745379E1,1.736593813E-1,-1.080051629E-1,6.648044461E-1,6.955484508E-1
1.124745179E1,7.262760781E-1,-1.777592662E-1,8.285972357E-2,7.522905237E-1
1.125744979E1,4.609741630E-1,5.856004748E-3,2.675872993E-1,5.330426198E-1
1.126744879E1,-3.693573569E-1,3.811334299E-1,1.551515404E0,1.639782790E0
1.127744679E1,-3.706988543E-2,2.873659814E-2,1.300239497E-1,1.382251641E-1
1.128744579E1,-1.633697435E-2,-2.015537794E-1,3.997332036E-2,2.061278464E-1
1.129744379E1,-6.363823003E-1,2.858150257E-1,1.095229685E0,1.298537918E0
1.130744279E1,-3.628777649E-1,4.112199857E-1,4.409139740E-1,7.036954465E-1
1.131744079E1,-3.034215219E-1,2.780960980E-1,3.860495496E-1,5.643016166E-1
1.132743879E1,-4.111190481E-1,-9.599649852E-2,4.229215068E-1,5.975757696E-1
1.133743779E1,-2.880920228E-1,-1.498918384E-1,3.801695895E-1,4.999934936E-1
1.134743579E1,-2.574588986E-1,1.136432857E-1,7.801413596E-1,8.293493967E-1
1.135743479E1,-9.404076934E-3,-3.068542030E-2,5.663981456E-1,5.673066992E-1
1.136743279E1,3.196997318E-1,-2.742248027E-1,4.089045614E-1,5.870350086E-1
1.137743079E1,1.648749630E-1,-1.685685395E-1,7.018974280E-1,7.404452076E-1
1.138742979E1,-1.692862487E-1,-4.460784176E-2,1.077338374E0,1.091469499E0
1.139742779E1,-7.540379271E-2,2.284832407E-2,1.152888494E0,1.155577629E0
1.140742679E1,1.967703550E-1,6.276182011E-3,7.766400468E-1,8.012039225E-1
1.141742479E1,1.332100976E-1,9.015920486E-2,8.237107176E-1,8.392693004E-1
1.142742379E1,-4.478133962E-2,5.857163228E-2,7.673213392E-1,7.708553964E-1
1.143742179E1,-1.899533786E-1,-9.683743777E-2,7.313340658E-1,7.617803431E-1
1.144741979E1,-2.516499822E-1,-8.036177477E-2,7.931859130E-1,8.360201080E-1
1.145741879E1,-8.218860939E-2,6.306260454E-2,4.811141664E-1,4.921409358E-1
1.146741679E1,-2.747422448E-1,-4.441513946E-2,5.728616577E-1,6.368881256E-1
1.147741579E1,-4.652930626E-1,-1.536567509E-1,7.506526816E-1,8.964304098E-1
1.148741379E1,-2.600861987E-1,-5.240285631E-2,7.425993115E-1,7.885712571E-1
1.149741179E1,-1.683094713E-1,1.430896262E-1,5.305880427E-1,5.747402808E-1
1.150741079E1,-7.664720312E-2,1.439885625E-1,5.195286191E-1,5.445341917E-1
1.151740879E1,-1.145006154E-1,-2.846424580E-3,5.563128680E-1,5.679810738E-1
1.152740779E1,-9.417467058E-2,-1.821058670E-2,5.929421657E-1,6.006504024E-1
1.153740579E1,5.932497293E-2,8.647798061E-2,2.917965263E-1,3.100695185E-1
1.154740479E1,1.881136984E-1,5.500885069E-2,1.323289222E-1,2.364818826E-1
1.155740279E1,1.300278966E-1,-5.710288480E-2,1.222132391E-1,1.873607994E-1
1.156740079E1,6.340179786E-2,-9.378656164E-2,5.279684901E-2,1.249128271E-1
1.157739979E1,1.490405568E-1,7.336976565E-4,-2.062733960E-1,2.544844589E-1
1.158739779E1,1.451964511E-1,9.400674585E-2,-2.619190085E-1,3.138803031E-1
1.159739679E1,-1.265454412E-2,6.486199379E-2,-1.917898428E-1,2.028560069E-1
1.160739479E1,-9.077802300E-3,4.312897129E-2,-2.115259498E-1,2.160688365E-1
1.161739279E1,3.756090537E-2,5.729352230E-2,-2.856429166E-1,2.937435022E-1
1.162739179E1,9.356027439E-2,6.496406425E-2,-2.441083896E-1,2.693747584E-1
1.163738979E1,6.067407176E-2,-1.984727718E-2,-1.596044290E-1,1.718977346E-1
1.164738879E1,-7.864797413E-3,-8.739504330E-2,-9.687082171E-2,1.307046469E-1
1.165738679E1,6.147879481E-2,-7.429331509E-2,-1.796597940E-1,2.039038510E-1
1.166738579E1,1.268898422E-1,-4.123584386E-2,-2.373051542E-1,2.722410018E-1
1.167738379E1,1.258674565E-1,-2.526881553E-2,-2.289319414E-1,2.624708811E-1
1.168738179E1,-2.388265997E-2,-7.478515729E-3,2.166919649E-2,3.310383242E-2
1.169738079E1,-6.435451394E-1,8.062555728E-2,8.061591303E-1,1.034670658E0
1.170737879E1,4.901922610E-1,-2.475464976E-1,-8.704843497E-1,1.029228218E0
1.171737779E1,3.419966269E-1,-8.269654971E-2,-5.031248403E-1,6.139503376E-1
1.172737579E1,4.231609502E-1,7.221972797E-2,-5.162629491E-1,6.714226028E-1
1.173737379E1,2.904914278E-1,6.513008863E-2,-5.371924728E-1,6.141685037E-1
1.174737279E1,-1.670811175E-1,4.139534128E-1,2.324905568E-1,5.033144016E-1
1.175737079E1,1.268265460E-1,-4.046328049E-2,-7.133375055E-1,7.256532550E-1
1.176736979E1,2.459982097E-2,-2.591809401E-1,-5.460246921E-1,6.049155935E-1
1.177736779E1,-4.789110817E-1,-1.433977197E-1,3.924171674E-1,6.355391125E-1
1.178736579E1,-1.708223122E-1,-6.222453408E-2,-1.888475239E-2,1.827807125E-1
1.179736479E1,1.873621850E-1,-6.538415015E-2,-3.936924452E-1,4.408780067E-1
1.180736279E1,8.059933618E-2,8.006833591E-2,2.460911804E-1,2.710499225E-1
1.181736179E1,2.446988122E-1,8.623619825E-3,-2.439154315E-1,3.456104935E-1
1.182735979E1,8.995195761E-2,-2.827156177E-2,-8.050037205E-2,1.239796184E-1
1.183735879E1,-2.383238854E-1,2.058371572E-2,1.536162955E-1,2.842884625E-1
1.184735679E1,6.187392041E-2,4.933354318E-2,-6.428370416E-2,1.019537892E-1
1.185735479E1,3.074261338E-2,2.620776873E-2,-1.874944782E-1,1.917971188E-1
1.186735379E1,-1.169136152E-2,8.450618986E-2,-3.942543626E-2,9.398057822E-2
1.187735179E1,7.583838701E-2,1.537743713E-1,-1.814572281E-1,2.496492416E-1
1.188735075E1,4.307190612E-2,9.372288181E-2,-1.453296214E-1,1.782129808E-1
1.189734875E1,-8.154629275E-2,-2.405356312E-2,3.145275772E-2,9.065124229E-2
1.190734775E1,7.363676414E-2,7.368588075E-3,-4.857457459E-2,8.852207871E-2
1.191734575E1,1.169716488E-1,1.504307689E-2,9.791747332E-3,1.183407753E-1
1.192734375E1,1.582585461E-1,-2.590287298E-2,8.331463695E-2,1.807153978E-1
1.193734275E1,5.932190314E-2,-5.577160170E-2,2.695700902E-1,2.815982835E-1
1.194734075E1,-6.349491477E-3,-4.879516080E-2,3.245643228E-1,3.282731841E-1
1.195733975E1,9.752220154E-2,-5.745382737E-3,2.406661338E-1,2.597379009E-1
1.196733775E1,-4.866959184E-2,6.852750365E-2,3.547622681E-1,3.645833441E-1
1.197733575E1,-2.288695224E-1,5.322376885E-2,6.458442646E-1,6.872618438E-1
1.198733475E1,-9.349002010E-1,-5.371058609E-2,1.365510212E0,1.655760052E0
1.199733275E1,5.407964042E-1,-3.545746090E-1,-6.900258261E-1,9.456846963E-1
1.200733175E1,3.727613135E-1,-2.004195292E-1,-5.918621850E-1,7.276124178E-1
1.201732975E1,3.531938986E-1,8.031739075E-2,-3.303355247E-1,4.902227781E-1
1.202732775E1,2.243595649E-1,2.813850838E-1,-3.459955376E-1,4.992270944E-1
1.203732675E1,-4.191157003E-1,2.695359571E-1,6.650564611E-1,8.310280975E-1
1.204732475E1,-5.998851496E-1,7.754557298E-2,4.601612538E-1,7.600157157E-1
1.205732375E1,-1.651160145E-1,-2.467966653E-1,-2.038906556E-1,3.601989613E-1
1.206732175E1,-1.372266962E-1,-8.613970092E-2,6.520581007E-1,6.718861369E-1
1.207732075E1,-1.778424793E-1,5.887954300E-2,2.142185926E-1,2.845775000E-1
1.208731875E1,3.993478721E-1,2.099735689E-1,3.304360968E-1,5.592455960E-1
1.209731675E1,-2.645397305E-2,-5.187439593E-2,5.692925173E-1,5.722628207E-1
1.210731575E1,1.007853864E-1,-1.728294969E-1,5.296337771E-1,5.661622268E-1
1.211731375E1,1.715302639E-1,-1.293195795E-1,3.732675362E-1,4.306678983E-1
1.212731275E1,1.106155792E-1,-5.903367195E-3,3.407336283E-1,3.582876799E-1
1.213731075E1,-4.593821123E-2,1.215127975E-1,3.403488815E-1,3.642980103E-1
1.214730875E1,-1.714228213E-2,9.339282475E-2,1.540852422E-1,1.809926501E-1
1.215730775E1,-3.110838595E-1,-4.856843501E-4,3.713280147E-1,4.844150060E-1
1.216730575E1,-1.638594478E-1,4.437612757E-2,2.683556235E-1,3.175435403E-1
1.217730475E1,-1.006324817E-1,8.118531855E-2,2.747945774E-1,3.036939447E-1
1.218730275E1,-9.451410145E-2,2.442321679E-2,3.505154353E-1,3.638550251E-1
1.219730175E1,-2.387856692E-2,-6.490493428E-2,3.447769779E-1,3.516447084E-1
1.220729975E1,1.455357358E-2,-9.367078677E-2,3.323896515E-1,3.456427393E-1
1.221729775E1,6.030277357E-2,-7.574417375E-2,2.991429681E-1,3.144202915E-1
1.222729675E1,6.393974170E-2,1.508947089E-4,2.700203258E-1,2.774874586E-1
1.223729475E1,1.021698609E-2,4.296141202E-2,2.196711212E-1,2.240657743E-1
1.224729375E1,-7.004394248E-2,6.848975256E-2,1.824623644E-1,2.070978380E-1
1.225729175E1,-8.331215188E-2,1.479762905E-1,5.997138262E-2,1.800957077E-1
1.226728975E1,-9.572301328E-2,1.700354780E-1,1.584946275E-2,1.957706937E-1
1.227728875E1,-6.483831257E-2,1.039479078E-1,-5.030768931E-2,1.324388082E-1
1.228728675E1,-7.578853950E-2,-4.301577285E-3,-2.948400021E-2,8.143532744E-2
1.229728575E1,-1.760801286E-2,-6.926860169E-2,-2.444720864E-2,7.553705916E-2
1.230728375E1,8.230058357E-2,-1.203681684E-1,-1.573895037E-2,1.466615034E-1
1.231728275E1,1.198207046E-1,-1.742419101E-1,2.951089740E-3,2.114851140E-1
1.232728075E1,1.387900954E-1,-2.102551671E-1,5.215891778E-2,2.572751030E-1
1.233727875E1,1.796054149E-1,-1.414065965E-1,-7.841116190E-3,2.287256297E-1
1.234727775E1,1.913280590E-1,-2.192249056E-2,-8.865665317E-2,2.120071317E-1
1.235727575E1,8.272903830E-2,3.487113135E-2,-1.035068268E-1,1.370173448E-1
1.236727475E1,2.326899469E-2,7.392503187E-2,-2.281010520E-1,2.409075474E-1
1.237727275E1,-2.819001138E-2,8.926754102E-2,-3.545418280E-1,3.666923485E-1
1.238727075E1,-4.686835706E-2,1.355367960E-1,-4.347662115E-1,4.578083929E-1
1.239726975E1,-1.529573143E-2,1.170875333E-1,-4.992569071E-1,5.130310996E-1
1.240726775E1,-1.908238828E-2,4.700434137E-2,-4.784647930E-1,4.811466551E-1
1.241726675E1,1.374314949E-2,-8.546546213E-3,-4.509834641E-1,4.512737556E-1
1.242726475E1,5.333961681E-2,-1.926244598E-2,-3.853554851E-1,3.895061058E-1
1.243726275E1,1.248496024E-1,-3.433368087E-2,-3.100877863E-1,3.360366946E-1
1.244726175E1,1.853529355E-1,-5.537389968E-2,-2.140577942E-1,2.885181428E-1
1.245725975E1,1.972819863E-1,-6.734830298E-2,-1.204362702E-1,2.407506412E-1
1.246725875E1,2.274220441E-1,-8.679352926E-2,-1.166098523E-1,2.699106529E-1
1.247725675E1,2.135328604E-1,-3.762319649E-2,-7.278672516E-2,2.287131276E-1
1.248725575E1,5.087691575E-2,-2.071578970E-2,8.170314431E-2,9.845307659E-2
1.249725375E1,-1.055553988E-2,2.196177654E-4,5.654959202E-2,5.752672432E-2
1.250725175E1,5.006546840E-2,1.481382949E-2,-1.190972579E-1,1.300390614E-1
1.251725075E1,-1.128857607E-1,4.525708370E-2,-2.456883073E-2,1.240766941E-1
1.252724875E1,-1.317208117E-1,5.773564490E-2,5.507492423E-3,1.439239709E-1
1.253724775E1,-9.410280830E-1,3.713374434E-1,1.087530656E0,1.485310835E0
1.254724575E1,-6.015805498E-1,-1.378958661E0,-1.468322974E0,2.102236548E0
1.255724375E1,-3.357975550E-1,1.549922038E0,1.251640014E1,1.261646903E1
1.256724275E1,-1.206811224E0,5.442623413E-1,-3.989396780E0,4.203320294E0
1.257724075E1,1.417566511E0,-2.289275852E0,2.942067486E0,3.988237685E0
1.258723975E1,5.556335677E-1,-1.135310466E-1,-1.706282431E0,1.798059425E0
1.259723775E1,-6.152792604E-1,9.916496947E-1,4.914327478E-1,1.266271626E0
1.260723675E1,-2.240736361E-1,5.200869002E-2,-1.966687596E-1,3.026425271E-1
1.261723475E1,1.329684614E-1,6.727753705E-1,-2.941219640E-1,7.462004024E-1
1.262723275E1,6.795473233E-2,1.570819036E-1,-8.156795669E-1,8.334420951E-1
1.263723175E1,-3.005308047E-2,-2.483950930E-1,-2.020686632E-1,3.216132064E-1
1.264722975E1,-3.514736478E-1,-1.387296042E-1,3.858074749E-1,5.400250326E-1
1.265722875E1,-4.782408446E-2,2.379476170E-1,3.355021244E-1,4.140868109E-1
1.266722675E1,2.564486459E-1,1.042363035E-2,2.968444276E-1,3.924170922E-1
1.267722475E1,3.814941300E-1,-3.962320006E-2,-8.753515720E-2,3.934084048E-1
1.268722375E1,3.456328641E-1,-3.247023902E-1,-2.827807045E-1,5.521400599E-1
1.269722175E1,1.815072218E-1,-3.298776146E-1,-1.684074122E-1,4.124623239E-1
1.270722075E1,-2.253663093E-3,1.264541150E-1,-5.179872930E-2,1.366705182E-1
1.271721875E1,-3.600218385E-1,1.485704590E-1,1.645470804E-1,4.228056849E-1
1.272721775E1,-4.930730380E-1,2.370038033E-1,3.368931770E-2,5.481120266E-1
1.273721575E1,-3.437969846E-1,1.186861803E-1,2.764446616E-2,3.647560726E-1
1.274721375E1,-7.714772478E-2,4.709462604E-2,-7.814803720E-2,1.194855261E-1
1.275721275E1,7.958440572E-2,5.088125548E-2,-1.887013435E-1,2.110231666E-1
1.276721075E1,7.400733143E-2,-2.640370527E-2,-9.390745282E-2,1.224452958E-1
1.277720975E1,1.538202171E-1,-1.640967352E-1,1.075811666E-1,2.493232943E-1
1.278720775E1,3.160841060E-1,-1.781686992E-1,1.494793904E-1,3.924249426E-1
1.279720575E1,4.175205798E-1,-1.378804880E-1,-3.315955997E-3,4.397106539E-1
1.280720475E1,4.612190151E-1,-1.735317841E-1,-1.097727031E-1,5.048626609E-1
1.281720275E1,3.656724416E-1,-6.458607830E-2,4.414706290E-2,3.739474016E-1
1.282720175E1,2.221270980E-1,1.343522963E-2,2.589439452E-2,2.240345347E-1
1.283719975E1,7.955370784E-2,6.809584209E-2,-9.117504895E-2,1.388478509E-1
1.284719875E1,-1.562269311E-1,1.078986522E-1,-6.855567992E-2,2.018634548E-1
1.285719675E1,-3.408406323E-1,7.349296832E-2,5.669401824E-2,3.532531171E-1
1.286719475E1,-2.897311436E-1,2.348675779E-2,1.068245369E-1,3.096889488E-1
1.287719375E1,-2.107447618E-1,1.792544357E-2,9.659892619E-2,2.325210285E-1
1.288719142E1,-4.749298587E-2,-3.008792622E-2,2.217264175E-2,6.043585901E-2
1.289719042E1,-1.954358742E-2,-6.036761370E-2,5.683727503E-2,8.518612813E-2
1.290718842E1,2.878540412E-2,-5.307630938E-2,2.710821801E-1,2.777251204E-1
1.291718642E1,1.115543497E-1,2.097570757E-2,5.456954938E-1,5.573759281E-1
1.292718542E1,2.997414306E-2,6.695455696E-2,6.959741986E-1,6.998295843E-1
1.293718342E1,-3.592358266E-1,1.948686029E-1,1.548269030E0,1.601299828E0
1.294718242E1,-7.938849476E-1,8.895551898E-3,2.313830942E0,2.446251432E0
1.295718042E1,2.465199275E-1,-1.686441879E-1,6.187582076E-1,6.870768925E-1
1.296717942E1,3.653023128E-1,7.464836899E-2,9.282805681E-1,1.000361421E0
1.297717742E1,-2.229281665E-1,1.033457542E-1,1.190327631E0,1.215424691E0
1.298717542E1,-3.930318560E-1,3.490996417E-1,1.578228409E0,1.663475130E0
1.299717442E1,-1.436514705E-2,-4.311956093E-3,8.818349648E-1,8.819625023E-1
1.300717242E1,-1.929867679E-1,-1.020268965E-1,9.696309078E-1,9.939001346E-1
1.301717142E1,-5.352400875E-1,1.460422143E-1,1.502836164E0,1.601975910E0
1.302716942E1,-5.223702197E-1,-1.428139117E-1,1.255582557E0,1.367389490E0
1.303716742E1,-2.449005412E-1,-9.367513563E-2,1.463865641E0,1.487163045E0
1.304716642E1,-3.933511139E-1,7.474106563E-2,1.380048144E0,1.436956577E0
1.305716442E1,-4.044182852E-1,3.030531473E-2,1.557413490E0,1.609350596E0
1.306716342E1,-2.655618238E-1,1.933520727E-2,1.423172529E0,1.447866354E0
1.307716142E1,-2.705408742E-1,1.351526157E-1,1.454605991E0,1.485711002E0
1.308716042E1,-4.343188995E-1,1.205753974E-1,1.804377660E0,1.859825280E0
1.309715842E1,-2.512661125E-1,-8.910142528E-2,1.656103381E0,1.677424255E0
1.310715642E1,-4.087642282E-3,1.064843751E-2,1.622967210E0,1.623007290E0
1.311715542E1,-1.839667068E-1,5.133877270E-2,1.784877781E0,1.795067718E0
1.312715342E1,-1.559027030E-1,-1.247314156E-1,1.903242382E0,1.913686271E0
1.313715242E1,-9.316529498E-2,-7.526389807E-2,1.779166805E0,1.783193469E0
1.314715042E1,-2.775518319E-1,2.431701673E-2,1.772905607E0,1.794664489E0
1.315714842E1,-9.188680127E-2,-7.372889433E-2,1.339953201E0,1.345122194E0
1.316714742E1,-1.989548747E-1,5.077915762E-2,1.319104369E0,1.334989851E0
1.317714542E1,-4.646046992E-1,1.782713726E-2,1.434151261E0,1.507635623E0
1.318714442E1,-5.958287899E-1,5.718257139E-2,1.504463444E0,1.619163997E0
1.319714242E1,-7.046057121E-1,1.669725055E-1,1.771993441E0,1.914238695E0
1.320714042E1,-4.116219087E-1,3.358988215E-1,1.574753993E0,1.661959913E0
1.321713942E1,-3.284958445E-1,2.809247252E-2,1.641555508E0,1.674336643E0
1.322713742E1,-5.861764987E-1,-1.851673960E-1,2.392963650E0,2.470660819E0
1.323713642E1,-2.274227750E-1,3.600698953E-2,2.002770764E0,2.015963381E0
1.324713442E1,-2.209662795E-3,1.376955880E-1,2.012073099E0,2.016780383E0
1.325713342E1,2.648298986E-1,-1.144933064E-1,1.518021383E0,1.545196593E0
1.326713142E1,5.417252344E-1,-2.780005692E-2,1.211771709E0,1.327640670E0
1.327712942E1,-3.212460279E-1,-7.554511260E-3,1.495924171E0,1.530047452E0
1.328712842E1,-7.727246051E-1,2.990350869E-1,2.308087807E0,2.452303942E0
1.329712642E1,1.039225638E-2,5.805987300E-2,1.094346170E0,1.095934528E0
1.330712542E1,-6.985785484E-2,-9.415826183E-2,1.350574669E0,1.355654024E0
1.331712342E1,-7.527382372E-1,3.641998203E-1,1.680669873E0,1.877207390E0
1.332712142E1,5.522051990E-2,1.950070174E-1,6.443830454E-1,6.755046646E-1
1.333712042E1,-3.845889151E-2,-1.770049753E-1,7.622710991E-1,7.834966982E-1
1.334711842E1,-4.765331653E-1,-7.538109820E-2,1.027674463E0,1.135288937E0
1.335711742E1,-1.957222416E-1,9.427060146E-2,5.926258314E-1,6.311889718E-1
1.336711542E1,-2.609768759E-1,1.208170702E-1,6.892984325E-1,7.468855489E-1
1.337711442E1,-2.449098967E-1,4.331599083E-3,3.324411070E-1,4.129366899E-1
1.338711242E1,-2.529651672E-1,-1.117671518E-2,1.845767176E-1,3.133446337E-1
1.339711042E1,-1.104139964E-1,-2.195207747E-1,-1.986854643E-1,3.160008463E-1
1.340710942E1,1.283721113E-1,-1.697503166E-1,-4.345802701E-1,4.838952160E-1
1.341710742E1,2.056818040E-1,-5.264606394E-2,-6.631660563E-1,6.963230793E-1
1.342710642E1,1.183355118E-1,-4.423153689E-2,-8.024900025E-1,8.123730217E-1
1.343710442E1,3.846342310E-1,-5.342809249E-2,-4.875993133E-1,6.233387065E-1
1.344710242E1,1.945370109E-1,2.369083841E-1,-6.204305112E-2,3.127612049E-1
1.345710142E1,6.696816087E-3,-1.139959094E-1,-6.785389709E-1,6.880807001E-1
1.346709942E1,-1.750546731E-1,-5.608656563E-2,-1.099527973E-1,2.141949090E-1
1.347709842E1,4.694023396E-1,-2.585602582E-1,-6.922577083E-1,8.754499976E-1
1.348709642E1,2.435159205E-1,4.586594330E-2,-3.539927745E-1,4.321048168E-1
1.349709542E1,3.241539945E-1,2.360952922E-1,3.143515760E-1,5.095426503E-1
1.350709342E1,6.802786638E-1,1.706253159E-1,3.095802480E-1,7.666368037E-1
1.351709142E1,2.859580815E-2,-3.929054465E-1,-4.319455147E-1,5.846104154E-1
1.352709042E1,-3.060729419E-1,1.061930011E-1,5.221329689E-2,3.281521409E-1
1.353708842E1,-2.770049711E-1,5.712400056E-1,6.452700680E-1,9.052184039E-1
1.354708742E1,9.095519364E-2,-4.690181044E-1,-9.635965812E-1,1.075532055E0
1.355708542E1,-1.648963054E-1,-4.284143446E-1,-5.811348832E-1,7.405723426E-1
1.356708342E1,2.751885335E-1,7.345063996E-1,3.548593318E-1,8.609027386E-1
1.357708242E1,4.092559791E-1,8.656515894E-2,-7.261446619E-1,8.380155447E-1
1.358708042E1,-1.948379964E-2,4.068825211E-2,-6.153516197E-1,6.170030536E-1
1.359707942E1,-3.328145979E-1,-2.254568863E-1,-2.501181579E-1,4.734505857E-1
1.360707742E1,2.006546603E-1,9.620606638E-2,-2.198436141E-1,3.128084311E-1
1.361707642E1,-4.131920323E-2,-2.154959900E-1,-1.018386746E0,1.041756864E0
1.362707442E1,-5.513237312E-2,3.572123245E-1,-7.269217569E-1,8.118223106E-1
1.363707242E1,-2.354702979E-2,-8.697526803E-2,-9.560162508E-1,9.602532123E-1
1.364707142E1,3.373739643E-1,9.566465076E-2,-8.636629879E-1,9.321409089E-1
1.365706942E1,-8.374674618E-4,-1.444530142E-1,-1.422946826E0,1.430260481E0
1.366706842E1,5.366346484E-1,-1.515494509E-1,-3.547899839E0,3.591453361E0
1.367706642E1,8.606262365E-1,-1.988143954E-1,-2.402060164E0,2.559315868E0
1.368706442E1,7.926628795E-1,-2.751889172E-1,-2.501711921E0,2.638675031E0
1.369706342E1,3.992367750E-1,-2.344614888E-1,-1.187853089E0,1.274894958E0
1.370706142E1,-1.412541121E-3,-2.425692563E-1,-6.921191293E-1,7.333967061E-1
1.371706042E1,2.986848387E-1,-1.368632003E-1,-1.473146927E0,1.509339603E0
1.372705842E1,5.094759397E-1,1.824558594E-1,-1.916113858E0,1.991067099E0
1.373705742E1,1.572123331E-1,-2.547154946E-2,-2.095580109E0,2.101623304E0
1.374705542E1,6.395801425E-1,-3.795946620E-1,-2.162970439E0,2.287268237E0
1.375705342E1,4.081260046E-1,-1.622462924E-1,-1.989712177E0,2.037607725E0
1.376705242E1,1.389144950E-1,9.222712750E-2,-1.675133144E0,1.683411456E0
1.377705042E1,4.517126119E-1,-6.927295055E-2,-2.220937396E0,2.267466856E0
1.378704942E1,3.173671313E-1,1.714257449E-3,-2.381478549E0,2.402533021E0
1.379704742E1,3.586657231E-1,8.744874632E-2,-2.732142504E0,2.756971354E0
1.380704542E1,7.028049159E-1,-2.481424933E-2,-3.150989086E0,3.228510913E0
1.381704442E1,5.868645698E-1,-1.149789908E-1,-2.909197948E0,2.970027423E0
1.382704242E1,1.165772541E-1,-7.233464403E-2,-3.471772599E-1,3.733022994E-1
1.383704142E1,4.171370025E-1,7.681640692E-2,-7.833959198E-1,8.908497103E-1
1.384703942E1,4.215694843E-1,-9.013583427E-2,-1.056897678E0,1.141436814E0
1.385703742E1,3.343379438E-1,-1.257520471E-2,-8.269769722E-1,8.920935540E-1
1.386703642E1,1.082794704E-1,-9.934410257E-2,-6.780542368E-1,6.937948129E-1
1.387703442E1,2.954856808E-1,-9.678018987E-2,-8.746867436E-1,9.283076495E-1
1.388703425E1,8.465218753E-2,-5.643193508E-2,-9.730094290E-1,9.783138070E-1
1.389703225E1,1.275583251E-1,-4.886085061E-2,-1.199054600E0,1.206810028E0
1.390703125E1,3.764001819E-1,-9.118038453E-3,-1.642922003E0,1.685512665E0
1.391702925E1,1.534182210E-1,-2.512904881E-2,-1.735433140E0,1.742382508E0
1.392702725E1,1.776199928E-1,-1.320452591E-1,-1.801606665E0,1.815150513E0
1.393702625E1,2.695234586E-1,-1.287877753E-1,-2.005570410E0,2.027693729E0
1.394702425E1,2.097406487E-1,3.330910251E-2,-2.072767782E0,2.083618707E0
1.395702325E1,2.786361980E-1,-3.006386127E-2,-2.092087567E0,2.110775297E0
1.396702125E1,4.745894046E-1,-9.094852416E-2,-2.132778341E0,2.186835657E0
1.397702025E1,3.686577375E-1,-1.621354877E-1,-1.917624194E0,1.959458852E0
1.398701825E1,3.270018809E-1,-4.576681472E-2,-1.518195630E0,1.553686842E0
1.399701625E1,4.898678868E-1,9.337223159E-2,-1.531669954E0,1.610807800E0
1.400701525E1,3.666989203E-1,1.438774654E-1,-1.346327251E0,1.402770790E0
1.401701325E1,3.365512611E-1,6.866920726E-2,-1.044067717E0,1.099117650E0
1.402701225E1,3.512752810E-1,3.791590445E-2,-8.005516505E-1,8.750513608E-1
1.403701025E1,1.713432992E-1,1.326368329E-1,-5.249963504E-1,5.679544203E-1
1.404700825E1,1.271379103E-1,1.518055772E-1,-3.392227077E-1,3.927862357E-1
1.405700725E1,2.217287564E-1,1.109194151E-1,-2.435833097E-1,3.475623495E-1
1.406700525E1,2.375138998E-3,1.136698906E-1,-1.212478638E-2,1.143393884E-1
1.407700425E1,6.855027124E-2,8.182723319E-2,4.759224236E-2,1.168753922E-1
1.408700225E1,1.452932225E-1,7.420160517E-2,2.599087358E-3,1.631648062E-1
1.409700125E1,-7.762690410E-2,5.779159544E-2,9.250587523E-2,1.338773382E-1
1.410699925E1,4.908781394E-2,-6.402317416E-2,-3.269762993E-2,8.705007358E-2
1.411699725E1,5.399143517E-2,-1.259971002E-1,-1.575818771E-1,2.088597432E-1
1.412699625E1,-1.036594391E-1,-1.146927878E-1,-1.464078480E-1,2.129201091E-1
1.413699425E1,5.566242322E-2,-1.079640313E-1,-3.189317000E-1,3.412798949E-1
1.414699325E1,1.067273270E-1,-4.371502675E-2,-4.112492949E-1,4.271155680E-1
1.415699125E1,-7.057501584E-2,-1.287225057E-1,-3.883235317E-1,4.151451332E-1
1.416698925E1,5.280912817E-2,-1.291165350E-1,-4.529598230E-1,4.739540958E-1
1.417698825E1,3.083046779E-2,-5.781050753E-2,-3.976773226E-1,4.030382432E-1
1.418698625E1,-5.032888547E-2,-5.822149370E-2,-3.358968115E-1,3.446003584E-1
1.419698525E1,6.856079623E-2,-6.346805412E-2,-3.930182612E-1,4.039704572E-1
1.420698325E1,-9.909568727E-3,-1.011977430E-1,-3.657129335E-1,3.795854746E-1
1.421698225E1,-7.875790179E-2,-2.152117422E-1,-3.180148566E-1,3.919851401E-1
1.422698025E1,-6.694564909E-2,-3.028418436E-1,-2.969280428E-1,4.293729902E-1
1.423697825E1,-7.702712595E-2,-2.589101958E-1,-2.319631380E-1,3.560541602E-1
1.424697725E1,-1.153945085E-1,-8.452365842E-2,-1.257724392E-1,1.904700709E-1
1.425697525E1,1.648533283E-1,2.992162775E-2,-3.879563266E-1,4.225896769E-1
1.426697425E1,5.346387014E-2,7.204555403E-2,-3.970446539E-1,4.070545473E-1
1.427697225E1,5.382639751E-2,7.216905819E-2,-4.152517140E-1,4.248995646E-1
1.428697025E1,2.626181893E-1,4.895376652E-2,-5.945027876E-1,6.517655630E-1
1.429696925E1,1.781162752E-1,8.571533924E-2,-5.731937796E-1,6.063197472E-1
1.430696725E1,3.217404100E-1,6.978412511E-2,-6.108469248E-1,6.939169122E-1
1.431696625E1,4.850516814E-1,3.198322808E-2,-7.102291256E-1,8.606529332E-1
1.432696425E1,3.461412795E-1,3.066599658E-2,-6.818473256E-1,7.652907709E-1
1.433696325E1,3.653071368E-1,1.420040175E-2,-7.210692787E-1,8.084502831E-1
1.434696125E1,3.482348751E-1,1.915474758E-2,-7.275380534E-1,8.068122779E-1
1.435695925E1,2.317406514E-1,2.683142910E-2,-7.260932064E-1,7.626499849E-1
1.436695825E1,2.632575823E-1,-4.518180080E-3,-8.018772143E-1,8.439976513E-1
1.437695625E1,2.686364360E-1,-2.290365335E-2,-8.747013617E-1,9.153101027E-1
1.438695525E1,1.153398371E-1,-1.910742167E-2,-8.473416549E-1,8.553690734E-1
1.439695325E1,1.028263570E-1,8.404184785E-3,-8.687266767E-1,8.748313717E-1
1.440695125E1,1.103872454E-1,1.315057073E-2,-9.148319721E-1,9.215616196E-1
1.441695025E1,6.631751195E-2,5.773621134E-2,-9.028872800E-1,9.071587087E-1
1.442694825E1,3.786130607E-2,7.200221155E-2,-9.309615165E-1,9.345090380E-1
1.443694725E1,9.858010903E-2,9.023551103E-3,-9.433196068E-1,9.484995218E-1
1.444694525E1,1.558911547E-1,-1.537408412E-2,-9.327998811E-1,9.458615294E-1
1.445694425E1,9.444291160E-2,-7.737730108E-3,-8.466429126E-1,8.519293149E-1
1.446694225E1,1.224304631E-1,-1.521244515E-3,-8.638401586E-1,8.724742701E-1
1.447694025E1,2.216311079E-1,1.663620561E-2,-1.004061068E0,1.028365567E0
1.448693925E1,1.341807353E-1,-1.785101948E-2,-9.941973996E-1,1.003370120E0
1.449693725E1,2.087779047E-1,-8.561564421E-2,-8.902800983E-1,9.184317642E-1
1.450693625E1,1.047654399E-1,-7.311533868E-2,-9.734035313E-2,1.606138055E-1
1.451693425E1,6.771952808E-2,1.397742403E0,2.133668872E0,2.551629404E0
1.452693225E1,-7.295702532E-1,-1.872503424E0,-9.350311786E-1,2.216489371E0
1.453693125E1,-4.190377861E-2,-1.227352200E0,-8.289679492E-1,1.481667038E0
1.454692925E1,2.980546550E-1,1.027341355E-1,-4.987236410E-1,5.900136864E-1
1.455692825E1,1.130811746E0,4.946005866E-1,2.130386245E-1,1.252497665E0
1.456692625E1,8.276002854E-1,9.245445628E-1,4.998123926E-1,1.337728414E0
1.457692525E1,-1.179880410E-2,4.831022197E-1,-6.875764275E-1,8.404096085E-1
1.458692325E1,-1.669681200E-1,7.427566381E-2,-2.285296530E-1,2.926107134E-1
1.459692125E1,-3.232239948E-1,-6.341917140E-1,-1.012685126E-1,7.189771850E-1
1.460692025E1,-1.946327591E-1,-1.468031381E-1,9.870158494E-1,1.016677608E0
1.461691825E1,-3.227373603E-1,-2.593017948E-1,-5.833369446E-1,7.153172830E-1
1.462691725E1,-4.882682347E-1,5.366099074E-1,5.782276475E-1,9.277409521E-1
1.463691525E1,-1.075756118E-1,1.185526628E-2,-1.796100926E-1,2.096970314E-1
1.464691325E1,2.516948596E-2,-2.467980540E-1,1.570152819E-2,2.485745773E-1
1.465691225E1,1.329712388E-1,1.362178505E-1,2.176813138E-1,2.891743548E-1
1.466691025E1,9.687126026E-2,-2.452658094E-1,-5.300173545E-1,5.919947250E-1
1.467690925E1,-2.257878935E-1,-2.170630803E-1,-4.200528628E-1,5.239665650E-1
1.468690725E1,2.517226338E-1,3.204729529E-1,7.904441535E-2,4.151086816E-1
1.469690625E1,2.491491280E-1,-3.010960660E-1,-5.375397974E-1,6.645924787E-1
1.470690425E1,-9.461686626E-2,-3.141812393E-1,-1.941322374E-1,3.812473319E-1
1.471690225E1,2.065134242E-1,4.033131614E-1,4.221151757E-1,6.192661158E-1
1.472690125E1,2.239970376E-1,-2.172765037E-2,-3.133441007E-1,3.857865849E-1
1.473689925E1,-6.594489813E-3,1.584371055E-1,4.915438449E-1,5.164892595E-1
1.474689825E1,7.224161848E-2,-3.315999485E-1,-9.027165413E-2,3.511785142E-1
1.475689625E1,-5.125186846E-2,3.571760718E-2,3.004983526E-1,3.069230546E-1
1.476689425E1,6.027412221E-2,1.050204882E-1,1.092452842E-1,1.630852687E-1
1.477689325E1,3.355021244E-1,-1.271064084E-2,-2.228379732E-1,4.029640160E-1
1.478689125E1,6.795429379E-2,-1.097736715E-1,-2.669446903E-1,2.965257370E-1
1.479689025E1,-1.729723334E-1,-1.010857323E-1,-2.437002540E-1,3.154798998E-1
1.480688825E1,-2.777854282E-1,1.214383185E-1,-6.722836196E-2,3.105344779E-1
1.481688725E1,-2.617652267E-3,3.261960980E-1,-1.968991399E-1,3.810249568E-1
1.482688525E1,-3.810952038E-2,2.554865962E-2,-1.460078984E-1,1.530469731E-1
1.483688325E1,-2.017318636E-2,-1.332234731E-1,-5.776183677E-1,5.931259815E-1
1.484688225E1,3.118552534E-1,-1.180194698E-2,-6.833395350E-1,7.512295955E-1
1.485688025E1,8.753881171E-2,5.698732920E-2,-6.673397988E-1,6.754650297E-1
1.486687925E1,4.126758693E-1,-2.549093664E-2,-8.024917567E-1,9.027425882E-1
1.487687725E1,1.320954721E-1,-1.589147682E-1,-4.659213459E-1,5.096918853E-1
1.488687513E1,-1.764708687E-1,-1.768037763E-1,-2.373969555E-4,2.498031208E-1
1.489687413E1,-3.582150489E-3,-6.812294941E-2,-9.850921154E-2,1.198233400E-1
1.490687213E1,2.863013130E-1,8.944593592E-2,-4.792629379E-1,5.653865766E-1
1.491687113E1,2.750202799E-1,7.536896523E-3,-5.144748706E-1,5.834186761E-1
1.492686913E1,1.767215681E-1,-5.682437461E-2,-3.202309513E-1,3.701450856E-1
1.493686813E1,2.065251186E-2,3.416772958E-2,1.071011102E-1,1.143005153E-1
1.494686613E1,9.264065355E-2,8.126034563E-2,4.093694150E-2,1.298513290E-1
1.495686413E1,1.888234042E-1,-6.494052920E-2,-2.218404382E-1,2.984706524E-1
1.496686313E1,-2.271940027E-1,-9.260447390E-2,-1.973657477E-1,3.148744858E-1
1.497686113E1,4.824903086E-2,-7.038532851E-2,-6.834102863E-1,6.887174187E-1
1.498686013E1,1.000987771E-1,1.036048955E-1,-5.291420263E-1,5.484022461E-1
1.499685813E1,-1.665389344E-1,-8.117000615E-2,-2.762324077E-1,3.326080721E-1
1.500685713E1,1.475463009E-1,2.629057992E-2,-3.616222215E-1,3.914482553E-1
1.501685513E1,-6.656777278E-2,6.066685410E-2,9.445124388E-2,1.305096664E-1
1.502685313E1,-5.252482192E-1,5.266157002E-1,1.286205595E0,1.485777446E0
1.503685213E1,1.890833129E-1,-3.405637667E-1,3.997799814E-2,3.915793901E-1
1.504685013E1,4.838920324E-1,-4.093974817E-1,2.074749988E-1,6.669360330E-1
1.505684913E1,3.174871454E-1,7.535023587E-2,9.467250252E-1,1.001381056E0
1.506684713E1,2.044712842E-1,3.855387953E-1,1.129078047E0,1.210481683E0
1.507684513E1,2.729880801E-1,-1.610628342E-2,3.131318468E-1,4.157324352E-1
1.508684413E1,-9.390058234E-2,-1.944174719E-1,6.808597308E-1,7.142726691E-1
1.509684213E1,-8.018586494E-1,-6.877396379E-2,1.293786510E0,1.523676700E0
1.510684113E1,-7.417308538E-1,7.865946757E-2,1.279896449E0,1.481380064E0
1.511683913E1,-9.886062920E-2,2.880589861E-1,6.892247576E-1,7.535132181E-1
1.512683713E1,-5.721488822E-1,2.326680198E-2,7.720815575E-1,9.612521099E-1
1.513683613E1,-3.236444096E-1,1.059785910E-2,6.904643673E-1,7.626264229E-1
1.514683413E1,-2.631932630E-1,4.203912338E-2,5.928509492E-1,6.500078688E-1
1.515683313E1,-3.019472927E-1,2.942995001E-2,7.840484691E-1,8.406963134E-1
1.516683113E1,-2.985719875E-1,-2.641834158E-2,8.571357411E-1,9.080335011E-1
1.517683013E1,-2.535143669E-1,-1.167178431E-1,1.044796280E0,1.081430468E0
1.518682813E1,8.560601458E-2,-1.093770110E-1,1.088291379E0,1.097118884E0
1.519682613E1,2.739676349E-1,5.380662661E-3,1.135456190E0,1.168053070E0
1.520682513E1,-3.784259498E-2,1.102561947E-1,1.588710712E0,1.592981550E0
1.521682313E1,-7.594042093E-2,1.018740466E-1,1.435891977E0,1.441503048E0
1.522682213E1,-2.124731988E-1,9.759662563E-2,1.594522845E0,1.611574715E0
1.523682013E1,-5.348155797E-2,1.540157699E-1,1.207144223E0,1.218104392E0
1.524681913E1,1.361483234E-1,9.668372909E-2,8.391444433E-1,8.555977478E-1
1.525681713E1,-2.451648353E-1,-1.438108072E-2,9.075434178E-1,9.401849112E-1
1.526681513E1,-3.067474182E-1,-6.774613291E-2,7.902377468E-1,8.503876843E-1
1.527681413E1,-1.742486344E-1,-4.394546187E-2,6.419950426E-1,6.666719020E-1
1.528681213E1,-2.898539351E-1,2.499602465E-2,5.499370641E-1,6.221502064E-1
1.529681113E1,-2.667995332E-1,7.710869461E-2,5.145081997E-1,5.846763457E-1
1.530680913E1,-1.958647674E-1,4.615510639E-2,2.805915070E-1,3.452895810E-1
1.531680712E1,-6.025161043E-2,2.635663519E-2,1.040424317E-1,1.230843466E-1
1.532680612E1,-8.895208374E-2,2.199141461E-2,9.443779528E-2,1.315849258E-1
1.533680412E1,-6.711141765E-4,-3.245478775E-2,8.760941684E-2,9.343004635E-2
1.534680312E1,1.163690932E-1,-6.953037422E-2,7.213417590E-2,1.535564330E-1
1.535680112E1,1.654240166E-1,-1.326151799E-1,2.187379056E-1,3.046279084E-1
1.536680012E1,2.073954767E-1,-1.341506953E-1,3.624846858E-1,4.386393054E-1
1.537679812E1,1.503412700E-1,-1.268645529E-1,4.327208555E-1,4.753361453E-1
1.538679612E1,1.961281845E-1,-5.528834760E-2,2.897710508E-1,3.542461404E-1
1.539679512E1,1.020099396E-1,1.621769115E-2,2.534124792E-1,2.736547567E-1
1.540679312E1,-6.020073965E-2,5.612415226E-2,2.100834417E-1,2.256304545E-1
1.541679212E1,-7.502036154E-2,6.947904663E-2,1.283113003E-2,1.030535320E-1
1.542679012E1,-3.126558834E-1,1.211659114E-1,3.914044297E-1,5.153952921E-1
1.543678812E1,-3.620582776E-1,2.036054029E-1,1.162537569E-1,4.313424306E-1
1.544678712E1,2.963053143E-1,-2.613822889E-1,-8.199030107E-1,9.101420149E-1
1.545678513E1,4.686338693E-2,-1.765468094E-1,-4.739367092E-1,5.079182584E-1
1.546678412E1,1.071690841E-1,8.311164720E-2,-5.656134492E-1,5.816453665E-1
1.547678213E1,2.700346515E-1,1.730355930E-1,-5.539733970E-1,6.401144851E-1
1.548678113E1,-1.436026463E-1,1.841534888E-1,3.448863208E-2,2.360586648E-1
1.549677913E1,1.575307140E-1,2.446486541E-1,-3.835919648E-1,4.814682599E-1
1.550677713E1,2.567456844E-1,-5.594323575E-2,-5.329807234E-1,5.942360168E-1
1.551677613E1,-1.549405436E-1,-1.269766733E-2,1.843551081E-1,2.411526668E-1
1.552677413E1,1.536117639E-1,-5.321951134E-2,-1.092663342E-1,1.958775693E-1
1.553677313E1,2.242057832E-1,-5.541289330E-2,-1.829792583E-1,2.946527293E-1
1.554677113E1,3.504198334E-1,7.282182673E-2,-2.669639862E-1,4.465051489E-1
1.555677013E1,-5.767868936E-2,8.656033499E-2,3.050018781E-1,3.222509402E-1
1.556676813E1,3.745229334E-2,-3.117720768E-2,-2.439002287E-1,2.487207553E-1
1.557676613E1,4.252285257E-2,-5.805431815E-2,-1.508593333E-1,1.671437563E-1
1.558676513E1,-1.781497505E-1,-2.548892666E-3,-1.838639420E-1,2.560269120E-1
1.559676313E1,-9.458163679E-3,2.697333371E-2,-2.350919831E-1,2.368232634E-1
1.560676213E1,-3.721635818E-2,-3.191677082E-2,-3.193603009E-1,3.231017477E-1
1.561676013E1,-9.434950233E-2,-1.145375077E-1,-2.314854205E-1,2.749657600E-1
1.562675813E1,-2.368955567E-2,-1.433357209E-1,-2.565395701E-1,2.948200722E-1
1.563675713E1,1.009720588E-1,-9.909884842E-2,-3.594382864E-1,3.862794586E-1
1.564675513E1,7.376964211E-2,-7.799136836E-2,-2.236887431E-1,2.481154317E-1
1.565675413E1,1.494269116E-1,-1.029595639E-1,-2.174100029E-1,2.831893061E-1
1.566675213E1,1.783389080E-1,-9.837373886E-2,-2.284448683E-1,3.060542704E-1
1.567675013E1,1.191361418E-1,-1.376080077E-2,-1.385146916E-1,1.832187210E-1
1.568674913E1,1.494425529E-1,2.770812772E-2,-1.243568283E-1,1.963808487E-1
1.569674713E1,1.517270601E-1,-3.653230704E-4,-1.699311966E-1,2.278109870E-1
1.570674613E1,1.224080975E-1,2.019774467E-2,-2.066201359E-1,2.410053356E-1
1.571674413E1,5.707306400E-2,7.630899651E-2,-1.557604694E-1,1.825971561E-1
1.572674313E1,1.191837966E-2,8.385499276E-2,-1.125454527E-1,1.408551970E-1
1.573674113E1,-1.455187789E-1,1.157064027E-1,1.794668359E-1,2.584028479E-1
1.574673913E1,-1.079853408E0,4.412986843E-2,1.426137067E0,1.789384744E0
1.575673813E1,5.055911958E-1,-3.825594196E-1,-8.667356998E-1,1.073873801E0
1.576673613E1,6.307220493E-1,-2.812020476E-1,-7.785988641E-1,1.040721426E0
1.577673513E1,4.789242379E-1,3.221493497E-1,-6.100791854E-1,8.398483444E-1
1.578673313E1,5.034452677E-1,1.613566751E-1,-7.731907743E-1,9.366520633E-1
1.579673213E1,1.710000676E-1,2.664813716E-2,-5.680511534E-1,5.938293183E-1
1.580673013E1,-4.349385582E-1,5.553197550E-1,7.172136247E-1,1.005955746E0
1.581672813E1,-5.418383780E-1,5.884098427E-1,1.300596178E-1,8.103890887E-1
1.582672713E1,-2.774971604E-2,-3.514927609E-1,-7.540458208E-1,8.324075370E-1
1.583672513E1,-1.707395741E-1,-3.160254876E-1,-2.883244497E-1,4.606029736E-1
1.584672413E1,8.483140469E-2,-1.636231107E-1,-7.201138437E-2,1.978750339E-1
1.585672213E1,-4.982763290E-1,4.038177031E-1,9.537364215E-1,1.149330761E0
1.586672013E1,4.542194594E-1,-1.280043215E-1,-3.431713325E-1,5.834954902E-1
1.587671913E1,4.450378691E-1,-4.801608510E-1,-5.266119361E-2,6.568000830E-1
