"Time (s)","Linear Acceleration x (m/s^2)","Linear Acceleration y (m/s^2)","Linear Acceleration z (m/s^2)","Absolute acceleration (m/s^2)"
6.999333331E-3,-3.049845558E-2,-2.898154166E-2,8.845083117E-3,4.299210445E-2
1.699833333E-2,-2.015741715E-2,-1.399130898E-2,-4.414530873E-2,5.050630135E-2
2.699733333E-2,-1.778394096E-2,-3.458682876E-2,-2.830052376E-3,3.899392871E-2
3.699633334E-2,-3.367268968E-2,-3.541638421E-2,-7.317205667E-3,4.941368029E-2
4.699533334E-2,-4.287765065E-2,-2.081864588E-2,-2.108038187E-2,5.211805293E-2
5.699433334E-2,-4.479045762E-2,-1.634245612E-2,-1.883095801E-2,5.126271496E-2
6.699333334E-2,-4.570368307E-2,-1.638842985E-2,-2.047928810E-2,5.269543168E-2
7.699233334E-2,-3.720011389E-2,-3.516351040E-3,-1.659088969E-2,4.088362531E-2
8.699033334E-2,-3.453932013E-2,-1.548032071E-3,-1.210432112E-2,3.663162061E-2
9.698933334E-2,-2.379975742E-2,8.839784078E-3,-1.375615954E-2,2.887563265E-2
1.069883333E-1,-1.946541745E-2,1.513824033E-2,-3.426702261E-2,4.221726703E-2
1.169873333E-1,-1.723801201E-2,1.556037275E-2,-1.869939566E-2,2.981512462E-2
1.269863333E-1,-1.439354260E-2,1.562940644E-2,-1.151316762E-2,2.416620456E-2
1.369853333E-1,-2.196767857E-2,1.886344660E-2,-1.989690542E-2,3.513253997E-2
1.469843333E-1,-3.171451198E-2,7.092398498E-3,-2.079094470E-2,3.857947340E-2
1.569823333E-1,-4.302434267E-2,5.305946209E-3,-2.467934310E-2,4.988303423E-2
1.669813333E-1,-4.921301745E-2,-6.668986995E-3,-2.213288069E-2,5.437150799E-2
1.769803333E-1,-4.721763683E-2,-2.102035655E-2,-1.704287946E-2,5.442260889E-2
1.869793333E-1,-3.552316898E-2,-3.266872276E-2,-7.310773730E-3,4.881176491E-2
1.969783333E-1,-2.702732909E-2,-3.620111709E-2,-1.868302345E-2,4.888816587E-2
2.069773333E-1,-1.564793481E-2,-3.667505220E-2,-1.853041112E-2,4.396923303E-2
2.169763334E-1,-1.868307827E-2,-4.935631078E-2,-1.658036470E-2,5.531736907E-2
2.269753334E-1,-1.960670080E-2,-3.897134515E-2,-2.375840664E-2,4.967545012E-2
2.369733333E-1,-2.779912502E-2,-3.975459795E-2,-8.335790634E-3,4.922097943E-2
2.469723333E-1,-2.272547772E-2,-3.604561770E-2,-3.993648291E-4,4.261330057E-2
2.569713334E-1,-3.316306829E-2,-1.251119597E-2,-1.594535708E-3,3.548044063E-2
2.669703334E-1,-5.049395967E-2,-9.838196151E-3,-2.494480669E-2,5.717231365E-2
2.769693334E-1,-3.918133328E-2,-8.654884156E-3,-2.389230788E-2,4.670038836E-2
2.869683334E-1,-3.468480617E-2,-1.834143642E-3,-1.071794629E-2,3.634933609E-2
2.969673334E-1,-2.285099186E-2,1.445607126E-2,-1.475661814E-2,3.080427899E-2
3.069663334E-1,-1.360051397E-2,1.877630481E-2,-1.790008128E-2,2.929055330E-2
3.169643334E-1,-1.635647116E-2,2.298810907E-2,-1.715339184E-2,3.301857294E-2
3.269633334E-1,-2.354797997E-2,1.289950591E-2,-1.551149368E-2,3.100824164E-2
3.369623334E-1,-3.312162615E-2,4.560298305E-3,-1.685986161E-2,3.744453730E-2
3.469613334E-1,-3.388635060E-2,1.108622951E-2,-2.479277909E-2,4.342661784E-2
3.569603334E-1,-3.735486411E-2,6.311100852E-3,-1.491390824E-2,4.071413177E-2
3.669593334E-1,-4.763938554E-2,-7.818549592E-3,-6.831886768E-3,4.875772194E-2
3.769583334E-1,-2.806080619E-2,-1.248926891E-2,-1.012796223E-2,3.234140227E-2
3.869563334E-1,-1.911175227E-2,-1.785902286E-2,-1.746095538E-2,3.144978116E-2
3.969553334E-1,-1.090357712E-2,-1.749441242E-2,-2.330056965E-2,3.111043243E-2
4.069543334E-1,-1.873102544E-2,-2.681905858E-2,-2.016003013E-2,3.842577302E-2
4.169533334E-1,-1.665661605E-2,-3.278193947E-2,-1.042850912E-2,3.822109648E-2
4.269523334E-1,-1.715262439E-2,-2.778183918E-2,-1.222185016E-2,3.486282738E-2
4.369513334E-1,-2.408338392E-2,-2.577891201E-2,-1.237387776E-2,3.738548564E-2
4.469503334E-1,-3.891855575E-2,-2.747959295E-2,-1.986123741E-2,5.161638075E-2
4.569483334E-1,-5.353326928E-2,-2.698206799E-2,-2.480388880E-2,6.487739061E-2
4.669473334E-1,-5.691306956E-2,-3.201851238E-2,-1.507763028E-2,6.701953116E-2
4.769463334E-1,-4.670447057E-2,-1.713100797E-2,-1.014433444E-2,5.077092206E-2
4.869453334E-1,-3.138578882E-2,-2.067182595E-2,-1.344040990E-2,3.991286442E-2
4.969443334E-1,-1.945792571E-2,-2.125504917E-2,-1.239375830E-2,3.136866641E-2
5.069433333E-1,-2.458045207E-2,-2.158298660E-2,-1.912916601E-2,3.789391675E-2
5.169423333E-1,-6.599204130E-3,-6.757992581E-3,-9.695852995E-3,1.353623006E-2
5.269413333E-1,-1.568475399E-2,-7.368112989E-3,-1.568515599E-2,2.337359012E-2
5.369393334E-1,-2.662418185E-2,3.539794721E-3,-1.643126070E-2,3.148592597E-2
5.469383333E-1,-3.830812471E-2,-7.336245663E-3,-1.642658293E-2,4.232216377E-2
5.569373333E-1,-5.588810747E-2,-2.534585260E-3,-1.312933803E-2,5.746550441E-2
5.669363333E-1,-4.768731443E-2,1.442818735E-2,-2.930039763E-2,5.779935856E-2
5.769353333E-1,-4.805740664E-2,1.838057622E-2,-2.122597754E-2,5.565880018E-2
5.869343333E-1,-3.801251141E-2,1.326186882E-2,-5.208699703E-3,4.059505809E-2
5.969333333E-1,-1.250810791E-2,1.185621645E-2,-8.205982447E-3,1.908823669E-2
6.069313333E-1,-7.532584202E-3,7.415822614E-3,-9.107038379E-3,1.395250507E-2
6.169303333E-1,-1.429233095E-2,3.832648862E-3,-2.692350447E-2,3.072189796E-2
6.269293333E-1,-1.932534009E-2,-7.018376403E-3,-2.752284408E-2,3.435452406E-2
6.369283333E-1,-2.626043022E-2,-2.384346535E-2,-1.315331161E-2,3.783028736E-2
6.469273333E-1,-3.756412134E-2,-2.040338393E-2,-1.554716170E-2,4.548709185E-2
6.569263333E-1,-4.139757419E-2,-2.265383106E-2,-1.778839946E-2,5.043195778E-2
6.669253333E-1,-4.445283573E-2,-2.994781232E-2,-1.074718237E-2,5.466651622E-2
6.769243333E-1,-4.619015314E-2,-4.580403591E-2,-1.134476781E-2,6.603214148E-2
6.869223333E-1,-3.547039786E-2,-5.427995872E-2,-5.503399372E-3,6.507496022E-2
6.969213333E-1,-2.824378749E-2,-4.217026547E-2,-9.993476272E-3,5.172922181E-2
7.069203333E-1,-1.340388307E-2,-3.473876501E-2,-9.091250896E-3,3.832879751E-2
7.169193333E-1,-9.559156056E-3,-3.362178236E-2,-3.704795837E-3,3.515006723E-2
7.269183333E-1,-2.964090658E-2,-2.566772355E-2,-1.118747771E-2,4.077468618E-2
7.369173333E-1,-3.282113409E-2,-7.169691380E-3,-1.672537565E-2,3.752824947E-2
7.469163333E-1,-3.537369953E-2,1.706681650E-2,-2.570611417E-2,4.694016564E-2
7.569143333E-1,-4.049262621E-2,2.555013970E-2,-8.938053846E-3,4.870678825E-2
7.669133333E-1,-3.808191055E-2,1.674796052E-2,-1.013322473E-2,4.281831777E-2
7.769123333E-1,-2.821615940E-2,1.239141941E-2,-2.929104209E-2,4.251663290E-2
7.869113333E-1,-1.392859759E-2,2.610650226E-2,-2.883963704E-2,4.131924438E-2
7.969103333E-1,-1.135861840E-2,1.912081545E-2,-2.315205038E-2,3.210360154E-2
8.069093333E-1,-3.398712371E-3,1.263669183E-2,-4.287763238E-3,1.377033550E-2
8.169083333E-1,-8.866608180E-3,1.920554526E-3,-1.056942701E-2,1.392903650E-2
8.269063333E-1,-2.800333902E-2,-4.414044823E-3,-2.358825266E-2,3.687921436E-2
8.369053333E-1,-4.178568313E-2,-1.089866180E-2,-3.137148142E-2,5.337596828E-2
8.469043333E-1,-5.073283670E-2,-1.024130685E-2,-3.047393382E-2,6.006134970E-2
8.569033333E-1,-5.444322394E-2,-2.175642963E-2,-1.850117505E-2,6.147926758E-2
8.669023333E-1,-4.752472529E-2,-2.420517046E-2,-6.378142834E-3,5.371378312E-2
8.769013333E-1,-2.849147189E-2,-1.923107201E-2,-1.737792492E-3,3.441828038E-2
8.869003333E-1,-2.140937911E-2,-1.507984126E-2,-2.553712964E-2,3.657742633E-2
8.968993333E-1,-1.442793153E-2,-2.507276936E-2,-2.673054636E-2,3.938694047E-2
9.068973333E-1,-1.375740208E-2,-2.423862750E-2,-1.804333806E-2,3.320149429E-2
9.168963333E-1,-5.137948394E-3,-2.484470967E-2,-1.085652530E-2,2.759569267E-2
9.268953333E-1,-2.166077284E-2,-1.222842827E-2,-2.447761416E-2,3.489809641E-2
9.368943333E-1,-2.918922745E-2,-1.008089215E-2,-1.280072451E-2,3.342893856E-2
9.468933333E-1,-3.846638326E-2,-3.090174900E-2,-1.570562124E-3,4.936646025E-2
9.568923333E-1,-4.266879542E-2,-2.740041800E-2,-2.192413509E-2,5.524560352E-2
9.668913333E-1,-3.957916321E-2,-1.613721885E-2,-2.611366510E-2,5.008835691E-2
9.768893333E-1,-3.013229197E-2,-1.365655588E-2,-7.403744459E-3,3.390091400E-2
9.868883333E-1,-2.862540968E-2,-1.904900433E-2,-9.801102877E-3,3.575388459E-2
9.968873333E-1,-3.248621654E-2,-6.976185087E-3,-2.117803037E-2,3.940216230E-2
1.006886333E0,-2.292812029E-2,5.378287230E-3,-9.801102877E-3,2.550855329E-2
1.016885333E0,-2.413779957E-2,1.731643779E-2,-1.144417048E-2,3.183490889E-2
1.026884333E0,-2.426786358E-2,1.400660310E-2,-2.102658749E-2,3.503186427E-2
1.036883333E0,-2.690196114E-2,1.214550745E-2,-1.683647275E-2,3.398081339E-2
1.046881333E0,-2.606498703E-2,2.631426115E-2,-1.279546201E-2,3.918606560E-2
1.056880333E0,-3.202046754E-2,1.703675816E-2,-1.085184753E-2,3.785926656E-2
1.066879333E0,-3.496475989E-2,1.237791600E-2,-1.818542540E-2,4.130928389E-2
1.076878333E0,-2.931876155E-2,9.634786136E-3,-1.264986634E-2,3.335323074E-2
1.086877333E0,-2.390599402E-2,4.456674680E-5,-2.193232119E-2,3.244264553E-2
1.096876333E0,-2.349889990E-2,-2.170248907E-2,-1.729197085E-2,3.636218619E-2
1.106875333E0,-2.145220997E-2,-2.869588690E-2,-3.069788218E-3,3.595934979E-2
1.116874333E0,-2.434789734E-2,-3.865292771E-2,-1.175407290E-2,4.717019350E-2
1.126872333E0,-4.127341222E-2,-4.101445366E-2,-1.639266908E-2,6.045162996E-2
1.136871333E0,-4.607074203E-2,-5.102837691E-2,-1.459640443E-2,7.028131717E-2
1.146870333E0,-4.805031689E-2,-5.570726406E-2,-1.384562194E-2,7.485875680E-2
1.156869333E0,-3.536666460E-2,-5.081524590E-2,-1.818367124E-2,6.452624335E-2
1.166868333E0,-3.301087623E-2,-3.090470916E-2,-1.623830259E-2,4.804686742E-2
1.176867333E0,-3.537528925E-2,-2.147578156E-2,-1.548868954E-2,4.418732608E-2
1.186866333E0,-2.552691529E-2,-1.013108684E-2,-1.967705011E-2,3.378533152E-2
1.196864333E0,-1.985376393E-2,-1.053114602E-2,-1.443619072E-2,2.671105729E-2
1.206863333E0,-1.233461006E-2,1.158850534E-2,-7.696105242E-3,1.859209771E-2
1.216862333E0,-6.993160285E-3,1.969822800E-2,-1.548108816E-2,2.601131615E-2
1.226861333E0,-2.144287270E-2,1.782366548E-2,-3.059964895E-2,4.139828929E-2
1.236860333E0,-3.018139031E-2,1.620780570E-2,-2.850576103E-2,4.456666578E-2
1.246859333E0,-3.325264033E-2,1.490769558E-2,-2.416654229E-2,4.372641356E-2
1.256858333E0,-3.140661953E-2,2.201208087E-2,-1.368657768E-2,4.072136863E-2
1.266856333E0,-2.951102531E-2,1.551423457E-2,-9.046227336E-3,3.454600292E-2
1.276855333E0,-3.837355871E-2,2.547376044E-3,-2.446591973E-2,4.558070163E-2
1.286854333E0,-3.228673512E-2,-1.130118778E-2,-2.671358943E-2,4.340237286E-2
1.296853333E0,-2.548159936E-2,-1.862930216E-2,-2.671241999E-2,4.135113283E-2
1.306852333E0,-2.291668167E-2,-2.051301923E-2,-9.502310157E-3,3.219087068E-2
1.316851333E0,-2.568932170E-2,-2.142394233E-2,-8.306554556E-3,3.446629373E-2
1.326850333E0,-2.806630623E-2,-2.567484984E-2,-1.504430115E-2,4.090533531E-2
1.336849333E0,-3.099901378E-2,-3.218497530E-2,-1.115005553E-2,4.605578388E-2
1.346847333E0,-2.609590419E-2,-1.369207771E-2,-1.639149964E-2,3.372166170E-2
1.356846333E0,-3.896049125E-2,-1.901481640E-2,-1.743815124E-2,4.672870895E-2
1.366845333E0,-3.916868867E-2,-3.430007765E-2,-2.716616392E-2,5.872547966E-2
1.376844333E0,-2.972245697E-2,-3.480781697E-2,1.722589731E-3,4.580366673E-2
1.386843333E0,-2.498564584E-2,-2.044568488E-2,-1.010398865E-2,3.382896858E-2
1.396842333E0,-2.286045704E-2,-1.234504368E-2,-1.654001892E-2,3.079890948E-2
1.406841333E0,-2.576423915E-2,-2.544213066E-2,-2.357246518E-2,4.320600822E-2
1.416839333E0,-2.543723362E-2,-2.825666964E-2,-1.428884089E-2,4.061604618E-2
1.426838333E0,-2.218645580E-2,-6.777946204E-3,-7.097350359E-3,2.426008569E-2
1.436837333E0,-2.837608075E-2,4.568283409E-3,-6.945322752E-3,2.956871117E-2
1.446836333E0,-3.453308919E-2,4.724623337E-3,-2.490855396E-2,4.284031250E-2
1.456835333E0,-3.848469235E-2,-5.068403073E-3,-2.445890307E-2,4.588025931E-2
1.466834333E0,-3.325382804E-2,2.010071743E-3,-2.206505299E-2,3.995902941E-2
1.476833333E0,-2.217286102E-2,1.387211714E-2,-2.505941212E-2,3.622216912E-2
1.486831333E0,-1.819269788E-2,1.860017572E-2,-1.787727714E-2,3.156798743E-2
1.496830333E0,-1.430738753E-2,9.300855305E-3,-1.009638727E-2,1.982786633E-2
1.506829333E0,-9.710416216E-3,-4.170654472E-3,-1.099861264E-2,1.525306598E-2
1.516828333E0,-1.567053795E-2,-3.193657827E-3,-2.087923765E-2,2.630033792E-2
1.526827333E0,-1.617599320E-2,-5.002292991E-4,-3.360102475E-2,3.729533281E-2
1.536826333E0,-3.602705279E-2,-6.449022051E-3,-2.432324767E-2,4.394495188E-2
1.546825333E0,-4.139424859E-2,-1.930076351E-2,-5.914458632E-3,4.605414324E-2
1.556823333E0,-4.680882510E-2,-1.566284521E-2,-1.953730166E-2,5.308575123E-2
1.566822333E0,-3.843999770E-2,-1.143280495E-2,-2.761873841E-2,4.869432373E-2
1.576821333E0,-4.652578332E-2,-2.468796775E-2,-3.016461611E-2,6.069636175E-2
1.586820333E0,-2.836769365E-2,-3.038487341E-2,-2.388002872E-2,4.793977834E-2
1.596819333E0,-1.898888765E-2,-3.722702935E-2,-1.272938848E-3,4.180968718E-2
1.606818333E0,-1.989465790E-2,-2.498330696E-2,-5.015156865E-3,3.232823592E-2
1.616817333E0,-2.173950925E-2,-1.087755701E-2,-2.462554872E-2,3.460267560E-2
1.626815333E0,-2.006813748E-2,-2.264295889E-2,-3.450266540E-2,4.588973359E-2
1.636814333E0,-1.952103909E-2,-2.989414584E-2,-1.459114194E-2,3.856983725E-2
1.646813333E0,-2.814721707E-2,-2.264339743E-2,-1.533724666E-2,3.924564194E-2
1.656812333E0,-3.555788683E-2,-5.574625768E-3,-1.428767145E-2,3.872437635E-2
1.666811333E0,-3.336870756E-2,4.632876869E-3,-1.174471736E-2,3.567733984E-2
1.676810333E0,-3.699392645E-2,-1.273123400E-2,-1.129097342E-2,4.072003185E-2
1.686809333E0,-2.866893489E-2,4.049745016E-4,-1.952443779E-2,3.468826174E-2
1.696807333E0,-2.985496949E-2,1.254768625E-2,-1.982089162E-2,3.796882113E-2
1.706806333E0,-2.735764196E-2,1.827207383E-2,-1.189148247E-2,3.498166107E-2
1.716805333E0,-2.926118474E-2,1.840688869E-2,-8.899462223E-3,3.569637113E-2
1.726804333E0,-2.517882323E-2,8.847202733E-3,-8.902385831E-3,2.813358507E-2
1.736803333E0,-2.782693584E-2,9.145593457E-3,-2.297254086E-2,3.722523164E-2
1.746802583E0,-3.199866839E-2,7.206638474E-3,-3.075576961E-2,4.496407211E-2
1.756801583E0,-3.908024954E-2,-3.681187704E-4,-2.042958677E-2,4.409954003E-2
1.766799583E0,-2.870363446E-2,-1.714924397E-2,-2.716440976E-2,4.308016199E-2
1.776798583E0,-2.546601288E-2,-2.381000832E-2,-2.790934503E-2,4.465832339E-2
1.786797583E0,-1.593062941E-2,-3.150382949E-2,-6.500934362E-3,3.589621670E-2
1.796796583E0,-2.127328517E-2,-4.056652039E-2,-7.998406291E-3,4.649913700E-2
1.806795583E0,-2.708269492E-2,-3.904909484E-2,-2.177269220E-2,5.227192648E-2
1.816794583E0,-2.320809228E-2,-2.234526252E-2,-1.293988824E-2,3.471839588E-2
1.826793583E0,-2.906764191E-2,-3.097463820E-2,-2.457584739E-3,4.254874546E-2
1.836791583E0,-4.263130015E-2,-2.799789380E-2,-8.293690681E-3,5.167296309E-2
1.846790583E0,-5.486044105E-2,-1.872886928E-2,-1.098984182E-2,5.900182336E-2
1.856789583E0,-4.514828894E-2,-1.695049345E-2,-3.614047050E-2,6.026459019E-2
1.866788583E0,-4.394951837E-2,-4.193348978E-3,-2.371689141E-2,5.011621772E-2
1.876787583E0,-3.056027161E-2,-1.075193323E-3,-3.374720514E-2,4.554075204E-2
1.886786583E0,-1.763052464E-2,1.370020900E-3,-1.279078424E-2,2.182467681E-2
1.896785583E0,-1.134915322E-2,4.017603602E-3,-2.132245660E-2,2.448655903E-2
1.906784583E0,-1.834790491E-2,9.157507159E-3,-2.401392996E-2,3.157806809E-2
1.916782583E0,-1.683680166E-2,7.092435043E-3,-2.266439259E-2,2.911108408E-2
1.926781583E0,-1.611041302E-2,7.871010080E-3,-9.789993167E-3,2.042895429E-2
1.936780583E0,-3.270888582E-2,-4.655096289E-3,-1.637746632E-2,3.687495812E-2
1.946779583E0,-4.651578823E-2,-3.720747773E-3,-1.098984182E-2,4.794099646E-2
1.956778583E0,-4.187441463E-2,-1.073378859E-2,-2.910276175E-2,5.211191379E-2
1.966777583E0,-4.555903757E-2,-3.881728929E-3,-2.925654352E-2,5.428295370E-2
1.976776583E0,-3.855189878E-2,-7.373137940E-3,-1.414090633E-2,4.172022645E-2
1.986774583E0,-2.879083106E-2,-1.074301623E-2,-2.357188046E-2,3.872928994E-2
1.996773583E0,-1.456610855E-2,-1.169485157E-2,-2.521728694E-2,3.138236180E-2
2.006772583E0,-1.955623202E-2,-8.832328878E-3,-5.456621647E-3,2.214115995E-2
2.016771583E0,-2.994766613E-2,-1.210629456E-2,-1.114947081E-2,3.417214910E-2
2.026770583E0,-2.661890108E-2,-5.956357587E-3,-1.220021546E-2,2.988125412E-2
2.036769583E0,-2.753466642E-2,-2.691875361E-3,-2.223169863E-2,3.549158311E-2
2.046768583E0,-4.130674135E-2,-1.023931514E-2,-1.818659484E-2,4.628004632E-2
2.056766583E0,-4.336850613E-2,-2.256895507E-2,-2.237612486E-2,5.376686731E-2
2.066765583E0,-3.890030148E-2,-1.495505802E-2,-7.407252789E-3,4.232912247E-2
2.076764583E0,-2.511978462E-2,-2.534709513E-2,-3.965581656E-3,3.590549608E-2
2.086763583E0,-2.212871455E-2,-2.474740835E-2,-2.208025575E-2,3.987043919E-2
2.096762583E0,-1.491215408E-2,-2.264606522E-2,-1.339772522E-2,3.024426641E-2
2.106761583E0,-2.242644746E-2,-2.303183528E-2,-1.923500061E-2,3.746193041E-2
2.116760583E0,-2.946702501E-2,-2.161958652E-2,-2.193115175E-2,4.262261725E-2
2.126758583E0,-2.708075803E-2,-1.236602057E-2,-1.474550843E-2,3.322222056E-2
2.136757583E0,-3.817756735E-2,5.086182263E-3,-9.802272320E-3,3.974267783E-2
2.146756583E0,-3.718268188E-2,1.207239898E-2,-3.180359066E-2,5.039606162E-2
2.156755583E0,-4.213594962E-2,1.823158186E-2,-2.371864557E-2,5.167594194E-2
2.166754583E0,-3.246593401E-2,1.724442568E-2,-2.402036190E-2,4.391337921E-2
2.176753583E0,-2.183580559E-2,1.553416992E-2,-1.055247009E-2,2.880047683E-2
2.186752583E0,-2.260135230E-2,1.347940352E-2,-1.684056580E-2,3.124292082E-2
2.196750583E0,-1.356055191E-2,1.430581609E-2,-3.645037293E-2,4.143880584E-2
2.206749583E0,-6.765922867E-3,1.469295658E-3,-3.195678771E-2,3.269820824E-2
2.216748583E0,-1.619242022E-2,-1.067696096E-2,-1.893328428E-2,2.710463469E-2
2.226747583E0,-2.453124410E-2,-1.508179642E-2,-6.809667349E-3,2.959077710E-2
2.236746583E0,-2.842923559E-2,-2.827061160E-2,-1.923383117E-2,4.446784431E-2
2.246745583E0,-3.722030506E-2,-3.123008844E-2,-2.596689999E-2,5.509037509E-2
2.256743583E0,-3.643484127E-2,-2.939128529E-2,-2.207557797E-2,5.175593157E-2
2.266742583E0,-3.961123154E-2,-3.093403660E-2,-1.114771664E-2,5.148044163E-2
2.276741583E0,-4.089071196E-2,-2.248906748E-2,-2.057518244E-2,5.100143736E-2
2.286740583E0,-3.134346960E-2,-2.105461758E-2,-9.198254943E-3,3.886280872E-2
2.296739583E0,-2.981279645E-2,-1.100435022E-2,-2.162885070E-3,3.185241950E-2
2.306738583E0,-2.519978184E-2,-3.749271221E-3,-1.069689631E-2,2.763167802E-2
2.316737583E0,-2.883358883E-2,-8.667875938E-3,-5.163091421E-4,3.011269654E-2
2.326736583E0,-3.400314873E-2,-1.868916303E-3,-1.907127857E-2,3.903102148E-2
2.336734583E0,-2.845755804E-2,4.176702686E-3,-1.248029709E-2,3.135339329E-2
2.346733583E0,-2.523502959E-2,-1.620720271E-3,-1.906893969E-2,3.167108955E-2
2.356732583E0,-3.014113588E-2,-9.006265271E-3,-3.867640793E-2,4.985444230E-2
2.366731583E0,-9.948087260E-3,-1.533890946E-2,-2.894605637E-2,3.423624925E-2
2.376730583E0,1.603295568E-2,-1.752922162E-2,1.042558551E-2,2.594266971E-2
2.386729583E0,1.069360726E-2,1.055298172E-2,1.506769001E-2,2.127801545E-2
2.396727583E0,-6.682505026E-2,1.238860544E-2,-1.921219647E-2,7.062700178E-2
2.406726583E0,-8.867207520E-2,1.577699382E-2,-3.523064375E-2,9.671012725E-2
2.416725583E0,-6.861195937E-2,-7.076044567E-3,-1.966652513E-2,7.172477665E-2
2.426724583E0,-6.819731869E-2,-7.333888505E-3,-8.741002679E-3,6.914524803E-2
2.436723583E0,-7.351832148E-2,-1.101103798E-2,-1.967412651E-2,7.689771000E-2
2.446722583E0,-3.291465299E-2,-1.039912686E-2,-2.551724911E-2,4.292605529E-2
2.456721583E0,2.324414402E-2,-2.219093258E-2,3.736370802E-4,3.213825329E-2
2.466719583E0,4.167816745E-2,-1.950720677E-2,-4.717533588E-3,4.625857630E-2
2.476718583E0,2.376668410E-2,-2.200362068E-3,-2.342745423E-2,3.344461808E-2
2.486717583E0,-1.843517460E-4,-4.289133679E-3,-2.895775080E-2,2.927425464E-2
2.496716583E0,-2.126018375E-2,-1.341808084E-3,-6.497426033E-3,2.227133600E-2
2.506715583E0,-7.143517781E-2,-3.076216500E-2,-1.263407886E-2,7.879667108E-2
2.516714583E0,-1.046174140E-1,-2.772141187E-2,-1.098750293E-2,1.087842140E-1
2.526713583E0,-7.056533139E-2,-1.872600049E-2,3.958564997E-4,7.300880626E-2
2.536712583E0,-6.031328028E-2,-2.580705173E-3,-2.160955489E-2,6.411961229E-2
2.546710583E0,-3.255499441E-2,-1.764863273E-2,-3.898163259E-2,5.376680740E-2
2.556709583E0,1.155894035E-2,-2.148729326E-2,1.340825021E-2,2.784051091E-2
2.566708583E0,3.415625442E-2,-1.586872201E-2,3.383198977E-3,3.781417842E-2
2.576707583E0,1.966873610E-2,7.627217732E-3,-3.329287648E-2,3.941382061E-2
2.586706583E0,-1.570706477E-2,1.055592360E-2,-1.787786186E-2,2.603377328E-2
2.596705583E0,-3.601519391E-2,6.252500787E-4,-7.248208523E-3,3.674264085E-2
2.606703583E0,-4.822964368E-2,4.730525371E-3,-2.550730884E-2,5.476403203E-2
2.616702583E0,-7.914029142E-2,1.587138981E-2,-2.910276175E-2,8.580243284E-2
2.626701583E0,-7.347426636E-2,1.974244757E-2,-1.533432305E-2,7.761039567E-2
2.636700583E0,-4.005145378E-2,6.175445449E-3,-8.146925569E-3,4.133554733E-2
2.646699583E0,-2.365047069E-2,-1.244037157E-2,-1.608335137E-2,3.118945014E-2
2.656698583E0,-1.229002504E-2,-5.226752982E-3,-1.249140680E-2,1.828657721E-2
2.666697583E0,5.266824681E-3,-1.396894338E-2,-1.159152031E-2,1.890063926E-2
2.676695583E0,2.229523228E-2,-2.364303377E-2,-1.847603202E-2,3.738227103E-2
2.686694583E0,5.418176204E-3,-3.497374998E-2,-2.730883598E-2,4.470226330E-2
2.696693583E0,-2.802935913E-2,-3.486146517E-2,-1.637922049E-2,4.763659928E-2
2.706692583E0,-5.164450899E-2,-2.746725898E-2,-2.610664845E-2,6.405593429E-2
2.716691583E0,-6.347878011E-2,-1.669730902E-2,-2.715446949E-2,7.103323775E-2
2.726690583E0,-6.700850666E-2,-2.005808758E-2,-1.323634207E-2,7.118755223E-2
2.736689583E0,-6.491966195E-2,-1.576370968E-2,3.976106644E-3,6.692433395E-2
2.746687083E0,-3.809587078E-2,-5.409460198E-3,-9.798179269E-3,3.970594347E-2
2.756686083E0,-1.535921026E-2,-1.488847286E-4,-2.985997617E-2,3.357894703E-2
2.766685083E0,2.058585361E-3,1.758001931E-3,-7.704291344E-3,8.166054714E-3
2.776684083E0,5.796618965E-3,-4.221653156E-3,-1.069572687E-2,1.287717827E-2
2.786683083E0,-5.365222357E-3,-1.076092333E-2,-2.506584406E-2,2.780071258E-2
2.796682083E0,-1.683968872E-2,1.064016005E-2,-2.326840997E-2,3.063016527E-2
2.806681083E0,-3.681613455E-2,8.034074306E-3,-9.497632384E-3,3.886102332E-2
2.816679083E0,-4.939652866E-2,-2.691272367E-3,-1.578338921E-2,5.192663445E-2
2.826678083E0,-6.239695385E-2,-9.845961984E-3,-2.341751397E-2,6.736989519E-2
2.836677083E0,-5.082514962E-2,-3.051607031E-3,-2.237027764E-2,5.561418399E-2
2.846676083E0,-3.904580578E-2,6.900609825E-3,6.771075726E-4,3.965667459E-2
2.856675083E0,-2.414976809E-2,-4.664799012E-3,-1.055305481E-2,2.676450288E-2
2.866674083E0,-8.084086273E-3,-2.644558595E-2,-1.309834778E-2,3.059882648E-2
2.876673083E0,-1.080397345E-2,-2.889628194E-2,-1.429527283E-2,3.400111436E-2
2.886671083E0,-1.381483270E-2,-2.061682558E-2,-2.462496400E-2,3.496129219E-2
2.896670083E0,-2.123469355E-2,-1.164379807E-2,-2.238372624E-2,3.297759003E-2
2.906669083E0,-3.259338504E-2,-1.494917426E-2,-9.058506489E-3,3.698463328E-2
2.916668083E0,-3.619251072E-2,-2.182010947E-2,-4.712271094E-3,4.252317613E-2
2.926667083E0,-4.628094943E-2,-1.940277915E-2,-1.548284233E-2,5.251773535E-2
2.936666083E0,-4.122506306E-2,-9.363932144E-3,-2.476178885E-2,4.899321622E-2
2.946665083E0,-3.303627508E-2,-9.147073533E-3,-3.120074272E-2,4.635246241E-2
2.956663083E0,-2.563075818E-2,-1.528630279E-2,-2.491790950E-2,3.887813051E-2
2.966662083E0,-1.897162009E-2,-1.106108649E-2,-1.174764097E-2,2.490536230E-2
2.976661083E0,-2.145219170E-2,3.190387040E-3,-1.548868954E-2,2.665097750E-2
2.986660083E0,-1.724046053E-2,4.604517873E-3,-2.102541804E-2,2.757722372E-2
2.996659083E0,-2.145696083E-2,5.509009045E-3,-1.264343441E-2,2.550699477E-2
3.006658083E0,-2.498003617E-2,5.793220270E-3,-9.801102877E-3,2.745223535E-2
3.016656083E0,-3.398359710E-2,-6.344228983E-4,-1.519340515E-2,3.723072554E-2
3.026655083E0,-4.085699910E-2,-3.796030674E-3,-1.100445986E-2,4.248296554E-2
3.036654083E0,-3.779495845E-2,-1.764452141E-3,-1.115473330E-2,3.944616902E-2
3.046653083E0,-4.069046309E-2,-7.687206510E-3,-1.894088566E-2,4.553640390E-2
3.056652083E0,-3.684350682E-2,-7.494997568E-3,-2.418232977E-2,4.470351280E-2
3.066651083E0,-4.149599014E-2,-1.014042411E-2,-2.358123600E-2,4.879364805E-2
3.076650083E0,-3.212140510E-2,-1.284295237E-2,-2.253458440E-2,4.128599745E-2
3.086648083E0,-1.382265335E-2,-1.687290821E-2,-2.044128120E-2,2.989325600E-2
3.096647083E0,-1.834236832E-2,-7.340484895E-3,-2.630662322E-3,1.993102051E-2
3.106646083E0,-2.598519081E-2,-1.432217002E-2,-4.278407693E-3,2.997764947E-2
3.116645083E0,-3.269640567E-2,-1.566291830E-2,-3.885299385E-2,5.314072905E-2
3.126644083E0,-4.338981193E-2,-1.982677538E-2,-2.672469914E-2,5.468076760E-2
3.136643083E0,-2.089526268E-2,-1.631126488E-2,-1.609446108E-2,3.101130506E-2
3.146642083E0,-2.524085853E-2,-1.200999822E-2,-1.204877257E-2,3.043869112E-2
3.156640083E0,-3.135909263E-2,-6.650294177E-3,-8.605347276E-3,3.319143120E-2
3.166639083E0,-2.296307568E-2,1.833412740E-3,-1.069981992E-2,2.539981089E-2
3.176638083E0,-2.798249004E-2,-1.415884998E-3,-1.907887995E-2,3.389731759E-2
3.186637083E0,-3.642024150E-2,1.350034386E-2,-2.102483332E-2,4.416714720E-2
3.196636083E0,-2.752792384E-2,6.907991935E-3,-2.162241876E-2,3.567962916E-2
3.206635083E0,-3.215685384E-2,2.046907375E-2,-2.132187188E-2,4.367686401E-2
3.216634083E0,-3.131737640E-2,2.038279077E-2,-1.294456601E-2,3.954488606E-2
3.226632083E0,-3.022058493E-2,1.236563684E-2,-1.594126403E-2,3.633616142E-2
3.236631083E0,-3.059988650E-2,4.324947875E-3,-1.220430851E-2,3.322654622E-2
3.246630083E0,-2.928303871E-2,1.168109234E-2,-2.822217107E-2,4.231353465E-2
3.256629083E0,-2.896253821E-2,7.963359542E-4,-2.193290591E-2,3.633889283E-2
3.266628083E0,-2.802497372E-2,-2.621745318E-4,-1.818717957E-2,3.341019886E-2
3.276627083E0,-2.398018057E-2,-1.775059355E-2,-1.070040464E-2,3.169591915E-2
3.286625083E0,-2.954068165E-2,-2.826352185E-2,-2.641772032E-2,4.867622096E-2
3.296624083E0,-3.250039604E-2,-2.467113873E-2,-1.728612363E-2,4.431422908E-2
3.306623083E0,-2.648512775E-2,-4.258914538E-2,-7.554017901E-3,5.071844322E-2
3.316622083E0,-1.957982188E-2,-4.844664847E-2,-2.012494683E-2,5.599518424E-2
3.326621083E0,-3.355558092E-2,-4.474190746E-2,-1.353571951E-2,5.754155886E-2
3.336620083E0,-4.200899195E-2,-4.242690342E-2,-1.129038870E-2,6.076405529E-2
3.346619083E0,-5.304930255E-2,-3.809789903E-2,-1.113953054E-2,6.625532094E-2
3.356617083E0,-4.486246973E-2,-2.840146132E-2,-1.817490041E-2,5.612139699E-2
3.366616083E0,-3.320007021E-2,-2.627175920E-2,-2.086988211E-2,4.720171578E-2
3.376615083E0,-3.185868239E-2,-7.165580057E-4,-1.189089775E-2,3.401297618E-2
3.386614083E0,-2.842788342E-2,1.095501434E-2,-1.802813530E-2,3.540014912E-2
3.396613083E0,-1.374117605E-2,4.003807828E-3,-1.862513602E-2,2.348927602E-2
3.406612083E0,-1.010513982E-2,8.457047269E-3,-1.368365407E-2,1.899678625E-2
3.416611083E0,-8.377287593E-3,1.550356340E-2,-1.398478568E-2,2.249696993E-2
3.426609083E0,-1.104148004E-2,3.237259783E-2,-1.787786186E-2,3.859426533E-2
3.436608083E0,-2.511600221E-2,4.134573497E-2,-2.685626149E-2,5.533120411E-2
3.446607083E0,-3.070062306E-2,3.224805214E-2,-1.128746510E-2,4.593334291E-2
3.456606083E0,-3.788032779E-2,3.145633914E-2,-1.203824759E-2,5.068865663E-2
3.466605083E0,-4.185192112E-2,2.155541332E-2,-1.338661551E-2,4.894303444E-2
3.476604083E0,-3.982200539E-2,3.931795713E-3,-1.473381400E-2,4.264195593E-2
3.486603083E0,-3.532471083E-2,2.756852545E-3,-2.027522027E-2,4.082303257E-2
3.496601083E0,-3.485329734E-2,-7.864925321E-3,-2.027522027E-2,4.108155235E-2
3.506600083E0,-3.129323836E-2,-1.448002657E-2,-1.967354178E-2,3.969869246E-2
3.516599083E0,-2.902287416E-2,-2.865672883E-2,-1.637863576E-2,4.395219040E-2
3.526598083E0,-2.164482091E-2,-4.342580885E-2,-1.098691821E-2,4.974948761E-2
3.536597083E0,-2.409865977E-2,-4.799387299E-2,-2.221006393E-2,5.811578260E-2
3.546596083E0,-2.977862678E-2,-4.269134374E-2,-2.071434617E-2,5.602143858E-2
3.556595083E0,-3.075545898E-2,-3.863619005E-2,-4.245078564E-3,4.956484773E-2
3.566593083E0,-3.368917152E-2,-3.182014558E-2,-2.160604656E-2,5.113025710E-2
3.576592083E0,-4.259168526E-2,-3.239529233E-2,-2.564413369E-2,5.933909513E-2
3.586591083E0,-3.830264295E-2,-1.754983306E-2,-2.399287999E-2,4.848450667E-2
3.596590083E0,-4.093370726E-2,-2.304077055E-3,-1.455781281E-2,4.350640269E-2
3.606589083E0,-3.470782958E-2,-8.203131929E-3,-9.019330144E-3,3.678686075E-2
3.616588083E0,-3.387407145E-2,-1.134615652E-3,-1.530450225E-2,3.718827581E-2
3.626586083E0,-3.246790744E-2,1.227551663E-2,-1.949637115E-2,3.981157885E-2
3.636585083E0,-2.769511767E-2,1.248956127E-2,-2.174345613E-2,3.736022708E-2
3.646584083E0,-3.121104844E-2,2.180673396E-2,-1.575532258E-2,4.120550182E-2
3.656583083E0,-2.849715466E-2,2.494371034E-2,-1.021625519E-2,3.922560872E-2
3.666582083E0,-2.315431617E-2,1.738415586E-2,-5.575320125E-3,2.948585130E-2
3.676581083E0,-2.940022057E-2,2.115129763E-2,-1.171197295E-2,3.806469061E-2
3.686580083E0,-3.283909600E-2,1.738410104E-2,-2.443843782E-2,4.447303046E-2
3.696578083E0,-2.801616635E-2,1.916510811E-2,-3.191878080E-2,4.659415751E-2
3.706577083E0,-2.223111391E-2,1.303240215E-2,-1.470340848E-2,2.966911108E-2
3.716576083E0,-2.909561718E-2,8.966686931E-3,-1.066356719E-2,3.225938745E-2
3.726575083E0,-2.818854958E-2,-1.693631396E-2,-9.016991258E-3,3.409896170E-2
3.736574083E0,-2.238032755E-2,-2.003239637E-2,-7.072207332E-3,3.085760979E-2
3.746572458E0,-2.446054760E-2,-2.268536948E-2,-2.323917389E-2,4.065714673E-2
3.756571458E0,-3.206236649E-2,-2.446102269E-2,-1.725454867E-2,4.386406759E-2
3.766569458E0,-3.369015824E-2,-3.133321870E-2,-1.665287018E-2,4.892969897E-2
3.776568458E0,-3.352212388E-2,-4.494487893E-2,-1.215928495E-2,5.737266894E-2
3.786567458E0,-3.570900081E-2,-4.480949761E-2,-2.427939355E-2,6.222951684E-2
3.796566458E0,-3.412146349E-2,-3.814595584E-2,-1.769016623E-2,5.415099444E-2
3.806565458E0,-3.268966310E-2,-4.210221849E-2,-2.098039448E-2,5.728339924E-2
3.816564458E0,-2.617601104E-2,-3.725231856E-2,-1.184879780E-2,4.704585849E-2
3.826562458E0,-2.692432674E-2,-3.378521204E-2,-1.020280659E-2,4.438983200E-2
3.836561458E0,-2.713743947E-2,-1.362192940E-2,-1.349595845E-2,3.322857921E-2
3.846560458E0,-3.126051223E-2,-1.117247595E-2,-1.603774309E-2,3.686804914E-2
3.856559458E0,-2.477138193E-2,-5.438678004E-3,-6.305052638E-3,2.613339377E-2
3.866558458E0,-2.525728555E-2,1.081667287E-2,-1.573485732E-2,3.166254286E-2
3.876557458E0,-2.950417310E-2,2.155199636E-2,-2.262346208E-2,4.297447863E-2
3.886556458E0,-2.268056380E-2,2.842605617E-2,-2.547164083E-2,4.439879649E-2
3.896554458E0,-2.686523331E-2,3.459084872E-2,-1.289837301E-2,4.565780987E-2
3.906553458E0,-2.222806240E-2,3.146891065E-2,-1.514428854E-2,4.139720487E-2
3.916552458E0,-2.037712628E-2,1.391544135E-2,-3.071016133E-2,3.939518743E-2
3.926551458E0,-3.841874672E-2,5.211696401E-3,-2.038514793E-2,4.380315211E-2
3.936550458E0,1.104803989E-2,3.631890194E-2,-1.694347680E-2,4.157166378E-2
3.946549458E0,-1.756854415E-2,1.866436718E-2,-1.260367334E-2,2.856334937E-2
3.956547458E0,-5.847159008E-2,-4.284974847E-2,-3.311512113E-2,7.969717082E-2
3.966546458E0,-2.892025553E-2,-3.637317142E-2,-2.637854397E-2,5.343422462E-2
3.976545458E0,-3.601904942E-2,-4.731957939E-2,2.497579694E-2,6.450042594E-2
3.986544458E0,-3.103364026E-2,8.383920528E-3,-2.606747210E-2,4.138707592E-2
3.996543458E0,-6.400892157E-2,-4.000498669E-2,-6.140336573E-2,9.730320819E-2
4.006542458E0,-2.775850514E-2,-8.208681302E-2,7.451691628E-3,8.697302563E-2
4.016541458E0,-1.932252612E-2,-6.300672708E-2,3.066279888E-2,7.268710276E-2
4.026539458E0,-1.047561575E-2,-3.810740076E-4,-3.789288104E-2,3.931608037E-2
4.036538458E0,-3.506059941E-2,-1.594354810E-2,-5.511117697E-2,6.723603337E-2
4.046537458E0,-2.646468077E-2,-3.182284992E-2,1.149913430E-2,4.295699239E-2
4.056536458E0,-1.450412806E-2,-3.645159720E-2,3.396355212E-2,5.189038005E-2
4.066535458E0,-4.892051049E-2,-5.141456723E-3,-2.650776744E-2,5.587765795E-2
4.076534458E0,-6.331613615E-2,2.499653628E-2,-7.576003432E-2,1.018496084E-1
4.086533458E0,-4.016105253E-2,2.598228548E-2,2.677440047E-2,5.481658344E-2
4.096531458E0,-5.148985013E-2,6.587692425E-3,-3.475351095E-2,6.246926350E-2
4.106530458E0,-3.987106718E-3,-1.724599712E-2,-6.759966016E-3,1.894778554E-2
4.116529458E0,-4.048237531E-2,3.626121551E-2,-1.668210626E-3,5.437353572E-2
4.126528458E0,-2.662589947E-2,3.018807806E-2,-4.373015642E-2,5.943555468E-2
4.136527458E0,4.244713113E-5,1.931740981E-2,-3.879101336E-2,4.333482250E-2
4.146526458E0,-1.611182000E-2,-3.771892637E-3,-1.199322402E-2,2.043661764E-2
4.156524458E0,-2.083551144E-2,2.368316028E-2,3.157204092E-2,4.462963573E-2
4.166523458E0,-5.851491429E-3,-1.803977491E-2,-1.707737803E-2,2.552078117E-2
4.176522458E0,-1.821515484E-2,1.765634375E-2,-5.195894301E-2,5.782101780E-2
4.186521458E0,-4.683747645E-2,-1.439971872E-2,-7.624769211E-4,4.900696349E-2
4.196520458E0,-4.287463568E-2,-2.838823199E-3,-1.213531137E-2,4.464928985E-2
4.206519458E0,-5.177784378E-2,-1.870266644E-2,-4.118252456E-2,6.875125575E-2
4.216518458E0,-5.127366761E-2,2.495792639E-3,1.478176117E-3,5.135565184E-2
4.226516458E0,-4.089595618E-2,-2.919279059E-2,1.331995726E-3,5.026402756E-2
4.236515458E0,-2.926370636E-2,-2.708441254E-2,-3.654042006E-2,5.408449140E-2
4.246514458E0,-1.126131708E-2,-4.667284079E-2,-1.782874525E-2,5.121557855E-2
4.256513458E0,-8.582342137E-3,-1.719711805E-2,-1.423329234E-2,2.391618859E-2
4.266512458E0,-1.641125226E-2,-2.636058206E-2,-2.111663461E-2,3.755158777E-2
4.276511458E0,-2.023661038E-2,-2.883797424E-2,-1.632659554E-2,3.882920138E-2
4.286510458E0,-2.413217163E-2,-2.456875764E-2,1.046885490E-2,3.599420068E-2
4.296508458E0,-3.938627819E-2,-1.747286908E-2,-1.482386112E-2,4.556673043E-2
4.306507458E0,-4.918242920E-2,-1.342940982E-2,-2.649782717E-2,5.745776915E-2
4.316506458E0,-3.989381650E-2,2.397961412E-3,-3.083821535E-2,5.048031636E-2
4.326505458E0,-2.963953614E-2,8.075772263E-3,-1.499810815E-3,3.075661933E-2
4.336504458E0,-2.750952339E-2,1.798186921E-2,-1.706743777E-2,3.703267380E-2
4.346503458E0,-3.192327585E-2,3.060368719E-2,-2.515238285E-2,5.087556951E-2
4.356501458E0,1.779380813E-4,2.893266259E-2,2.831806540E-3,2.907145945E-2
4.366500458E0,-1.804399587E-2,1.350233557E-2,-1.707562387E-2,2.827500280E-2
4.376499458E0,-3.497069847E-2,4.838388227E-3,-4.072995007E-2,5.390072898E-2
4.386498458E0,-3.133391306E-2,3.414317127E-3,-1.319073379E-2,3.416821808E-2
4.396497458E0,-2.474061096E-2,3.759997208E-3,5.968837738E-3,2.572668719E-2
4.406496458E0,-2.602354489E-2,-2.777427435E-6,-6.606768966E-3,2.684910227E-2
4.416495458E0,-3.382921234E-2,-1.121766396E-2,-1.842983902E-2,4.012369074E-2
4.426493458E0,-4.216997311E-2,-1.023098286E-2,-2.007466078E-2,4.781183585E-2
4.436492458E0,-4.056120308E-2,-1.680729149E-2,-2.591076672E-2,5.098101681E-2
4.446491458E0,-3.448230978E-2,-2.658169817E-2,-1.947707534E-2,4.769667524E-2
4.456490458E0,-2.546038494E-2,-3.812664175E-2,4.471365809E-3,4.606370724E-2
4.466489458E0,-2.334160980E-2,-1.443271894E-2,-6.905561686E-3,2.829877923E-2
4.476488458E0,-1.998459538E-2,-2.564194098E-2,-2.351984024E-2,4.012575326E-2
4.486486458E0,-3.361761622E-2,-1.138940765E-2,-1.678501725E-2,3.926320836E-2
4.496485458E0,-3.229808237E-2,-2.938918395E-2,-1.483847916E-2,4.612017695E-2
4.506484458E0,-2.446871543E-2,-1.822109342E-2,-5.705128312E-3,3.103666814E-2
4.516483458E0,-3.122080598E-2,-1.208067644E-2,-2.112365127E-2,3.958396282E-2
4.526482458E0,-2.908955069E-2,-2.396095784E-2,-3.115104139E-2,4.889495720E-2
4.536481458E0,-2.026469529E-2,-1.439233661E-2,-1.333516002E-2,2.820680274E-2
4.546480458E0,-3.370395401E-2,-1.084475778E-2,-2.276671886E-2,4.209380923E-2
4.556478458E0,-2.839051606E-2,2.718169559E-3,-1.797667980E-2,3.371306668E-2
4.566477458E0,-2.830927631E-2,2.462719325E-3,-1.932329357E-2,3.436378597E-2
4.576476458E0,-2.846853985E-2,5.951460544E-3,-3.414306164E-2,4.485115719E-2
4.586475458E0,-1.898055537E-2,-1.863387030E-2,-6.598582864E-3,2.740481527E-2
4.596474458E0,-2.767651621E-2,1.916487057E-2,4.329863191E-3,3.394156049E-2
4.606473458E0,-4.338995811E-2,8.663782887E-3,-3.848344982E-2,5.864064724E-2
4.616471458E0,-1.776217835E-2,-1.435292272E-2,-4.207656384E-2,4.787419550E-2
4.626470458E0,-3.635171944E-2,4.278848061E-2,-4.055044055E-3,5.629160650E-2
4.636469458E0,-2.470603930E-2,-3.655087195E-2,5.524449348E-3,4.446205302E-2
4.646468458E0,-4.873818699E-3,7.574764553E-2,-3.474707901E-2,8.347945503E-2
4.656467458E0,-4.199610980E-2,-3.630245665E-2,-4.660815597E-3,5.570695468E-2
4.666466458E0,-2.297400266E-2,2.831347900E-2,-2.726615131E-2,4.552912143E-2
4.676465458E0,-3.654367257E-2,-5.559327990E-2,-2.652121603E-2,7.162002286E-2
4.686463458E0,-4.454366857E-2,1.423183054E-2,-3.618257046E-3,4.690176110E-2
4.696462458E0,-3.983450381E-2,-6.003162721E-2,-1.215636134E-3,7.205596249E-2
4.706461458E0,-4.703715887E-2,7.311285362E-3,-5.151396990E-2,7.014013332E-2
4.716460458E0,-4.424356023E-2,-6.131041327E-2,-1.753696918E-2,7.761446183E-2
4.726459458E0,-2.398632014E-2,-2.210174426E-2,2.525412440E-3,3.271403921E-2
4.736458458E0,-2.436940413E-2,-4.795818670E-2,-9.751401544E-3,5.467124803E-2
4.746457458E0,-2.032742495E-2,-8.536642492E-3,-2.262521625E-2,3.159080373E-2
4.756456375E0,-2.246832814E-2,-3.400950758E-2,-7.507240176E-3,4.144672520E-2
4.766455375E0,-2.928276462E-2,-3.539648540E-3,-2.920918107E-2,4.151127166E-2
4.776454375E0,-3.041869590E-2,-2.166446390E-2,-1.498758316E-2,4.024020011E-2
4.786453375E0,-2.360146372E-2,2.762005404E-3,4.176666141E-3,2.412679638E-2
4.796452375E0,-3.466805024E-2,2.754256016E-2,-3.755666614E-3,4.443614924E-2
4.806451375E0,-4.497011332E-2,2.258618608E-2,-2.306434214E-2,5.535712034E-2
4.816449375E0,-3.134361578E-2,2.057255119E-2,-2.665862560E-2,4.600363498E-2
4.826448375E0,-3.794197937E-2,2.754732929E-3,-1.064193249E-2,3.950231739E-2
4.836447375E0,-3.061426699E-2,2.613168184E-2,-1.693236709E-2,4.366695769E-2
4.846446375E0,-2.018385753E-2,9.477477763E-3,-1.887832046E-2,2.921646236E-2
4.856445375E0,-3.341005834E-2,2.113521779E-2,-2.127977192E-2,4.489719504E-2
4.866444375E0,-2.794441005E-2,-2.247375509E-2,-3.165097833E-3,3.599968840E-2
4.876443375E0,-2.571779033E-2,-1.136346063E-2,-2.472085834E-2,3.743866736E-2
4.886441375E0,-2.611262357E-2,-2.463057367E-2,-2.322631001E-2,4.275506690E-2
4.896440375E0,-2.368465863E-2,-1.236346241E-2,-6.161211133E-3,2.741858457E-2
4.906439375E0,-2.647321405E-2,-3.015116751E-2,-8.855023384E-3,4.108935876E-2
4.916438375E0,-3.464815143E-2,-1.818146026E-2,-1.154825091E-2,4.079732827E-2
4.926437375E0,-4.559269561E-2,-2.844071075E-2,-1.843042374E-2,5.680887642E-2
4.936436375E0,-4.124432232E-2,-2.229970906E-2,-1.917009652E-2,5.065435567E-2
4.946434375E0,-3.243435904E-2,-2.852028770E-2,-1.842633069E-2,4.695661955E-2
4.956433375E0,-2.510765165E-2,-1.905602099E-2,-1.811467409E-3,3.157225874E-2
4.966432375E0,-2.796315769E-2,-1.030151490E-2,-1.004610121E-2,3.144810879E-2
4.976431375E0,-3.947711103E-2,-2.497967072E-3,-2.276964247E-2,4.564141489E-2
4.986430375E0,-3.535506153E-2,-6.409297530E-3,-1.213998914E-2,3.792675582E-2
4.996429375E0,-3.541079281E-2,-1.006786382E-2,-1.663065076E-2,4.039634481E-2
5.006428375E0,-2.894315103E-2,7.248610519E-3,-1.812578380E-2,3.491120715E-2
5.016426375E0,-2.691060405E-2,3.450113051E-3,-1.498232067E-2,3.099280276E-2
5.026425375E0,-2.837200597E-2,2.675959971E-3,-1.049341321E-2,3.036845741E-2
5.036424375E0,-3.361556970E-2,8.045586012E-4,-2.471851945E-2,4.173318876E-2
5.046423375E0,-2.473600628E-2,3.383473065E-3,-9.297072887E-3,2.664119856E-2
5.056422375E0,-2.376679374E-2,-6.168629788E-4,-1.962500989E-2,3.082826654E-2
5.066421375E0,-3.101021485E-2,-3.562598862E-4,-2.201769054E-2,3.803339379E-2
5.076419375E0,-3.361843849E-2,-5.079220422E-4,-6.897960305E-3,3.432257635E-2
5.086418375E0,-3.198646232E-2,-1.097383507E-2,-2.276262581E-2,4.076390514E-2
5.096417375E0,-3.477821544E-2,-4.563331548E-3,-2.051846445E-2,4.063687546E-2
5.106416375E0,-3.511707986E-2,-1.165989619E-3,-1.093838632E-2,3.679968919E-2
5.116415375E0,-3.854320105E-2,-1.429001033E-2,-1.422919929E-2,4.350003282E-2
5.126414375E0,-3.185146473E-2,-1.897770485E-2,-1.033670783E-2,3.849047435E-2
5.136413375E0,-2.669336172E-2,-1.218247281E-2,-1.123484015E-2,3.141925901E-2
5.146411375E0,-3.025031436E-2,-6.737801414E-3,-2.186273932E-2,3.792702015E-2
5.156410375E0,-2.100802258E-2,-9.411057048E-3,-3.383900642E-2,4.092656061E-2
5.166409375E0,-2.190531436E-2,-1.366812240E-2,-1.333048224E-2,2.905790984E-2
5.176408375E0,-3.255247280E-2,-7.010336481E-3,-1.123074710E-2,3.514168441E-2
5.186407375E0,-3.212438352E-2,-6.294692103E-3,-1.332931280E-2,3.534501019E-2
5.196406375E0,-3.454156766E-2,-9.873005357E-3,-1.557815194E-2,3.915705491E-2
5.206404375E0,-3.159672713E-2,-1.781977342E-2,-1.782406747E-2,4.041775441E-2
5.216403375E0,-3.290409146E-2,-2.017914321E-2,-2.979682624E-2,4.876195146E-2
5.226402375E0,-3.110916071E-2,-8.436490651E-3,-2.455596685E-2,4.052097929E-2
5.236401375E0,-2.766323207E-2,-6.651262622E-3,-1.482327640E-2,3.208150910E-2
5.246400375E0,-2.925312655E-2,-9.358687922E-3,-2.275560915E-2,3.822496829E-2
5.256399375E0,-2.435591899E-2,-8.654281162E-3,-1.078051150E-2,2.800583511E-2
5.266398375E0,-2.697128719E-2,-4.763269778E-3,-8.530502915E-3,2.868638268E-2
5.276396375E0,-3.301062042E-2,-8.151895702E-3,-2.664225340E-2,4.319680694E-2
5.286395375E0,-3.402860239E-2,-7.264982723E-4,-2.155400634E-2,4.028707944E-2
5.296394375E0,-3.679292841E-2,2.461184431E-3,-1.947122812E-3,3.692652565E-2
5.306393375E0,-3.352007736E-2,4.198465291E-3,-1.856490970E-2,3.854709546E-2
5.316392375E0,-3.528023545E-2,5.977115203E-3,-2.245564699E-2,4.224543764E-2
5.326391375E0,-2.929701721E-2,-8.670598548E-3,-2.395545781E-2,3.882471449E-2
5.336389375E0,-1.901086953E-2,-1.363137631E-2,-2.889869392E-2,3.718013032E-2
5.346388375E0,-2.101885820E-2,-1.124489006E-2,-1.273055792E-2,2.702419392E-2
5.356387375E0,-2.296990961E-2,-1.516431525E-2,-4.500601888E-3,2.788957909E-2
5.366386375E0,-2.351724554E-2,-1.202907477E-2,-1.507996917E-3,2.645814680E-2
5.376385375E0,-3.330915732E-2,-2.199561730E-2,-2.426302135E-2,4.671189727E-2
5.386384375E0,-4.126414804E-2,-1.813793505E-2,-9.596450329E-3,4.608477471E-2
5.396383375E0,-4.415735034E-2,-1.685699282E-2,-1.363512218E-2,4.919295024E-2
5.406381375E0,-3.968181839E-2,-1.628597567E-2,-1.109275281E-2,4.430495321E-2
5.416380375E0,-3.422521502E-2,-1.143355412E-2,-2.111429572E-3,3.614622577E-2
5.426379375E0,-3.060196957E-2,-1.468990507E-2,-8.698318005E-3,3.504189761E-2
5.436378375E0,-3.523095438E-2,-1.451501850E-2,-3.084932506E-2,4.902638846E-2
5.446377375E0,-2.773394683E-2,-1.571059138E-2,-3.503476202E-2,4.736485024E-2
5.456376375E0,-2.236094037E-2,-7.503878027E-3,-1.871576786E-2,3.010979585E-2
5.466374375E0,-2.801408328E-2,-7.592664342E-3,-5.394056439E-3,2.952174214E-2
5.476373375E0,-3.313650001E-2,-1.531440597E-2,-9.135689735E-3,3.763003441E-2
5.486372375E0,-3.913758880E-2,-9.441535659E-3,-2.125813723E-2,4.552803368E-2
5.496371375E0,-3.679095497E-2,-2.427014764E-3,-2.679720461E-2,4.558020342E-2
5.506370375E0,-4.061859716E-2,2.309266459E-3,-4.497093558E-3,4.093198013E-2
5.516369375E0,-3.380710255E-2,7.098702528E-3,-2.306258798E-2,4.153546346E-2
5.526368375E0,-2.571223548E-2,-1.016757712E-3,-1.737383187E-2,3.104839582E-2
5.536366375E0,-1.423828075E-2,-7.949655131E-4,-1.452623785E-2,2.035613408E-2
5.546365375E0,-2.110397173E-2,4.630976524E-3,-1.572433233E-2,2.672224155E-2
5.556364375E0,-1.761941493E-2,2.091256678E-3,-1.362518191E-2,2.237102409E-2
5.566363375E0,-2.749236546E-2,-7.616254203E-3,-1.002972901E-2,3.023959244E-2
5.576362375E0,-4.002634730E-2,-9.695725087E-3,-1.796264648E-2,4.493074929E-2
5.586361375E0,-3.576454936E-2,-2.932561375E-3,-7.183889151E-3,3.659660053E-2
5.596359375E0,-3.842481321E-2,-5.299569089E-3,-9.878286123E-3,4.002664412E-2
5.606358375E0,-3.410176568E-2,-6.886722688E-3,-2.754330933E-2,4.437331699E-2
5.616357375E0,-3.863794422E-2,-1.424734393E-2,-2.125989139E-2,4.634501618E-2
5.626356375E0,-3.197175292E-2,-1.640862102E-2,-2.425600469E-2,4.335654036E-2
5.636355375E0,-2.300320219E-2,-1.974573663E-2,-1.108515143E-2,3.227881671E-2
5.646354375E0,-2.131481867E-2,-2.031591324E-2,1.788078547E-3,2.950008561E-2
5.656352375E0,-2.780402206E-2,-2.017333254E-2,-1.213121831E-2,3.643066629E-2
5.666351375E0,-3.040267088E-2,-1.867142038E-2,-2.245506227E-2,4.215654347E-2
5.676350375E0,-2.585302547E-2,-2.316701559E-2,-1.196983516E-2,3.672011017E-2
5.686349375E0,-2.815182175E-2,-2.017923458E-2,-1.061795890E-2,3.622799508E-2
5.696348375E0,-4.202523625E-2,-2.002505081E-2,-1.788663268E-3,4.658671976E-2
5.706347375E0,-4.165534504E-2,-1.020505412E-2,-1.720718622E-2,4.621036851E-2
5.716346375E0,-3.305153266E-2,-1.402577100E-2,-3.127500236E-2,4.761566797E-2
5.726344375E0,-3.288952824E-2,-5.329006165E-4,-1.825208366E-2,3.761839455E-2
5.736343375E0,-3.334201137E-2,1.029298162E-2,-8.523486257E-3,3.592053745E-2
5.746342375E0,-2.935994787E-2,-3.742364198E-3,-1.795562983E-2,3.461815234E-2
5.756340708E0,-2.564586958E-2,4.338853285E-3,-2.604232907E-2,3.680678168E-2
5.766339708E0,-2.172580484E-2,3.843776844E-3,-1.092259884E-2,2.461886232E-2
5.776338708E0,-3.299508875E-2,6.193041913E-3,-2.648730218E-2,4.276221261E-2
5.786336708E0,-3.928417118E-2,4.438237678E-3,-1.256683588E-2,4.148336321E-2
5.796335708E0,-4.471217802E-2,-5.771951023E-3,-2.086286545E-3,4.513143996E-2
5.806334708E0,-2.863429014E-2,-1.199483201E-2,-1.435783803E-2,3.420447455E-2
5.816333708E0,-1.892215630E-2,-1.120046949E-2,-2.214282095E-2,3.120581734E-2
5.826332708E0,-1.631707555E-2,-7.614225950E-3,-9.118732810E-3,2.018352495E-2
5.836331708E0,-2.933771018E-2,-2.196731312E-2,-3.127032459E-2,4.817776753E-2
5.846330708E0,-3.016704636E-2,-1.922858695E-2,-3.635623276E-2,5.100553796E-2
5.856328708E0,-2.176116223E-2,-1.187490927E-2,-3.275025487E-3,2.500574821E-2
5.866327708E0,-3.077468170E-2,-4.563971087E-3,4.954930544E-3,3.150336811E-2
5.876326708E0,-5.674779436E-2,-4.661016595E-3,-2.049507558E-2,6.051516639E-2
5.886325708E0,-5.984367577E-2,-1.430464664E-2,-3.756017447E-2,7.208782943E-2
5.896324708E0,-2.811955243E-2,-2.134648500E-2,-1.780067861E-2,3.953790346E-2
5.906323708E0,-1.897183936E-2,-2.584617326E-2,1.048815072E-2,3.373361330E-2
5.916321708E0,-1.861981871E-2,-7.871740982E-3,9.594111443E-3,2.237652630E-2
5.926320708E0,-2.073634632E-2,8.579893615E-3,-1.135704696E-2,2.515140451E-2
5.936319708E0,-2.078758255E-2,-3.954216130E-3,-1.075069070E-2,2.373471643E-2
5.946318708E0,-2.154223882E-2,-3.690506704E-4,3.072828770E-2,3.752908094E-2
5.956317708E0,-2.343370344E-2,4.444304164E-3,9.093765199E-2,9.401354608E-2
5.966316708E0,-3.275469510E-2,-9.901930802E-3,6.778852522E-2,7.593551499E-2
5.976314708E0,-2.876905018E-2,4.853519725E-2,-1.343748629E-2,5.799904877E-2
5.986313708E0,-3.335376061E-2,1.481858036E-2,-3.808174610E-2,5.274735119E-2
5.996312708E0,-3.147484923E-2,-2.625385210E-2,-5.764185190E-2,7.072845237E-2
6.006311708E0,-3.740695914E-2,-3.392781101E-2,-6.268975317E-2,8.050082053E-2
6.016310708E0,-2.581640728E-2,4.428534955E-3,1.144826353E-2,2.858603758E-2
6.026309708E0,-2.066395048E-2,2.109529227E-3,9.159370959E-2,9.391941545E-2
6.036308708E0,-8.654008901E-2,-1.093295389E-1,2.249102265E-1,2.646256697E-1
6.046306708E0,-1.370175851E-1,-1.341922471E-1,6.269466484E-1,6.556244944E-1
6.056305708E0,-1.404955455E-1,1.162045124E-1,9.555069584E-1,9.727466446E-1
6.066304708E0,-1.401551462E-1,-1.364290629E-2,1.159252603E0,1.167774033E0
6.076303708E0,-1.414546351E-1,-1.093423114E-1,1.155408643E0,1.169159650E0
6.086302708E0,2.387465294E-1,3.261445329E-1,8.029051548E-1,8.989031368E-1
6.096301708E0,6.024863566E-1,1.043632063E-1,-5.641418805E0,5.674459236E0
6.106299708E0,-4.635982106E-1,-2.390712874E-1,-5.676605594E-1,7.709195108E-1
6.116298708E0,-5.456927164E-1,6.482133737E-2,2.012314004E0,2.085998561E0
6.126297708E0,1.182802703E0,2.804666324E-1,-1.738116428E0,2.121021566E0
6.136296708E0,-6.893870909E-1,-3.279944457E-2,9.633720481E-1,1.185080617E0
6.146295708E0,1.409835139E-1,-2.488982460E-2,-7.655730218E-1,7.788439550E-1
6.156294708E0,2.710367180E-3,-1.951726216E-1,2.908872843E-2,1.973470355E-1
6.166292708E0,-2.286526455E-1,-2.037323240E-1,3.976486713E-1,5.019097109E-1
6.176291708E0,4.333486637E-2,-1.133232603E-1,-3.445085907E-1,3.652481910E-1
6.186290708E0,-2.280057059E-1,-2.369653579E-2,-4.156376302E-2,2.329714019E-1
6.196289708E0,-1.177771484E-1,-2.123629605E-1,1.801755184E-1,3.023784071E-1
6.206288708E0,8.189932753E-2,1.077550482E-2,-1.663632256E-1,1.857426558E-1
6.216287708E0,-3.019560635E-2,2.037933726E-2,9.590076864E-2,1.025867899E-1
6.226286708E0,-4.181718500E-2,3.835457353E-2,-3.265319109E-2,6.546740533E-2
6.236284708E0,2.251879692E-2,1.091289977E-1,-1.792142361E-1,2.110307484E-1
6.246283708E0,-5.039463010E-2,1.396930517E-1,1.003925997E-1,1.792552413E-1
6.256282708E0,-2.586451890E-3,-1.721239390E-2,7.105536461E-2,7.315614176E-2
6.266281708E0,5.466735503E-3,-7.252089612E-2,-8.417417765E-2,1.112405401E-1
6.276280708E0,-8.377003455E-2,-7.818494774E-3,-1.397601485E-2,8.528702445E-2
6.286279708E0,-4.923626013E-2,3.516541075E-2,1.475895703E-2,6.227874627E-2
6.296277708E0,5.439250848E-2,1.394158937E-2,-5.020594776E-2,7.532297182E-2
6.306276708E0,-1.345493658E-2,1.951709222E-2,7.125416994E-3,2.475325785E-2
6.316275708E0,-6.647224389E-2,8.252851535E-3,2.957521677E-2,7.322132349E-2
6.326274708E0,-7.249060937E-2,4.015155081E-2,-5.051058769E-2,9.704820940E-2
6.336273708E0,-3.332977789E-2,5.586758740E-3,-6.039939880E-2,6.921107819E-2
6.346272708E0,-3.432706621E-2,-3.419908527E-2,-1.699376285E-2,5.134893264E-2
6.356270708E0,-5.252008385E-2,-1.748120137E-2,1.565884352E-3,5.537511718E-2
6.366269708E0,-4.695151543E-2,-4.431480490E-2,-2.164054513E-2,6.809228978E-2
6.376268708E0,1.798749715E-3,-4.589784717E-2,1.099335015E-2,4.723030408E-2
6.386267708E0,-2.361379769E-3,-4.563461283E-2,-1.123834848E-3,4.570948487E-2
6.396266708E0,-4.543252758E-2,-7.002771646E-4,-4.722620666E-2,6.553563569E-2
6.406265708E0,-3.808374695E-2,1.999903070E-2,-2.731819153E-2,5.095700736E-2
6.416264708E0,-3.617808455E-2,-4.693614822E-3,2.102600276E-2,4.210672884E-2
6.426262708E0,-3.967240803E-2,-4.701965377E-3,3.045463800E-2,5.023438477E-2
6.436261708E0,-5.833800861E-2,-1.279089570E-1,1.725513339E-3,1.405951704E-1
6.446260708E0,-4.772132878E-2,-5.426713139E-2,-2.236443043E-2,7.564664248E-2
6.456259708E0,-4.597094650E-2,6.708799224E-2,-4.960894704E-2,9.526370900E-2
6.466258708E0,-5.406676375E-2,5.218914058E-3,1.341117382E-2,5.594918757E-2
6.476257708E0,-7.278336301E-2,-3.615605699E-2,3.167436719E-2,8.722352851E-2
6.486255708E0,-1.792043690E-2,-3.150357367E-2,3.543412685E-3,3.641665809E-2
6.496254708E0,5.037836753E-2,3.807167793E-2,-2.638263702E-2,6.843592705E-2
6.506253708E0,-4.980914108E-3,6.437344065E-2,-6.260789216E-2,8.993607467E-2
6.516252708E0,-8.296860055E-2,6.583836917E-3,-1.471100986E-2,8.451952080E-2
6.526251708E0,-4.670975134E-2,-9.118202906E-3,1.268378019E-2,4.925262200E-2
6.536250708E0,-3.913401651E-2,1.831008073E-2,-2.084415436E-2,4.797091906E-2
6.546249708E0,2.955402061E-4,2.153752450E-2,3.859162331E-3,2.188253732E-2
6.556247708E0,-2.995260886E-2,1.569937203E-2,-3.596388459E-2,4.936628459E-2
6.566246708E0,-8.214320211E-2,-3.216704993E-2,-2.878116488E-2,9.279321207E-2
6.576245708E0,-5.335056206E-2,-7.544260360E-3,-2.684105873E-2,6.019668405E-2
6.586244708E0,-1.300859302E-3,-1.549488394E-2,2.525997162E-4,1.555144590E-2
6.596243708E0,9.026712254E-3,-1.581810705E-2,8.486648798E-3,2.009271641E-2
6.606242708E0,-2.931252147E-2,-2.621019898E-2,3.587091386E-2,5.322519053E-2
6.616240708E0,-5.601181263E-2,-8.862226423E-2,2.556069392E-1,2.762718521E-1
6.626239708E0,-7.633010130E-2,-3.951400330E-2,5.744433296E-1,5.808379978E-1
6.636238708E0,-1.751480458E-2,8.774825167E-3,7.884946918E-1,7.887380078E-1
6.646237708E0,-7.111401949E-3,9.579095062E-2,8.865361261E-1,8.917246106E-1
6.656236708E0,3.491191568E-2,3.928104658E-2,9.917748982E-1,9.931662958E-1
6.666235708E0,-2.360484414E-3,1.020389929E-1,9.895359993E-1,9.947859176E-1
6.676233708E0,-5.010967883E-2,5.910604952E-2,1.054502658E0,1.057345904E0
6.686232708E0,-1.714241917E-1,1.037146222E-1,1.150285898E0,1.167604652E0
6.696231708E0,-2.160681400E-1,-6.475601301E-2,1.292320613E0,1.311857976E0
6.706230708E0,-9.860110419E-2,-7.395339087E-3,1.374628944E0,1.378180541E0
6.716229708E0,-4.870385287E-2,-9.699544050E-3,1.462172288E0,1.463015361E0
6.726228708E0,-4.252772220E-2,7.934183763E-2,1.443595099E0,1.446399165E0
6.736227708E0,3.040828968E-2,-3.552174373E-2,1.499717844E0,1.500446624E0
6.746225708E0,4.285326594E-2,7.514110655E-2,1.516937310E0,1.519401655E0
6.756225458E0,-1.082746738E-1,8.376439746E-2,1.476072873E0,1.482407166E0
6.766224458E0,-8.753307413E-2,1.045774337E-1,1.545382259E0,1.551388026E0
6.776223458E0,-1.286866550E-1,-2.663786799E-2,1.646430332E0,1.651666634E0
6.786222458E0,-1.893748149E-1,1.707951592E-2,1.677869641E0,1.688609210E0
6.796221458E0,-1.623595091E-1,8.265346304E-2,1.675465266E0,1.685341527E0
6.806219458E0,-4.696560357E-2,-2.207382381E-2,1.711985221E0,1.712771560E0
6.816218458E0,1.719084143E-2,-8.170862608E-3,1.705847399E0,1.705953585E0
6.826217458E0,9.418210750E-3,4.944250239E-2,1.683397014E0,1.684149272E0
6.836216458E0,4.697339681E-2,1.511699483E-1,1.703902615E0,1.711240186E0
6.846215458E0,-5.333174134E-2,-9.405465648E-3,1.776511000E0,1.777336229E0
6.856214458E0,-1.410304104E-1,4.611015592E-2,1.723234094E0,1.729610207E0
6.866212458E0,-1.397401584E-1,7.355238151E-2,1.673097144E0,1.680533046E0
6.876211458E0,-1.874578235E-1,9.611567209E-2,1.649896562E0,1.663291112E0
6.886210458E0,-2.053866475E-1,-8.190341145E-2,1.779093130E0,1.792781138E0
6.896209458E0,-1.746320290E-2,4.724097088E-2,1.839580822E0,1.840270163E0
6.906208458E0,4.988376617E-2,1.268307670E-1,1.854399421E0,1.859400883E0
6.916207458E0,1.721584741E-2,7.219029089E-2,1.937771945E0,1.939192599E0
6.926206458E0,2.533792231E-2,-3.226402234E-2,1.995872803E0,1.996294373E0
6.936204458E0,-6.793852458E-2,5.417980688E-2,1.876138784E0,1.878150109E0
6.946203458E0,-1.543710979E-1,1.708341163E-1,1.835422282E0,1.849808013E0
6.956202458E0,-1.726186134E-1,-4.629933162E-2,1.990803852E0,1.998809844E0
6.966201458E0,-8.248072349E-2,9.043285456E-3,2.057880186E0,2.059552309E0
6.976200458E0,-2.017608256E-2,1.208806404E-1,2.035573059E0,2.039258905E0
6.986199458E0,1.615922813E-2,9.858074857E-2,2.100537964E0,2.102912034E0
6.996197458E0,-5.734103093E-2,-2.990271566E-2,2.131527622E0,2.132508422E0
7.006196458E0,-9.979313219E-2,5.845697204E-2,2.137668952E0,2.140795281E0
7.016195458E0,-1.031491142E-1,1.840808006E-1,2.099938039E0,2.110513030E0
7.026194458E0,-1.558551578E-1,-3.456899475E-2,2.178980116E0,2.184820402E0
7.036193458E0,-5.849360850E-2,2.373251444E-2,2.174500564E0,2.175416612E0
7.046192458E0,-2.674127234E-2,1.324272833E-1,2.171051876E0,2.175251325E0
7.056190458E0,-8.616373845E-2,1.159454259E-1,2.137671876E0,2.142547218E0
7.066189458E0,-1.298655724E-1,-1.204885297E-1,2.227663448E0,2.234696174E0
7.076188458E0,-7.543459109E-2,1.035409416E-1,2.135316617E0,2.139155946E0
7.086187458E0,-6.359883989E-2,2.096654572E-1,2.104317019E0,2.115692448E0
7.096186458E0,-9.176141504E-2,-1.372207393E-1,2.252382553E0,2.258423532E0
7.106185458E0,-3.843608737E-2,5.768055316E-2,2.167972732E0,2.169080484E0
7.116183458E0,-6.840853108E-2,2.514063726E-1,2.086973593E0,2.103174664E0
7.126182458E0,-1.634723256E-1,-1.062970267E-1,2.238918169E0,2.247393341E0
7.136181458E0,-6.718109088E-2,-2.522956610E-2,2.226221525E0,2.227377855E0
7.146180458E0,-1.268849451E-2,2.914386950E-1,2.092982776E0,2.113214237E0
7.156179458E0,-4.433180750E-2,-1.942532748E-2,2.267536781E0,2.268053286E0
7.166178458E0,-9.304842375E-2,-1.247529589E-1,2.251561604E0,2.256933974E0
7.176177458E0,-9.601102520E-2,2.858874398E-1,2.062791848E0,2.084720593E0
7.186175458E0,-1.330586455E-1,1.097801948E-2,2.234643854E0,2.238628660E0
7.196174458E0,-1.087510483E-1,-1.611223662E-1,2.247106610E0,2.255498908E0
7.206173458E0,-2.179053535E-2,3.259173685E-1,2.102197403E0,2.127423531E0
7.216172458E0,-8.341272399E-2,5.045350425E-2,2.276001211E0,2.278087959E0
7.226171458E0,-1.169045703E-1,-1.749870829E-1,2.246399097E0,2.256234930E0
7.236170458E0,-6.937456420E-2,3.400594809E-1,1.995361757E0,2.025320177E0
7.246168458E0,-1.337681321E-1,-1.600658840E-2,2.117831104E0,2.122111851E0
7.256167458E0,-1.151935653E-1,-1.765932035E-1,1.987940471E0,1.999090301E0
7.266166458E0,-4.318205304E-3,4.013110017E-1,1.684055411E0,1.731216853E0
7.276165458E0,-1.411393971E-1,-1.129271297E-1,1.862663291E0,1.871413209E0
7.286164458E0,-1.487014183E-1,-1.481250473E-1,1.728269717E0,1.740967936E0
7.296163458E0,4.209531147E-2,4.199663971E-1,1.479320417E0,1.538353888E0
7.306161458E0,-1.318348142E-1,-2.328512204E-1,1.635480251E0,1.657225320E0
7.316160458E0,-7.924515758E-2,2.168343080E-2,1.369802068E0,1.372263703E0
7.326159458E0,1.519200182E-1,2.877303177E-1,1.207994993E0,1.251047693E0
7.336158458E0,5.841724752E-2,-2.692030678E-1,1.389922337E0,1.416956940E0
7.346157458E0,-1.991965475E-1,2.683824841E-1,8.285913885E-1,8.934607497E-1
7.356156458E0,-7.035907086E-2,-1.921471077E-1,8.604937971E-1,8.844888267E-1
7.366154458E0,-1.728460518E-1,-1.255838300E-1,6.404642415E-1,6.751603518E-1
7.376153458E0,-6.218811689E-2,1.571229803E-1,4.379400802E-1,4.694108080E-1
7.386152458E0,3.040504631E-1,7.987013357E-2,4.780730295E-1,5.721710792E-1
7.396151458E0,-2.056565696E-1,1.223317548E-1,1.613223410E-1,2.885906799E-1
7.406150458E0,-1.066820659E-1,-1.623457499E-1,1.930733067E-1,2.738877643E-1
7.416149458E0,9.468487669E-3,4.209902080E-2,6.868548810E-2,8.111520256E-2
7.426148458E0,-4.473732105E-2,1.120577036E-1,-2.202178359E-1,2.511060574E-1
7.436146458E0,1.953642823E-1,-8.091172367E-2,-3.007217163E-1,3.676240749E-1
7.446145458E0,-5.158771791E-2,7.791963033E-2,-6.074315661E-1,6.145777973E-1
7.456144458E0,-8.615941700E-2,-7.564383918E-2,-6.319752538E-1,6.422913334E-1
7.466143458E0,-8.212315712E-2,-1.152388995E-1,-6.988902050E-1,7.130720409E-1
7.476142458E0,-1.901367071E-1,1.225577863E-1,-1.021958810E0,1.046695843E0
7.486141458E0,7.450083643E-4,-3.669525433E-1,-5.974304885E-1,7.011261745E-1
7.496139458E0,-1.574545540E-4,2.609792696E-1,-1.109865850E0,1.140137013E0
7.506138458E0,1.829786370E-1,-1.374274567E-1,-8.278639948E-1,8.589099379E-1
7.516137458E0,-9.029308783E-2,-1.875719356E-1,-1.159884102E0,1.178417245E0
7.526136458E0,-1.171311499E-1,1.554074438E-1,-1.473811755E0,1.486604275E0
7.536135458E0,-1.784401196E-1,-4.481439100E-1,-1.355872831E0,1.439119513E0
7.546134458E0,8.463555951E-2,2.837068121E-1,-1.700322365E0,1.725905234E0
7.556132458E0,8.236565212E-2,-3.219659298E-1,-1.601389230E0,1.635510204E0
7.566131458E0,5.396247318E-2,2.299514034E-1,-1.839567958E0,1.854669747E0
7.576130458E0,-8.405315856E-2,-2.544002201E-1,-1.977429516E0,1.995497907E0
7.586129458E0,1.292421039E-2,-1.363422865E-1,-1.963641196E0,1.968411289E0
7.596128458E0,5.823483266E-2,2.130841049E-1,-2.215887741E0,2.226871036E0
7.606127458E0,-2.218570663E-2,-2.210955212E-1,-2.170370091E0,2.181715326E0
7.616125458E0,8.462251291E-2,-2.834998755E-2,-2.385018454E0,2.386687603E0
7.626124458E0,3.713822477E-2,6.399105102E-2,-2.470776642E0,2.471884163E0
7.636123458E0,-1.079711211E-1,-2.417080710E-1,-2.517171375E0,2.531053592E0
7.646122458E0,-4.523977960E-2,1.608267163E-1,-2.823302350E0,2.828241155E0
7.656121458E0,7.890616525E-3,-2.746253005E-1,-2.640977395E0,2.655229353E0
7.666120458E0,5.066530136E-2,1.387546650E-1,-2.868061616E0,2.871863030E0
7.676119458E0,1.411424669E-2,-1.839149042E-1,-2.963272998E0,2.969008381E0
7.686117458E0,3.685998866E-2,-3.162214424E-2,-3.023902193E0,3.024292163E0
7.696116458E0,3.306728359E-2,-2.119356204E-2,-3.134526250E0,3.134772309E0
7.706115458E0,-8.817710839E-3,-1.613742715E-1,-3.198277858E0,3.202358610E0
7.716114458E0,-1.497550501E-2,-7.859412493E-2,-3.370714586E0,3.371663999E0
7.726113458E0,7.892641123E-2,-3.292579925E-2,-3.370996422E0,3.372081014E0
7.736112458E0,1.161730288E-2,-1.364762974E-1,-3.507793202E0,3.510466335E0
7.746110458E0,-2.025248922E-2,-1.369828855E-1,-3.661665605E0,3.664282942E0
7.756109208E0,6.197149582E-2,-1.508697669E-1,-3.658647857E0,3.662281570E0
7.766108208E0,1.543976662E-1,-1.042939533E-1,-3.841690266E0,3.846205918E0
7.776107208E0,1.112328807E-1,-1.120185638E-1,-4.027582607E0,4.030675200E0
7.786106208E0,5.811279031E-2,-9.844891213E-2,-4.236527011E0,4.238069183E0
7.796105208E0,-8.166040482E-2,-3.212238085E-1,-4.458189109E0,4.470492511E0
7.806103208E0,-1.027586390E-1,-1.465725933E-1,-4.770135725E0,4.773493239E0
7.816102208E0,6.952065323E-2,-1.961413407E-1,-4.946020557E0,4.950396337E0
7.826101208E0,4.073645510E-1,-1.527909610E-1,-5.048540373E0,5.067252792E0
7.836100208E0,1.541236876E-1,-1.012474626E-1,-5.320362811E0,5.323557608E0
7.846099208E0,-4.050821269E-2,-2.382831924E-1,-5.491155303E0,5.496472173E0
7.856098208E0,2.957280479E-2,-2.072001066E-1,-5.649821838E0,5.653697307E0
7.866097208E0,6.098949250E-2,-2.127348069E-1,-5.754605697E0,5.758859483E0
7.876095208E0,2.752987901E-2,-2.653561480E-1,-5.687077957E0,5.693331843E0
7.886094208E0,1.379895934E-1,-3.110243641E-2,-5.651007069E0,5.652777139E0
7.896093208E0,1.572370558E-1,-1.450750848E-1,-5.268993267E0,5.273334839E0
7.906092208E0,1.136533174E-1,-1.305726927E-1,-5.003280585E0,5.006274355E0
7.916091208E0,6.562169328E-2,-1.935534727E-1,-4.654631581E0,4.659116259E0
7.926089208E0,1.026272228E-2,-8.419000167E-2,-4.470797460E0,4.471601862E0
7.936088208E0,2.397957757E-2,-1.327458104E-1,-4.092239948E0,4.094462634E0
7.946087208E0,-3.211217746E-2,-1.418840582E-1,-3.652911154E0,3.655806638E0
7.956086208E0,3.963926163E-2,-2.123018023E-2,-3.352063723E0,3.352365313E0
7.966085208E0,8.508027680E-2,-9.683246763E-2,-2.932203818E0,2.935035674E0
7.976084208E0,5.368876867E-3,-3.431454951E-2,-2.532709765E0,2.532947901E0
7.986083208E0,-7.874956951E-3,-2.009415759E-2,-2.053882445E0,2.053995835E0
7.996081208E0,-5.094565708E-2,-9.574092038E-2,-1.740610265E0,1.743985630E0
8.006080208E0,-7.039353289E-2,-6.851657666E-2,-1.530319247E0,1.533468868E0
8.016079208E0,-2.115961164E-2,-5.018915528E-2,-1.298466622E0,1.299608498E0
8.026078208E0,5.923521817E-3,8.675331138E-3,-1.185326507E0,1.185373054E0
8.036077208E0,2.895638036E-2,-1.275611939E-1,-8.654481429E-1,8.752775664E-1
8.046076208E0,-6.004883995E-2,6.584439911E-2,-6.320997995E-1,6.383506126E-1
8.056074208E0,-1.272330920E-1,-8.890512329E-2,-2.517553782E-1,2.957586028E-1
8.066073208E0,-1.681563473E-1,-1.261349483E-1,-2.049449086E-2,2.112027616E-1
8.076072208E0,6.183987865E-2,8.782876052E-2,1.236493152E-1,1.637901552E-1
8.086071208E0,1.260923550E-1,5.565803781E-2,3.133014160E-1,3.422789454E-1
8.096070208E0,-7.676237499E-2,-8.990755532E-2,3.787206495E-1,3.967431928E-1
8.106069208E0,-1.491082932E-1,5.190931477E-2,3.348524988E-1,3.702081252E-1
8.116067208E0,-5.755005062E-2,1.809146795E-3,3.776582104E-1,3.820222575E-1
8.126066208E0,-6.046198228E-2,3.581615103E-2,2.876748240E-1,2.961338419E-1
8.136065208E0,-1.590488339E-1,-3.815216850E-2,3.149029684E-1,3.548464443E-1
8.146064208E0,2.180662433E-2,3.080347924E-2,4.412180293E-1,4.428292363E-1
8.156063208E0,1.842529098E-1,9.009201670E-2,4.950919354E-1,5.358933949E-1
8.166062208E0,1.116116524E-2,-3.099925132E-2,5.164944988E-1,5.175442904E-1
8.176061208E0,-1.762284834E-1,3.588344883E-3,3.900028521E-1,4.279854895E-1
8.186059208E0,-8.169612765E-2,7.696287967E-3,3.452406621E-1,3.548585703E-1
8.196058208E0,2.115637740E-2,6.258015443E-2,3.054146916E-1,3.124772021E-1
8.206057208E0,-1.452384597E-1,-8.914262988E-4,2.625955313E-1,3.000856843E-1
8.216056208E0,-9.092087779E-2,-4.766178768E-2,3.031570816E-1,3.200663496E-1
8.226055208E0,1.007899637E-1,5.616363924E-2,3.612351358E-1,3.792147076E-1
8.236054208E0,7.841259629E-2,3.599779844E-2,3.787493008E-1,3.884525835E-1
8.246052208E0,-1.245692284E-1,-3.130069356E-2,3.074980545E-1,3.332450744E-1
8.256051208E0,-2.092423929E-1,-1.708996782E-2,1.985270047E-1,2.889418931E-1
8.266050208E0,-3.101626307E-2,-3.568263352E-3,1.685927689E-1,1.714592162E-1
8.276049208E0,7.228360880E-2,4.826723032E-2,9.270000279E-2,1.270745299E-1
8.286048208E0,-4.460585006E-2,-5.819693539E-2,6.830015659E-2,1.002071681E-1
8.296047208E0,-1.486871201E-1,-6.019609842E-2,9.913895667E-2,1.885734941E-1
8.306045208E0,-5.822375036E-2,-6.669032676E-2,1.150141472E-1,1.451408242E-1
8.316044208E0,5.279295696E-2,4.623002384E-2,1.208566850E-1,1.397521010E-1
8.326043208E0,-6.230948316E-2,5.400671102E-3,3.253566206E-2,7.049970387E-2
8.336042208E0,-1.636977723E-1,-1.073485571E-1,-2.119557202E-2,1.969008015E-1
8.346041208E0,-7.820517546E-2,-1.288344434E-2,-5.142918527E-2,9.448276935E-2
8.356040208E0,6.373934666E-2,-2.587942930E-2,3.300168514E-2,7.629915069E-2
8.366038208E0,2.757861190E-2,2.481443206E-2,9.273274720E-2,9.987841746E-2
8.376037208E0,-1.245131865E-1,-3.112898642E-2,1.397437763E-1,1.897389534E-1
8.386036208E0,-2.041541823E-1,2.829478618E-2,5.710449278E-2,2.138701667E-1
8.396035208E0,2.406165786E-2,-6.436863497E-2,1.041143525E-1,1.247480779E-1
8.406034208E0,6.491706725E-2,6.078988317E-2,-5.948664844E-2,1.069967142E-1
8.416033208E0,1.741045006E-3,1.057945864E-2,-7.893156409E-2,7.965643724E-2
8.426031208E0,-1.898773465E-1,-3.684182575E-2,-1.287679678E-1,2.323616069E-1
8.436030208E0,-9.970346879E-2,-2.723828567E-2,-4.852253437E-2,1.141803058E-1
8.446029208E0,9.883073531E-3,4.228779450E-2,3.201993763E-2,5.395562169E-2
8.456028208E0,1.254926317E-1,8.174988549E-2,6.706463993E-2,1.641009150E-1
8.466027208E0,-3.970825877E-2,1.450082073E-2,6.020000875E-2,7.355991211E-2
8.476026208E0,-1.210101379E-1,-4.000973755E-2,5.527899206E-2,1.389244382E-1
8.486025208E0,-1.486282916E-1,3.498208227E-2,-4.634210765E-2,1.595672463E-1
8.496023208E0,-4.066170210E-2,-3.406039663E-2,3.107093453E-2,6.147265741E-2
8.506022208E0,6.657811504E-2,7.503545467E-2,5.444634855E-2,1.141375036E-1
8.516021208E0,7.077820659E-2,6.917669076E-2,9.742572248E-2,1.388767096E-1
8.526020208E0,-5.677337592E-2,-2.011133378E-2,1.366617090E-1,1.493455880E-1
8.536019208E0,-6.336450359E-2,-3.930540388E-2,8.787663460E-2,1.152487657E-1
8.546017208E0,-3.232839653E-2,1.267495455E-2,5.899723649E-2,6.845767750E-2
8.556016208E0,3.211111765E-2,7.349672332E-2,4.388335347E-2,9.142560324E-2
8.566015208E0,5.311356710E-2,1.642619921E-2,1.277125454E-1,1.392887838E-1
8.576014208E0,-8.903102115E-2,1.747617641E-2,1.048031545E-1,1.386204915E-1
8.586013208E0,-1.372332926E-1,-1.234388155E-1,1.679741335E-1,2.495704856E-1
8.596012208E0,-1.428320381E-1,-5.333141243E-2,9.956814229E-2,1.820962537E-1
8.606011208E0,-9.896028768E-3,-4.888418466E-3,6.872641861E-2,6.960710191E-2
8.616009208E0,2.933847763E-2,5.775018984E-2,7.648976684E-2,1.002323058E-1
8.626008208E0,4.529980492E-2,1.554549890E-2,1.863396531E-1,1.923959490E-1
8.636007208E0,-4.837746860E-2,-5.355663987E-2,1.927639890E-1,2.058316025E-1
8.646006208E0,-7.499527333E-2,-4.899639638E-2,2.325671554E-1,2.492236338E-1
8.656005208E0,-1.819656983E-1,-5.858466061E-2,2.788092756E-1,3.380507210E-1
8.666004208E0,-1.306278392E-1,-4.279502219E-2,2.612857550E-1,2.952376874E-1
8.676002208E0,-1.250239591E-1,-1.112959027E-2,1.364319134E-1,1.853874999E-1
8.686001208E0,-3.892098600E-2,-2.853748217E-2,1.037869084E-1,1.144593963E-1
8.696000208E0,-3.139669754E-2,-2.881094914E-2,6.844575226E-2,8.062657384E-2
8.705999208E0,4.070031200E-2,1.966555668E-2,1.515235770E-1,1.581222435E-1
8.715998208E0,2.118267160E-2,6.355539691E-3,2.334021378E-1,2.344475557E-1
8.725997208E0,-5.590902954E-2,-3.718940618E-2,2.724679703E-1,2.806201460E-1
8.735995208E0,-1.674936934E-1,-4.613330724E-2,2.326437539E-1,2.903541554E-1
8.745994208E0,-6.548448471E-2,-8.441369422E-3,1.922225368E-1,2.032461023E-1
8.755993583E0,2.626185548E-2,4.939333096E-2,1.293369019E-1,1.409163596E-1
8.765992583E0,5.005094172E-2,1.267140968E-2,1.763321435E-1,1.837353701E-1
8.775991583E0,-7.130827496E-2,-3.146624286E-2,2.019248217E-1,2.164454392E-1
8.785990583E0,-1.323674407E-2,7.389886558E-2,2.306533617E-1,2.425638617E-1
8.795989583E0,-4.456332983E-2,3.387432726E-2,3.080307359E-1,3.130755414E-1
8.805987583E0,-8.123204146E-2,2.194461862E-2,3.387093222E-1,3.490046071E-1
8.815986583E0,-1.054945512E-2,3.671347937E-2,2.131228244E-1,2.165190727E-1
8.825985583E0,1.674057841E-3,3.129027821E-3,7.122493386E-2,7.131328410E-2
8.835984583E0,-3.779188866E-2,6.696399473E-2,4.563108623E-2,8.941252412E-2
8.845983583E0,-9.376403159E-2,-3.804923924E-2,8.724630475E-2,1.336089665E-1
8.855982583E0,-9.251080882E-2,9.557328802E-3,9.279063463E-2,1.313761552E-1
8.865980583E0,-2.059946666E-2,6.175542293E-2,2.023616087E-1,2.125753772E-1
8.875979583E0,4.862769289E-2,7.307192311E-4,3.337964916E-1,3.373207439E-1
8.885978583E0,3.464939397E-2,5.878595101E-2,2.136017114E-1,2.242366153E-1
8.895977583E0,-8.502233455E-2,-9.634219687E-3,9.639778197E-2,1.288958802E-1
8.905976583E0,-1.779311195E-1,-6.449752953E-2,6.302012086E-2,1.994766909E-1
8.915975583E0,-8.758273892E-2,-3.081966871E-2,-7.559046507E-2,1.197267996E-1
8.925973583E0,3.129579652E-2,7.475098763E-3,-9.894015133E-2,1.040406532E-1
8.935972583E0,3.000937253E-2,-2.107086187E-2,2.861218035E-2,4.651021957E-2
8.945971583E0,-1.047865630E-1,-4.968640437E-2,2.967988193E-2,1.197073847E-1
8.955970583E0,-1.284459507E-1,-8.552667517E-3,-3.123582602E-2,1.324657963E-1
8.965969583E0,-1.467806628E-1,-9.347541668E-2,-1.733114719E-3,1.740264928E-1
8.975968583E0,-9.457246397E-2,-6.271166196E-2,-2.312339902E-2,1.158075778E-1
8.985966583E0,-4.858341850E-3,1.921961512E-2,3.077097237E-2,3.660395924E-2
8.995965583E0,5.535533477E-2,3.676361924E-2,1.824109089E-1,1.941378801E-1
9.005964583E0,-5.631674493E-2,-3.569372496E-2,3.056105733E-1,3.127993610E-1
9.015963583E0,-1.388338034E-1,1.465642976E-2,3.222160810E-1,3.511592783E-1
9.025962583E0,-7.094973100E-2,-5.214978151E-2,3.623402596E-1,3.728859447E-1
9.035961583E0,-1.133499748E-1,-2.705079105E-2,2.378021675E-1,2.648203787E-1
9.045959583E0,-2.710219173E-2,-5.305836573E-3,2.774708480E-1,2.788418049E-1
9.055958583E0,-5.515106594E-2,-3.779853987E-2,3.648966622E-1,3.709716213E-1
9.065957583E0,1.120701106E-2,4.610370571E-2,3.580133200E-1,3.611435809E-1
9.075956583E0,2.987903444E-2,1.733414389E-2,3.695340890E-1,3.711450824E-1
9.085955583E0,-2.660611030E-2,4.118259765E-2,4.002103364E-1,4.032024366E-1
9.095954583E0,-6.543542292E-2,-2.795475231E-2,5.030383015E-1,5.080460565E-1
9.105952583E0,-6.668784169E-2,3.646212218E-2,5.501656902E-1,5.553908905E-1
9.115951583E0,-1.123039993E-2,5.670277080E-2,7.113611466E-1,7.137058266E-1
9.125950583E0,-3.085376529E-2,2.426875893E-2,8.044447267E-1,8.054019157E-1
9.135949583E0,-4.600706220E-2,5.138794413E-2,8.155006421E-1,8.184122847E-1
9.145948583E0,-6.853901535E-2,-4.993887618E-3,8.813543236E-1,8.840293996E-1
9.155947583E0,-1.219144464E-1,1.020350095E-2,9.111289304E-1,9.193058096E-1
9.165946583E0,-2.934951425E-2,5.326934058E-2,1.032366854E0,1.034156825E0
9.175944583E0,-4.403412027E-2,3.157644460E-2,1.186985362E0,1.188221497E0
9.185943583E0,-4.060196914E-2,8.019618893E-2,1.348191928E0,1.351185192E0
9.195942583E0,-7.645501245E-2,3.770555086E-2,1.537839351E0,1.540200295E0
9.205941583E0,-1.115344691E-1,5.047897618E-2,1.658327662E0,1.662840551E0
9.215940583E0,-9.822995218E-2,6.549088011E-2,1.785404615E0,1.789303724E0
9.225939583E0,-7.004991760E-2,3.837560523E-2,1.918921691E0,1.920583280E0
9.235937583E0,-6.931702394E-2,8.107179120E-2,2.023997911E0,2.026806608E0
9.245936583E0,-1.086492519E-1,5.690199640E-3,2.139112045E0,2.141877069E0
9.255935583E0,-1.202639053E-1,5.379902523E-2,2.146892350E0,2.150931079E0
9.265934583E0,-9.913352972E-2,5.464520870E-2,2.219640484E0,2.222525013E0
9.275933583E0,-6.872482890E-2,3.127891269E-2,2.297332438E0,2.298572993E0
9.285932583E0,-8.406037621E-2,8.483186150E-2,2.290002369E0,2.293114354E0
9.295930583E0,-1.352835385E-1,2.313385092E-2,2.401676586E0,2.405594986E0
9.305929583E0,-1.404017160E-1,9.180610970E-2,2.526823373E0,2.532385706E0
9.315928583E0,-8.016640468E-2,3.164140351E-2,2.728770999E0,2.730131681E0
9.325927583E0,-6.552903319E-2,9.539344959E-2,2.831616506E0,2.833980593E0
9.335926583E0,-1.451471335E-1,5.891455321E-2,2.924136999E0,2.928329866E0
9.345925583E0,-1.685291622E-1,8.896593433E-3,2.994364398E0,2.999116433E0
9.355923583E0,-1.575853672E-1,7.124525294E-2,3.076261085E0,3.081118514E0
9.365922583E0,-7.805371430E-2,5.944873290E-2,3.180166692E0,3.181679859E0
9.375921583E0,-7.818405239E-2,1.141837146E-1,3.194859576E0,3.197855277E0
9.385920583E0,-1.190392060E-1,5.284106858E-2,3.174818829E0,3.177489120E0
9.395919583E0,-1.157970711E-1,8.446348691E-2,3.136062899E0,3.139336482E0
9.405918583E0,-9.671327580E-2,6.702575594E-2,3.172451291E0,3.174632751E0
9.415917583E0,-8.957035370E-2,1.182258948E-1,3.186375266E0,3.189825629E0
9.425915583E0,-5.685033990E-2,7.844138470E-2,3.195367699E0,3.196835895E0
9.435914583E0,-4.472420136E-2,1.537540339E-1,3.096122323E0,3.100260311E0
9.445913583E0,-6.593155917E-2,8.701062541E-2,3.089534265E0,3.091462404E0
9.455912583E0,-8.635129703E-2,1.085620919E-1,2.944928529E0,2.948193737E0
9.465911583E0,-8.000206137E-2,1.068023540E-1,2.862892678E0,2.866000969E0
9.475910583E0,-1.085790305E-1,9.513843790E-2,2.798217795E0,2.801939249E0
9.485908583E0,-1.274306365E-1,8.158239931E-2,2.782194670E0,2.786306056E0
9.495907583E0,-1.694033757E-1,7.957938077E-2,2.718565854E0,2.725001043E0
9.505906583E0,-1.513222866E-1,9.469452459E-2,2.694599286E0,2.700505657E0
9.515905583E0,-9.694232220E-2,6.826724773E-2,2.609250988E0,2.611943519E0
9.525904583E0,-8.752592957E-2,8.632326694E-2,2.481246666E0,2.484290143E0
9.535903583E0,-5.118373012E-2,4.759375898E-2,2.360283562E0,2.361318156E0
9.545901583E0,-1.150975613E-1,1.156506531E-1,2.142015188E0,2.148220563E0
9.555900583E0,-1.799813177E-1,-4.307846596E-2,2.032426087E0,2.040834346E0
9.565899583E0,-1.804449289E-1,3.410699163E-2,1.899042912E0,1.907901371E0
9.575898583E0,-6.574662270E-2,3.728760285E-2,1.802483747E0,1.804067804E0
9.585897583E0,3.234058432E-2,9.194129001E-2,1.685119604E0,1.687935779E0
9.595896583E0,-1.049073811E-1,5.505793076E-3,1.455640948E0,1.459426751E0
9.605894583E0,-1.844281983E-1,-3.725580862E-2,1.365682120E0,1.378582391E0
9.615893583E0,-1.098933567E-1,4.114554092E-2,1.158664958E0,1.164591770E0
9.625892583E0,1.271250464E-2,3.064288180E-3,1.020666575E0,1.020750340E0
9.635891583E0,1.424107645E-2,8.385778846E-2,7.304207307E-1,7.353566351E-1
9.645890583E0,-8.882390181E-2,-1.623349691E-2,5.523127878E-1,5.596450907E-1
9.655889583E0,-1.487437924E-1,-1.138264863E-1,3.060906297E-1,3.588490746E-1
9.665887583E0,-3.816311376E-2,1.113514147E-1,1.303607494E-1,1.756402169E-1
9.675886583E0,-2.115688903E-2,-1.263109678E-1,1.001388305E-1,1.625726297E-1
9.685885583E0,5.267626846E-2,6.678952843E-2,-1.480269420E-1,1.707266995E-1
9.695884583E0,-2.449638007E-2,-2.550972082E-2,-3.132663327E-1,3.152564254E-1
9.705883583E0,-6.930090755E-2,-5.695509642E-2,-4.491556245E-1,4.580254074E-1
9.715882583E0,-5.427184571E-2,-2.374892319E-2,-7.145344305E-1,7.169859810E-1
9.725881583E0,-7.090732042E-2,-4.145664934E-2,-9.017967743E-1,9.055296373E-1
9.735879583E0,4.400921479E-2,-1.059323614E-2,-1.077528409E0,1.078478789E0
9.745878583E0,4.770310191E-2,-7.987771668E-3,-1.211950634E0,1.212915385E0
9.755877125E0,3.710610162E-2,3.142951503E-3,-1.281237216E0,1.281778274E0
9.765876125E0,7.380410414E-3,1.520617766E-2,-1.471492749E0,1.471589824E0
9.775875125E0,-2.168865675E-2,-1.459973369E-1,-1.410107510E0,1.417811275E0
9.785874125E0,-4.684843998E-3,4.000960965E-2,-1.592278098E0,1.592787575E0
9.795872125E0,-6.283476412E-2,-4.179637257E-2,-1.588082137E0,1.589874214E0
9.805871125E0,-4.511163421E-3,-1.180811580E-1,-1.543463203E0,1.547980029E0
9.815870125E0,-4.446787404E-2,1.756242285E-2,-1.656346625E0,1.657036503E0
9.825869125E0,3.352153916E-2,-1.145647886E-1,-1.562046824E0,1.566601119E0
9.835868125E0,5.849792082E-2,4.129583264E-2,-1.695133545E0,1.696645246E0
9.845867125E0,2.366693426E-2,-7.769612052E-2,-1.701726866E0,1.703664033E0
9.855865125E0,-1.863690354E-2,-4.662419926E-2,-1.860708566E0,1.861385913E0
9.865864125E0,-1.481208081E-1,-1.377094935E-1,-1.989306380E0,1.999560840E0
9.875863125E0,-1.026963661E-1,-7.427259402E-2,-2.197095374E0,2.200747838E0
9.885862125E0,-7.975532714E-2,-1.724761424E-1,-2.213720178E0,2.221860922E0
9.895861125E0,2.751051011E-2,-3.220642727E-2,-2.354737478E0,2.355118399E0
9.905860125E0,1.264273274E-1,-5.643231880E-2,-2.414620568E0,2.418586563E0
9.915858125E0,7.299826646E-2,-4.803387159E-2,-2.539469731E0,2.540972750E0
9.925857125E0,-5.655079801E-2,-1.376078615E-1,-2.601743748E0,2.605993946E0
9.935856125E0,-8.939340234E-2,-1.297526207E-1,-2.733623019E0,2.738160282E0
9.945855125E0,-2.120732127E-2,-1.354932160E-1,-2.852176486E0,2.855471742E0
9.955854125E0,1.093116501E-1,-5.538383994E-2,-3.016540548E0,3.019028533E0
9.965853125E0,9.101039501E-2,-8.600548904E-2,-3.181354262E0,3.183817641E0
9.975851125E0,-9.595280886E-3,-1.511910349E-1,-3.358592139E0,3.362007132E0
9.985850125E0,-6.006413408E-2,-1.567131636E-1,-3.505750185E0,3.509765102E0
9.995849125E0,7.027357360E-2,-1.056390870E-1,-3.727742066E0,3.729900656E0
1.000584813E1,1.730694886E-1,-9.965460800E-2,-4.014552087E0,4.019516457E0
1.001584713E1,1.123751891E-1,-8.797245584E-2,-4.337586778E0,4.339933916E0
1.002584613E1,-1.448421098E-2,-1.550046620E-1,-4.622598195E0,4.625218947E0
1.003584512E1,-4.167809436E-2,-1.649435033E-1,-4.869296317E0,4.872267443E0
1.004584313E1,2.195940111E-2,-1.541787793E-1,-4.973479666E0,4.975917333E0
1.005584213E1,2.196911662E-1,-8.908304309E-2,-5.091430285E0,5.096946374E0
1.006584113E1,1.687382915E-1,-8.409545951E-2,-5.152201567E0,5.155649876E0
1.007584013E1,-5.526541555E-2,-1.978921798E-1,-5.080194860E0,5.084348080E0
1.008583912E1,3.542352878E-3,-1.774202373E-1,-4.914179544E0,4.917382543E0
1.009583812E1,6.639301412E-2,-1.106057851E-1,-4.630665014E0,4.632461564E0
1.010583613E1,1.322053997E-1,-6.101682823E-2,-4.387567608E0,4.389983011E0
1.011583513E1,3.960845411E-2,-1.411286711E-1,-4.231739311E0,4.234277238E0
1.012583412E1,-7.188311107E-2,-1.759543586E-1,-4.132503290E0,4.136872075E0
1.013583312E1,-7.048727106E-3,-1.666508355E-1,-3.782229930E0,3.785906156E0
1.014583212E1,2.960299104E-2,-1.100723546E-1,-3.353663521E0,3.355599987E0
1.015583112E1,-2.656792067E-3,-6.806317991E-2,-3.047102190E0,3.047863418E0
1.016582913E1,-2.775938222E-2,-1.499521378E-1,-2.768830274E0,2.773026742E0
1.017582812E1,-6.352985188E-2,-1.265598399E-1,-2.621986808E0,2.625808115E0
1.018582712E1,-3.121204429E-2,-1.120497367E-1,-2.470660282E0,2.473396767E0
1.019582612E1,5.259983439E-2,-6.850111809E-2,-2.356006908E0,2.357589383E0
1.020582512E1,7.390816631E-3,-1.137875292E-1,-2.215010659E0,2.217943742E0
1.021582412E1,-8.164615223E-2,-1.095888812E-1,-1.992878444E0,1.997558587E0
1.022582312E1,-5.827721584E-2,-7.676877039E-2,-1.742456816E0,1.745120464E0
1.023582112E1,1.135341986E-2,-2.160730736E-2,-1.520783608E0,1.520979473E0
1.024582012E1,7.620466026E-2,-5.795603011E-2,-1.327693929E0,1.331141323E0
1.025581912E1,-3.068528325E-2,-4.342069253E-3,-1.348503000E0,1.348859067E0
1.026581812E1,-5.427548194E-2,-1.194861525E-1,-1.273804820E0,1.280547339E0
1.027581712E1,-3.803579978E-2,-3.678812273E-4,-1.140588875E0,1.141222958E0
1.028581612E1,3.330423287E-2,-6.420297604E-3,-8.840177304E-1,8.846681523E-1
1.029581412E1,3.809819140E-2,1.117097760E-2,-8.533332968E-1,8.542563891E-1
1.030581312E1,-1.273380130E-2,-1.876784462E-2,-8.603704208E-1,8.606692993E-1
1.031581212E1,-6.463674808E-2,2.532176938E-2,-8.258005124E-1,8.287132119E-1
1.032581112E1,-7.372508450E-2,1.014579624E-2,-6.578544456E-1,6.620504489E-1
1.033581012E1,-5.573071687E-2,-1.440002935E-2,-4.972396177E-1,5.005601972E-1
1.034580912E1,9.247174211E-2,4.259228826E-2,-3.822833580E-1,3.956080028E-1
1.035580712E1,8.994647585E-2,3.720926844E-2,-3.589377648E-1,3.719021607E-1
1.036580612E1,-1.040271650E-1,-1.828744104E-2,-3.388882470E-1,3.549666541E-1
1.037580512E1,-1.922712697E-1,-3.830808816E-2,-2.661465454E-1,3.305597289E-1
1.038580412E1,-2.518477094E-2,-3.685874613E-2,-2.019312537E-1,2.068068448E-1
1.039580312E1,1.079789874E-1,4.713292530E-2,-1.423516345E-1,1.847835551E-1
1.040580212E1,-7.035169789E-2,-1.689408610E-2,-1.791680431E-1,1.932251516E-1
1.041580012E1,-2.063001836E-1,-7.606887694E-2,-1.610516149E-1,2.725506603E-1
1.042579912E1,-1.401638074E-1,-5.381684097E-2,-3.320692241E-2,1.537688036E-1
1.043579812E1,5.104437453E-2,2.203031687E-2,1.185581446E-2,5.684560993E-2
1.044579712E1,5.038671808E-2,2.154404780E-2,3.087095976E-2,6.289660970E-2
1.045579612E1,-1.665794264E-1,-1.022729729E-1,5.632505894E-2,2.034231514E-1
1.046579512E1,-1.889423219E-1,-6.011074735E-2,5.678231120E-2,2.062443546E-1
1.047579412E1,-7.201946083E-2,-7.088652626E-4,6.740085483E-2,9.864167710E-2
1.048579212E1,1.341353646E-1,-2.902773466E-2,1.048230350E-1,1.726927158E-1
1.049579112E1,-5.841092521E-2,-4.142478202E-3,3.477280676E-2,6.810392353E-2
1.050579012E1,-2.371568907E-1,-7.116503645E-2,6.396093786E-2,2.557319980E-1
1.051578912E1,-1.004240559E-1,-7.163820410E-2,1.834154606E-1,2.210390338E-1
1.052578812E1,3.477560246E-2,2.765890148E-2,3.036190116E-1,3.068531596E-1
1.053578713E1,4.827691477E-2,6.079627857E-2,3.137978446E-1,3.232583105E-1
1.054578512E1,-8.845692507E-2,-6.210132228E-2,3.075167656E-1,3.259566888E-1
1.055578412E1,-1.476155447E-1,8.790612649E-3,3.129043901E-1,3.460878230E-1
1.056578312E1,-3.999168428E-2,-2.510187753E-2,3.599078178E-1,3.629918407E-1
1.057578213E1,1.709000437E-2,4.811421599E-2,4.055734026E-1,4.087747925E-1
1.058578113E1,3.824841002E-2,5.306739237E-2,4.871613568E-1,4.915335966E-1
1.059578013E1,-7.901481383E-2,2.062952500E-3,5.471958894E-1,5.528751558E-1
1.060577812E1,-1.525342317E-1,-2.131527549E-2,6.721964961E-1,6.896152276E-1
1.061577713E1,-7.259414163E-2,7.065515924E-2,7.504918832E-1,7.572979121E-1
1.062577613E1,7.821908087E-2,7.691887937E-2,7.496019369E-1,7.575868283E-1
1.063577513E1,-7.650606595E-3,6.911829170E-2,6.386843491E-1,6.424590008E-1
1.064577413E1,-7.109154426E-2,-7.793223839E-3,4.809212083E-1,4.862097804E-1
1.065577313E1,-1.087911200E-1,2.579610648E-2,2.697004831E-1,2.919576981E-1
1.066577113E1,-1.012372665E-1,-9.672171772E-3,3.436449569E-1,3.583774428E-1
1.067577013E1,-6.011469422E-2,3.919474533E-2,5.789550412E-1,5.833857594E-1
1.068576913E1,4.036300074E-2,1.259284685E-1,7.810359836E-1,7.921517270E-1
1.069576813E1,-3.728162773E-2,1.509582974E-2,9.153114438E-1,9.161947626E-1
1.070576713E1,-1.405828700E-1,3.610513140E-2,9.221936166E-1,9.335460302E-1
1.071576613E1,-1.490277843E-1,-2.509447714E-2,9.913515598E-1,1.002804531E0
1.072576513E1,-1.141073171E-1,4.438566584E-3,1.090891051E0,1.096851615E0
1.073576313E1,-2.848094691E-2,3.436960470E-2,1.062298751E0,1.063236131E0
1.074576213E1,3.131768703E-2,1.131037887E-2,9.748863852E-1,9.754548612E-1
1.075576075E1,-1.158988492E-1,2.378291013E-2,9.060278195E-1,9.137201868E-1
1.076575975E1,-1.397571701E-1,-4.138567876E-2,8.561803061E-1,8.684984499E-1
1.077575875E1,-1.383504945E-1,-1.278608819E-2,7.798285335E-1,7.921091371E-1
1.078575775E1,-1.276461795E-1,-7.148385588E-3,7.700876570E-1,7.806277256E-1
1.079575575E1,-7.920116642E-2,-2.081088005E-2,8.738219404E-1,8.776506714E-1
1.080575475E1,5.507611195E-3,2.542270694E-2,9.354808295E-1,9.358424174E-1
1.081575375E1,-1.596690042E-2,6.757645402E-2,1.010604687E0,1.012987340E0
1.082575275E1,-1.054673159E-1,-8.302978618E-2,1.073917168E0,1.082273249E0
1.083575175E1,-1.323880064E-1,-2.430921435E-2,9.225660843E-1,9.323334715E-1
1.084575075E1,-9.881804503E-2,2.191209348E-2,8.589325905E-1,8.648759107E-1
1.085574875E1,-2.026453083E-3,-2.157385033E-2,8.741932386E-1,8.744617521E-1
1.086574775E1,1.114298405E-2,6.199161390E-2,7.816844398E-1,7.842178841E-1
1.087574675E1,-1.147820310E-1,-2.927867157E-2,6.716632301E-1,6.820290682E-1
1.088574575E1,-9.433396152E-2,3.280171037E-2,6.439667237E-1,6.516655505E-1
1.089574475E1,-2.370645778E-2,1.698429767E-2,7.816844398E-1,7.822282441E-1
1.090574375E1,-3.674262408E-3,4.546977617E-2,8.644605482E-1,8.656633526E-1
1.091574175E1,-4.502082878E-2,5.272364918E-2,9.779245985E-1,9.803790994E-1
1.092574075E1,-1.175449317E-1,-2.411360672E-2,1.081960014E0,1.088593472E0
1.093573975E1,-1.284002510E-1,5.206220118E-2,9.973788697E-1,1.006956656E0
1.094573875E1,-3.362817775E-2,5.003160937E-2,9.641356945E-1,9.660184541E-1
1.095573775E1,4.574359945E-2,3.497537624E-2,1.019669040E0,1.021293643E0
1.096573675E1,-9.850904709E-2,8.446867632E-2,1.008588567E0,1.016902103E0
1.097573475E1,-1.767268123E-1,1.817972437E-2,1.053790467E0,1.068661414E0
1.098573375E1,-9.372543996E-2,4.003038554E-2,1.135970160E0,1.140532811E0
1.099573275E1,7.802067753E-3,8.776917374E-2,1.191661381E0,1.194914702E0
1.100573175E1,-1.936152888E-2,7.445075138E-2,1.318004508E0,1.320247578E0
1.101573075E1,-1.392709833E-1,1.944860671E-2,1.619182307E0,1.625277207E0
1.102572975E1,-2.019356574E-1,1.715735698E-2,1.883239058E0,1.894112387E0
1.103572875E1,-3.389865716E-2,8.073839027E-2,2.027693351E0,2.029583241E0
1.104572675E1,1.546113454E-2,9.142797757E-2,2.069760559E0,2.071836599E0
1.105572575E1,-1.441717905E-1,2.801812151E-2,2.082340844E0,2.087513811E0
1.106572475E1,-2.219606351E-1,2.308608647E-2,2.125461720E0,2.137144594E0
1.107572375E1,-1.214023673E-1,1.576221133E-2,2.259591585E0,2.262905458E0
1.108572275E1,1.091748253E-3,7.526150437E-2,2.408391529E0,2.409567439E0
1.109572175E1,-5.525574024E-2,8.004030582E-2,2.511828774E0,2.513711088E0
1.110571975E1,-1.641120110E-1,9.022966381E-3,2.628288352E0,2.633422456E0
1.111571875E1,-1.536288487E-1,2.597066414E-2,2.765703768E0,2.770089101E0
1.112571775E1,-1.077251360E-1,5.785282675E-2,2.860760198E0,2.863372237E0
1.113571675E1,2.156508864E-2,7.866131309E-2,2.872145312E0,2.873303212E0
1.114571575E1,-1.076021801E-1,7.429791978E-2,2.810784631E0,2.813824559E0
1.115571475E1,-2.048311072E-1,1.136336926E-2,2.811541845E0,2.819016221E0
1.116571275E1,-2.336050544E-1,5.263449742E-2,2.876953477E0,2.886901977E0
1.117571175E1,-1.136102855E-1,3.722182168E-2,3.045657343E0,3.048002857E0
1.118571075E1,3.339841872E-2,1.257079737E-1,3.128139337E0,3.130842324E0
1.119570975E1,-8.325064648E-3,1.150460145E-1,3.207780168E0,3.209853345E0
1.120570875E1,-1.235186574E-1,6.441723995E-2,3.271254618E0,3.274219481E0
1.121570775E1,-2.089204488E-1,8.773365190E-2,3.263618739E0,3.271475542E0
1.122570575E1,-2.107414362E-1,6.637945589E-2,3.355078547E0,3.362345943E0
1.123570475E1,-1.479075218E-1,8.081825959E-2,3.462108906E0,3.466209212E0
1.124570375E1,-7.906472529E-2,1.492416462E-1,3.528122801E0,3.532162907E0
1.125570275E1,-1.047671119E-1,1.064254827E-1,3.605068066E0,3.608159959E0
1.126570175E1,-1.310753522E-1,1.168623789E-1,3.623779156E0,3.628031551E0
1.127570075E1,-1.578383689E-1,1.301608111E-1,3.620331638E0,3.626107549E0
1.128569975E1,-1.429410887E-1,9.537833819E-2,3.613294514E0,3.617378391E0
1.129569775E1,-1.310994537E-1,1.323979741E-1,3.582603064E0,3.587444913E0
1.130569675E1,-1.085953479E-1,1.322739218E-1,3.525572246E0,3.529723644E0
1.131569575E1,-1.335658001E-1,1.126364500E-1,3.465248861E0,3.469650769E0
1.132569475E1,-1.626579547E-1,1.101486973E-1,3.364204296E0,3.369934850E0
1.133569375E1,-1.454836499E-1,7.161028365E-2,3.289963953E0,3.293957550E0
1.134569275E1,-7.514653349E-2,1.252555637E-1,3.164069892E0,3.167439698E0
1.135569075E1,-8.227544054E-2,9.008960472E-2,3.094313779E0,3.096718125E0
1.136568975E1,-9.366958992E-2,7.941942288E-2,2.898066604E0,2.900667419E0
1.137568875E1,-1.393819068E-1,6.389104536E-2,2.737448852E0,2.741739521E0
1.138568775E1,-1.111164846E-1,4.707087172E-2,2.581766735E0,2.584585463E0
1.139568675E1,-1.002713705E-1,7.145226264E-2,2.493902965E0,2.496940482E0
1.140568575E1,-8.068790322E-2,8.927985672E-3,2.332690551E0,2.334102709E0
1.141568375E1,-7.008661802E-2,8.144835189E-2,2.187043426E0,2.189681464E0
1.142568275E1,-7.875092167E-2,-6.267027464E-3,1.998286534E0,1.999847508E0
1.143568175E1,-8.683466077E-2,6.156982865E-2,1.838417811E0,1.841496986E0
1.144568075E1,-8.099621594E-2,-2.906778809E-3,1.682590683E0,1.684541553E0
1.145567975E1,-8.009338757E-2,2.350434512E-2,1.542936369E0,1.545192559E0
1.146567875E1,-5.525303590E-2,3.778013941E-3,1.338163369E0,1.339308916E0
1.147567675E1,-7.842101080E-2,2.481245862E-2,1.064682661E0,1.067855178E0
1.148567575E1,-1.114728450E-1,-7.023039557E-2,8.187563717E-1,8.292891534E-1
1.149567475E1,-8.056549542E-2,5.993142055E-2,4.765667868E-1,4.870302624E-1
1.150567375E1,-6.815162818E-2,-7.245038236E-2,2.719557542E-1,2.895749204E-1
1.151567275E1,-3.221242066E-2,-9.412080310E-3,-7.055250406E-3,3.429291267E-2
1.152567175E1,1.704928399E-2,8.334917206E-2,-2.736450148E-1,2.865647513E-1
1.153567075E1,-8.330491595E-2,-1.211035289E-1,-4.429359412E-1,4.666883561E-1
1.154566875E1,-6.370886805E-2,8.742700199E-2,-7.050391370E-1,7.132899027E-1
1.155566775E1,-8.483286649E-2,-9.680480300E-2,-7.550281531E-1,7.659212081E-1
1.156566675E1,-2.523857446E-2,3.060103767E-3,-9.900289196E-1,9.903552956E-1
1.157566575E1,-3.853386378E-2,-1.692191519E-2,-1.252135624E0,1.252842700E0
1.158566475E1,-1.851338111E-3,-3.622021191E-2,-1.329217129E0,1.329711813E0
1.159566375E1,-1.404678443E-2,1.559244107E-2,-1.608995288E0,1.609132149E0
1.160566175E1,2.715172861E-2,-5.752569331E-2,-1.722756377E0,1.723930380E0
1.161566075E1,3.971977048E-3,1.772545053E-2,-1.994753646E0,1.994836354E0
1.162565975E1,3.372747079E-4,-9.383805368E-2,-2.021991731E0,2.024168040E0
1.163565875E1,-1.353045702E-2,-4.869451560E-4,-2.255807852E0,2.255848482E0
1.164565775E1,-5.077685528E-3,-9.176600145E-2,-2.258944883E0,2.260813740E0
1.165565675E1,-3.343722962E-2,-6.611605709E-2,-2.428258029E0,2.429388078E0
1.166565475E1,-1.034760741E-2,-9.662922207E-2,-2.414194890E0,2.416150088E0
1.167565375E1,1.807473030E-2,-6.475857116E-2,-2.466878888E0,2.467794930E0
1.168565275E1,2.818267495E-2,-8.719457516E-2,-2.512384259E0,2.514054857E0
1.169565175E1,2.130255779E-2,-1.053265168E-1,-2.603995510E0,2.606211828E0
1.170565075E1,2.680520799E-2,-9.361871000E-2,-2.692768523E0,2.694528772E0
1.171564975E1,3.063965670E-2,-8.128422786E-2,-2.775104336E0,2.776463576E0
1.172564775E1,6.919485368E-3,-1.412271236E-1,-2.841877200E0,2.845392591E0
1.173564675E1,-4.939694893E-2,-1.589571057E-1,-2.945759418E0,2.950458603E0
1.174564575E1,1.476124110E-2,-8.563132206E-2,-3.141116647E0,3.142318317E0
1.175564550E1,2.756019317E-2,-1.760234836E-1,-3.174201947E0,3.179198301E0
1.176564450E1,6.230227464E-2,-4.660207121E-2,-3.376735464E0,3.377631674E0
1.177564350E1,3.206558246E-4,-1.608838729E-1,-3.484814814E0,3.488526624E0
1.178564150E1,2.230639681E-3,-1.170007387E-1,-3.722378415E0,3.724217396E0
1.179564050E1,1.566934110E-2,-1.585869952E-1,-3.936139755E0,3.939364357E0
1.180563950E1,4.000736212E-2,-1.304371834E-1,-4.132834243E0,4.135085649E0
1.181563850E1,7.994446630E-2,-9.413140118E-2,-4.330273665E0,4.332034378E0
1.182563750E1,3.053140098E-2,-1.386950416E-1,-4.509749857E0,4.511985400E0
1.183563650E1,5.557577480E-3,-1.609662090E-1,-4.632194061E0,4.634993293E0
1.184563550E1,2.624376565E-2,-1.326822950E-1,-4.812870101E0,4.814770185E0
1.185563350E1,7.385759703E-2,-1.195417741E-1,-4.924992215E0,4.926996397E0
1.186563250E1,7.381884095E-2,-1.140728185E-1,-5.015109503E0,5.016949786E0
1.187563150E1,3.140615358E-2,-1.203263974E-1,-5.101491589E0,5.103007076E0
1.188563050E1,4.754882678E-4,-1.929791482E-1,-4.959747480E0,4.963500402E0
1.189562950E1,2.394533481E-2,-1.233321586E-1,-4.751543334E0,4.753203998E0
1.190562850E1,1.366929641E-1,-7.378413225E-2,-4.498726686E0,4.501407653E0
1.191562650E1,7.324445251E-2,-1.242175732E-1,-4.301136990E0,4.303553666E0
1.192562550E1,-4.500471239E-2,-1.184231835E-1,-4.067033771E0,4.069006410E0
1.193562450E1,-1.994583017E-2,-1.553872344E-1,-3.688772128E0,3.692097350E0
1.194562350E1,5.651090903E-2,-9.521907466E-2,-3.362605668E0,3.364428188E0
1.195562250E1,6.570518056E-2,-5.963370591E-2,-3.026255112E0,3.027555673E0
1.196562150E1,-9.223032519E-3,-1.202236326E-1,-2.747233583E0,2.749878387E0
1.197561950E1,-4.433478593E-2,-1.389393274E-1,-2.516566772E0,2.520789168E0
1.198561850E1,-8.266446311E-3,-9.978335638E-2,-2.280060933E0,2.282258291E0
1.199561750E1,2.657030524E-2,-7.608340362E-2,-1.957338483E0,1.958996835E0
1.200561650E1,8.295664117E-3,-8.961086394E-2,-1.639703695E0,1.642171469E0
1.201561550E1,-4.448430106E-2,-8.183611365E-2,-1.429099267E0,1.432131529E0
1.202561450E1,-5.533977569E-2,-6.860983975E-2,-1.250529394E0,1.253632149E0
1.203561250E1,-1.222050712E-2,-4.236132324E-2,-1.151453587E0,1.152297351E0
1.204561150E1,-2.478877740E-2,-5.788957285E-2,-1.118835479E0,1.120606316E0
1.205561050E1,-8.847847754E-2,-7.738671144E-2,-1.048943710E0,1.055509380E0
1.206560950E1,-7.611270365E-2,-3.845741143E-2,-8.259238887E-1,8.303146308E-1
1.207560850E1,1.925545673E-2,-2.529967787E-2,-5.201156795E-1,5.210865248E-1
1.208560750E1,2.732578377E-2,3.235611599E-2,-3.813635910E-1,3.837079687E-1
1.209560650E1,-8.660374143E-2,7.503731847E-3,-3.191059470E-1,3.307342127E-1
1.210560450E1,-1.030169671E-1,-2.764070202E-2,-2.301972789E-1,2.537070971E-1
1.211560350E1,-4.907859544E-2,3.752505463E-3,-1.436801219E-1,1.518774745E-1
1.212560250E1,-1.138218999E-2,5.312802069E-2,-9.293739974E-2,1.076545452E-1
1.213560150E1,-5.436456976E-2,-2.460725790E-2,-3.500260234E-2,6.918240930E-2
1.214560050E1,-8.204701541E-2,4.149684895E-2,-6.115602851E-3,9.214717472E-2
1.215559950E1,-5.743462292E-2,2.735552235E-2,-1.300303817E-2,6.493180665E-2
1.216559750E1,-2.643835916E-2,-2.241462512E-2,-1.189785594E-1,1.239245732E-1
1.217559650E1,-5.776697318E-2,9.588556588E-3,-2.152237290E-1,2.230475670E-1
1.218559550E1,-1.124362925E-1,-8.139543459E-3,-1.716631418E-1,2.053689517E-1
1.219559450E1,-5.017063606E-2,-1.807178842E-2,-4.412308931E-2,6.921364944E-2
1.220559350E1,-1.040877476E-3,3.360234037E-2,5.541347802E-2,6.481399733E-2
1.221559250E1,-7.546100406E-2,1.012993567E-3,1.823477590E-1,1.973476488E-1
1.222559050E1,-5.394811096E-2,-1.475210482E-2,1.780097097E-1,1.865890673E-1
1.223558950E1,-6.392452067E-2,-3.626682518E-2,1.473270303E-1,1.646416740E-1
1.224558850E1,-7.232055590E-2,-1.243520044E-3,1.606452334E-1,1.761780354E-1
1.225558750E1,-4.568683578E-2,-3.420177134E-2,2.381869143E-1,2.449286718E-1
1.226558650E1,-2.806154623E-2,-3.090673741E-2,2.250143069E-1,2.288539165E-1
1.227558550E1,-6.538993341E-2,-1.159431601E-2,1.676846963E-1,1.803563942E-1
1.228558350E1,-7.491234337E-2,-4.122093346E-2,1.295187503E-1,1.551970722E-1
1.229558250E1,-8.166376697E-2,-3.834203856E-2,1.308706266E-1,1.589534638E-1
1.230558150E1,-7.303581655E-2,1.294896970E-2,1.519796598E-1,1.691145272E-1
1.231558050E1,-5.430596055E-2,-1.852107385E-2,2.513741398E-1,2.578393408E-1
1.232557950E1,-6.501820581E-2,-1.641373733E-2,3.268178397E-1,3.336265550E-1
1.233557850E1,-4.332313539E-2,-7.170385737E-3,3.105029386E-1,3.135927030E-1
1.234557750E1,-3.605671828E-2,-1.732995948E-2,2.319128519E-1,2.353380235E-1
1.235557550E1,-4.276212246E-2,-9.465162065E-3,1.326721537E-1,1.397143113E-1
1.236557450E1,-4.503738371E-2,1.128878072E-4,1.355139005E-1,1.428019464E-1
1.237557350E1,-1.164671437E-1,-2.514975160E-2,3.106479496E-1,3.327149743E-1
1.238557250E1,-7.033780161E-2,2.774006814E-2,4.802505326E-1,4.861661154E-1
1.239557150E1,-7.539396208E-2,2.808006546E-2,4.832437223E-1,4.898951263E-1
1.240557050E1,-4.009728134E-3,4.293014769E-2,4.104979277E-1,4.127561315E-1
1.241556850E1,-8.389733026E-2,1.776926810E-2,3.296759588E-1,3.406475403E-1
1.242556750E1,-9.875816588E-2,2.567603756E-2,2.614219952E-1,2.806312416E-1
1.243556650E1,-5.850656373E-2,1.160398219E-3,1.467680365E-1,1.580038641E-1
1.244556550E1,-2.303580956E-2,2.337828280E-2,-2.701179743E-2,4.250682097E-2
1.245556450E1,-5.526781839E-2,5.247346144E-3,-8.972084641E-2,1.055078038E-1
1.246556350E1,-7.335372236E-2,-3.234387338E-3,3.482952476E-2,8.126700216E-2
1.247556150E1,-7.938546334E-2,1.947707534E-2,1.944053024E-1,2.108905637E-1
1.248556050E1,-4.594990566E-2,1.685321040E-2,2.750968784E-1,2.794167444E-1
1.249555950E1,-8.364480363E-2,3.738106694E-3,3.066899693E-1,3.179137680E-1
1.250555850E1,-8.351843068E-2,2.446283167E-2,3.388812304E-1,3.498774738E-1
1.251555750E1,-3.983780201E-2,-1.914325414E-2,4.066978222E-1,4.090924507E-1
1.252555650E1,-3.948931709E-2,6.500916090E-3,4.477183789E-1,4.495035204E-1
1.253555450E1,-5.459685040E-2,1.873396732E-2,4.433809143E-1,4.471223689E-1
1.254555350E1,-8.262241798E-2,-5.418355275E-2,4.454812342E-1,4.563067514E-1
1.255555250E1,-9.389767701E-2,-5.573200509E-3,3.227353138E-1,3.361635273E-1
1.256555150E1,-2.929550059E-2,-3.257447295E-4,2.660021192E-1,2.676106498E-1
1.257555050E1,-3.005717352E-2,-2.312385583E-2,3.059760243E-1,3.083171643E-1
1.258554950E1,-6.493134725E-2,2.151066385E-2,3.463954872E-1,3.530844404E-1
1.259554850E1,-8.540213862E-2,-3.608886883E-2,4.478797621E-1,4.573753524E-1
1.260554650E1,-5.921501786E-2,1.321412265E-2,5.099988270E-1,5.135950106E-1
1.261554550E1,-2.188022615E-2,-2.839769717E-2,4.433879310E-1,4.448348355E-1
1.262554450E1,-2.113521779E-3,2.835128490E-2,2.577616382E-1,2.593247471E-1
1.263554350E1,-7.830009221E-2,-7.950462777E-2,1.130067980E-1,1.588157004E-1
1.264554250E1,-8.702665044E-2,-5.166636296E-3,2.303393662E-2,9.017147140E-2
1.265554150E1,-1.124162292E-1,-3.185285345E-2,9.024124861E-2,1.476329767E-1
1.266553950E1,-4.899810486E-2,-9.480894729E-4,2.233051658E-1,2.286195753E-1
1.267553850E1,-8.848363040E-3,3.808847040E-2,3.156584287E-1,3.180711692E-1
1.268553750E1,-6.881773568E-2,-3.558852989E-3,3.433397323E-1,3.501866901E-1
1.269553650E1,-9.561519611E-2,5.765902810E-3,2.759640205E-1,2.921158194E-1
1.270553550E1,-8.827107497E-2,-3.583319932E-3,2.572359735E-1,2.719833982E-1
1.271553450E1,-9.238865683E-3,5.777041756E-2,3.197877324E-1,3.250953269E-1
1.272553250E1,-5.715094160E-2,2.871823423E-3,3.869927055E-1,3.912005005E-1
1.273553150E1,-1.149082669E-1,2.582724290E-2,3.911787271E-1,4.085238706E-1
1.274553050E1,-1.471653091E-1,3.980364148E-3,4.297984171E-1,4.543128337E-1
1.275552908E1,-2.047956219E-2,3.287008625E-2,4.103371292E-1,4.121606661E-1
1.276552808E1,7.677933192E-3,2.589644104E-2,4.097407132E-1,4.106300384E-1
1.277552708E1,-1.153809594E-1,3.155590625E-2,4.169216788E-1,4.337421207E-1
1.278552508E1,-7.565704110E-2,2.814473201E-2,4.968490237E-1,5.033637513E-1
1.279552408E1,-6.683848972E-2,3.523641787E-3,5.441459817E-1,5.482468870E-1
1.280552308E1,-2.270098337E-2,6.496000774E-2,5.893420351E-1,5.933457437E-1
1.281552208E1,-4.594832509E-2,-2.933208223E-2,7.132878041E-1,7.153678153E-1
1.282552108E1,-9.058621606E-2,4.414189177E-2,7.611823475E-1,7.678235053E-1
1.283552008E1,-5.754633215E-2,5.319979526E-3,8.950028944E-1,8.968668037E-1
1.284551908E1,-7.075172966E-2,4.513557125E-3,9.494907582E-1,9.521338558E-1
1.285551708E1,-1.276412733E-1,1.235708529E-2,9.921497047E-1,1.000402933E0
1.286551608E1,-8.468969193E-2,7.295899875E-3,1.094084800E0,1.097381941E0
1.287551508E1,-7.066592177E-2,2.151978185E-2,1.213981957E0,1.216227349E0
1.288551408E1,-1.951158305E-2,1.542325554E-2,1.355440137E0,1.355668301E0
1.289551308E1,-3.129975253E-2,3.523309227E-2,1.425647655E0,1.426426403E0
1.290551208E1,-1.139453127E-1,2.559446890E-2,1.514412482E0,1.518908745E0
1.291551008E1,-1.568751132E-1,9.737934675E-3,1.651980509E0,1.659440939E0
1.292550908E1,-9.123764156E-2,3.876515770E-2,1.787150593E0,1.789897843E0
1.293550808E1,-5.038308185E-2,1.936798822E-2,1.940138898E0,1.940889620E0
1.294550708E1,-6.657086084E-2,4.534062579E-2,2.023519024E0,2.025121402E0
1.295550608E1,-1.552532783E-1,1.654782129E-2,2.184437322E0,2.190010006E0
1.296550508E1,-1.404544962E-1,4.346962642E-2,2.464355230E0,2.468737283E0
1.297550308E1,-6.442099496E-2,8.385758746E-2,2.802804351E0,2.804798458E0
1.298550208E1,-9.727495568E-2,7.526453761E-2,3.089012108E0,3.091459683E0
1.299550108E1,-1.451169746E-1,1.037278515E-1,3.236605772E0,3.241517442E0
1.300550008E1,-1.339369430E-1,6.414583778E-2,3.198137525E0,3.201583580E0
1.301549908E1,-1.537901588E-1,7.785468969E-2,3.210568120E0,3.215192128E0
1.302549808E1,-1.630628926E-1,9.589726031E-2,3.250098807E0,3.255599491E0
1.303549608E1,-1.071299717E-1,8.094083184E-2,3.235145722E0,3.237930835E0
1.304549508E1,-1.029191450E-1,8.888851354E-2,3.245950792E0,3.248798249E0
1.305549408E1,-1.260588797E-1,1.182027435E-1,3.230557997E0,3.235176610E0
1.306549308E1,-1.660951856E-1,6.195868677E-2,3.191518477E0,3.196438123E0
1.307549208E1,-1.297671930E-1,1.220921103E-1,3.077028825E0,3.082183057E0
1.308549108E1,-1.000192458E-1,1.215690404E-1,3.096507069E0,3.100506235E0
1.309548908E1,-8.870507542E-2,9.751290081E-2,3.089039590E0,3.091851055E0
1.310548808E1,-1.386759377E-1,1.204300758E-1,3.029481021E0,3.035043604E0
1.311548708E1,-1.321090029E-1,4.680730848E-2,2.992070535E0,2.995351365E0
1.312548608E1,-1.016984291E-1,1.038530733E-1,2.906461451E0,2.910093847E0
1.313548508E1,-3.680354476E-2,7.954612473E-2,2.858876225E0,2.860219460E0
1.314548408E1,-4.847196509E-2,1.279100168E-1,2.812925881E0,2.816249726E0
1.315548308E1,-1.139154919E-1,5.875260361E-2,2.763084215E0,2.766055492E0
1.316548108E1,-1.398867864E-1,7.307132011E-2,2.671323275E0,2.675981272E0
1.317548008E1,-1.054609571E-1,9.654836604E-2,2.658296848E0,2.662139315E0
1.318547908E1,-7.060496455E-2,3.362755649E-2,2.636894869E0,2.638054288E0
1.319547808E1,-6.996562634E-2,7.955323275E-2,2.503964269E0,2.506204494E0
1.320547708E1,-1.524806383E-1,3.304544790E-2,2.416238492E0,2.421270492E0
1.321547608E1,-1.803331739E-1,-2.663589455E-2,2.273433698E0,2.280730213E0
1.322547408E1,-1.214248882E-1,5.328576760E-2,2.122543960E0,2.126681978E0
1.323547308E1,-9.999024731E-2,-3.003292585E-2,1.983934543E0,1.986679717E0
1.324547208E1,-8.479414696E-2,7.916391782E-2,1.783200799E0,1.786970079E0
1.325547108E1,-1.413654924E-1,-1.811483854E-2,1.664342692E0,1.670433760E0
1.326547008E1,-1.783185889E-1,2.363228951E-2,1.497132790E0,1.507900061E0
1.327546908E1,-1.370674509E-1,-2.897516454E-2,1.377664819E0,1.384769800E0
1.328546708E1,-4.111740120E-2,7.931084739E-2,1.289334440E0,1.292425685E0
1.329546608E1,-2.753428269E-2,-1.827870676E-2,1.157296125E0,1.157767925E0
1.330546508E1,-6.916427457E-2,5.042731969E-2,9.472734940E-1,9.511328424E-1
1.331546408E1,-1.775219606E-1,-2.895535709E-2,7.742222232E-1,7.948411854E-1
1.332546308E1,-1.900891802E-1,3.750385847E-3,6.600009584E-1,6.868400301E-1
1.333546208E1,-1.206688067E-1,2.991307620E-3,4.748307484E-1,4.899328000E-1
1.334546008E1,-1.588394305E-2,8.521677274E-3,3.660047096E-1,3.664483130E-1
1.335545908E1,3.334921075E-2,1.024123376E-1,1.875722462E-1,2.162956410E-1
1.336545808E1,4.490743848E-2,-1.379661497E-2,1.393806642E-1,1.470849896E-1
1.337545708E1,3.160804697E-2,1.064755495E-1,-5.402242541E-2,1.235092455E-1
1.338545608E1,-7.923034768E-2,-5.790325899E-2,-8.814736068E-2,1.319097896E-1
1.339545508E1,-7.451427589E-2,4.264622882E-2,-2.390441161E-1,2.539944244E-1
1.340545408E1,-1.144224363E-1,-3.108323196E-2,-2.930852526E-1,3.161607606E-1
1.341545208E1,-4.685490847E-2,5.915317442E-3,-4.347018921E-1,4.372597723E-1
1.342545108E1,4.124938382E-2,1.586506750E-2,-5.032686818E-1,5.052054810E-1
1.343545008E1,1.458916211E-1,1.952175172E-2,-5.002614588E-1,5.214661935E-1
1.344544908E1,-2.067465819E-2,3.388167283E-2,-6.879763770E-1,6.891203847E-1
1.345544808E1,-1.545858734E-1,-1.051743978E-1,-7.542843872E-1,7.771122075E-1
1.346544708E1,-9.882239389E-2,-3.014510103E-2,-9.509753662E-1,9.565713459E-1
1.347544508E1,-8.036762198E-2,-5.338274002E-2,-9.683468592E-1,9.731414652E-1
1.348544408E1,1.184665351E-1,-1.483011033E-2,-1.022072246E0,1.029021831E0
1.349544308E1,2.946643115E-2,2.528262958E-2,-1.231499630E0,1.232111530E0
1.350544208E1,-1.628099457E-1,-1.606611122E-1,-1.300190381E0,1.320156846E0
1.351544108E1,-9.416662152E-2,-3.977332732E-2,-1.540442532E0,1.543830452E0
1.352544008E1,-4.814553514E-2,-1.576114969E-1,-1.535789317E0,1.544606165E0
1.353543808E1,9.002291906E-2,3.445871992E-2,-1.804027412E0,1.806600795E0
1.354543708E1,-4.175988229E-2,-1.741658415E-1,-1.773469863E0,1.782490668E0
1.355543608E1,-7.479183591E-2,-3.322069991E-2,-2.092297482E0,2.093897368E0
1.356543508E1,-5.891979743E-2,-1.646882358E-1,-2.124325022E0,2.131513677E0
1.357543408E1,-3.792134967E-2,-8.684641002E-2,-2.299898196E0,2.301849700E0
1.358543308E1,1.004587281E-2,-4.656399122E-2,-2.443295313E0,2.443759626E0
1.359543108E1,-2.923908410E-2,-2.007942991E-1,-2.470967261E0,2.479284671E0
1.360543008E1,-9.837757610E-4,3.000692401E-2,-2.814055563E0,2.814215716E0
1.361542908E1,-6.500363345E-2,-2.238754155E-1,-2.850415889E0,2.859932939E0
1.362542808E1,2.045282031E-2,-3.224786941E-2,-3.187962785E0,3.188191487E0
1.363542708E1,6.073226069E-2,-1.034779744E-1,-3.273734422E0,3.275932411E0
1.364542608E1,8.678108566E-2,-7.090589516E-2,-3.528052050E0,3.529831422E0
1.365542508E1,6.215134338E-2,-1.074496591E-1,-3.754820521E0,3.756871753E0
1.366542308E1,4.247966540E-2,-6.166650871E-2,-4.050156367E0,4.050848538E0
1.367542208E1,5.593611860E-2,-8.490235699E-2,-4.257184054E0,4.258397977E0
1.368542108E1,5.928268111E-2,-1.557511139E-1,-4.468243396E0,4.471350120E0
1.369542008E1,7.987008789E-2,-4.497669144E-2,-4.779755564E0,4.780634413E0
1.370541908E1,5.336899906E-2,-1.622071161E-1,-4.827363009E0,4.830382285E0
1.371541808E1,5.441612575E-2,-1.149885839E-1,-4.922276768E0,4.923920396E0
1.372541608E1,1.688101209E-2,-1.648879548E-1,-4.896684675E0,4.899489138E0
1.373541508E1,3.381502370E-2,-1.224092670E-1,-4.855979283E0,4.857639579E0
1.374541408E1,-3.600005510E-2,-1.871707617E-1,-4.617536845E0,4.621468967E0
1.375541300E1,6.983801086E-2,-1.380590473E-1,-4.348410559E0,4.351162148E0
1.376541200E1,2.080022350E-1,-5.183447041E-2,-4.079291289E0,4.084919725E0
1.377541100E1,1.563343554E-2,-1.397263991E-1,-3.882175802E0,3.884720946E0
1.378540900E1,-1.268770879E-1,-2.357305721E-1,-3.647939267E0,3.657748979E0
1.379540800E1,-2.861876761E-2,-1.075329454E-1,-3.451727759E0,3.453520941E0
1.380540700E1,1.201166285E-1,-1.209339779E-1,-3.114654488E0,3.119314927E0
1.381540600E1,5.288256554E-2,-1.470621332E-1,-2.807062878E0,2.811409938E0
1.382540500E1,-2.094764094E-1,-1.488300754E-1,-2.552466338E0,2.565368426E0
1.383540400E1,-9.165038190E-2,-1.333569723E-1,-2.259402135E0,2.265189149E0
1.384540200E1,1.040757700E-1,-5.136181438E-2,-1.963041857E0,1.966469713E0
1.385540100E1,3.196549457E-2,-8.368962619E-2,-1.749749463E0,1.752041361E0
1.386540000E1,-1.055136734E-1,-7.482334692E-2,-1.658013082E0,1.663051126E0
1.387539900E1,-4.354241512E-2,-5.474870441E-2,-1.449970903E0,1.451657322E0
1.388539800E1,7.842011545E-3,-5.119703254E-2,-1.205098867E0,1.206211388E0
1.389539700E1,-1.783139477E-2,-9.556543082E-3,-1.008579796E0,1.008782678E0
1.390539500E1,-4.116050614E-2,-1.100177379E-2,-8.018854004E-1,8.030164517E-1
1.391539400E1,-3.802732131E-2,-1.227199003E-2,-6.269244289E-1,6.281965604E-1
1.392539300E1,-2.228325463E-2,2.256681718E-2,-4.911813176E-1,4.922041156E-1
1.393539200E1,-9.326847092E-2,4.600260369E-3,-3.695030987E-1,3.811203354E-1
1.394539100E1,-6.697525062E-2,-3.937277477E-3,-2.482634211E-1,2.571690350E-1
1.395539000E1,-6.039705992E-2,3.263285374E-2,-3.005141401E-1,3.082555051E-1
1.396538900E1,-6.765679842E-2,7.366194371E-3,-4.349422127E-1,4.402345188E-1
1.397538700E1,-7.361477313E-2,5.289500915E-3,-4.285096908E-1,4.348191218E-1
1.398538600E1,-7.485599083E-2,-7.111401949E-3,-3.129488289E-1,3.218554970E-1
1.399538500E1,-7.757733981E-2,2.081599636E-2,-3.208829159E-1,3.307830030E-1
1.400538400E1,-5.144158320E-2,-4.601192269E-3,-2.667026156E-1,2.716573073E-1
1.401538300E1,-5.071182327E-2,2.215272468E-2,-1.568398654E-1,1.663164923E-1
1.402538200E1,-4.903116904E-2,-2.885694114E-2,-1.191282481E-1,1.320163554E-1
1.403538000E1,-8.658278282E-2,-3.614949714E-2,-1.261741430E-1,1.572363787E-1
1.404537900E1,-5.534406974E-2,-2.213949535E-2,-2.933138788E-2,6.643382892E-2
1.405537800E1,-4.423885505E-2,-6.250777686E-2,7.493791580E-3,7.694449542E-2
1.406537700E1,-4.101190464E-2,9.468962755E-3,-8.562194824E-2,9.540836231E-2
1.407537600E1,-4.624541846E-2,-2.652028413E-2,-1.417727602E-1,1.514644504E-1
1.408537500E1,-7.216987132E-2,-1.029156733E-1,-1.305578005E-1,1.812331797E-1
1.409537300E1,-1.558227788E-1,-4.394215453E-2,-1.744323832E-1,2.379880410E-1
1.410537200E1,-1.045300621E-1,-8.903118560E-2,-9.032077074E-2,1.643500153E-1
1.411537100E1,-4.921080647E-3,-2.565701583E-2,5.276936710E-2,5.888213312E-2
1.412537000E1,-2.722819009E-2,1.460859222E-2,1.284984112E-1,1.321613672E-1
1.413536900E1,-4.755111085E-3,-7.216606149E-2,1.388146538E-1,1.565249488E-1
1.414536800E1,-2.226576780E-2,-8.157596737E-4,7.547819853E-2,7.869808341E-2
1.415536600E1,-1.070018537E-1,-8.060162025E-2,9.672113299E-2,1.652301288E-1
1.416536500E1,-1.224934943E-1,1.250902154E-3,1.158590698E-1,1.686106312E-1
1.417536400E1,-8.400288164E-2,-5.325561790E-2,1.288568455E-1,1.627781668E-1
1.418536300E1,7.505406526E-2,7.108255416E-2,2.183537436E-1,2.415868364E-1
1.419536200E1,1.908359792E-1,1.627601530E-1,2.867369306E-1,3.809557793E-1
1.420536100E1,-1.892908525E-1,3.930796204E-2,2.664997172E-1,3.292388829E-1
1.421536000E1,-4.460224305E-1,-2.005798890E-1,2.143846536E-1,5.339747935E-1
1.422535800E1,-2.997914974E-2,-1.181308776E-1,4.465559524E-1,4.628886176E-1
1.423535700E1,2.099230818E-1,3.746618047E-1,3.893725222E-1,5.796983089E-1
1.424535600E1,-7.371810439E-2,1.489397837E-1,3.287363112E-1,3.683544223E-1
1.425535500E1,-3.138790479E-1,-3.261331308E-1,5.279988956E-1,6.954607893E-1
1.426535400E1,-2.938522612E-1,-6.361792557E-2,3.867243183E-1,4.898490484E-1
1.427535300E1,1.473102378E-1,3.215955453E-1,3.225183821E-1,4.786879022E-1
1.428535100E1,9.018993015E-2,1.894249547E-1,2.949832588E-1,3.619822647E-1
1.429535000E1,-2.889924758E-1,-2.565181181E-1,1.974107713E-1,4.339230445E-1
1.430534900E1,-1.396081118E-1,1.677481752E-1,1.378375840E-1,2.581260830E-1
1.431534800E1,-1.051386019E-2,-8.442465775E-3,3.667268407E-1,3.669746479E-1
1.432534700E1,6.345996852E-2,-6.116099864E-2,4.603027564E-1,4.686645527E-1
1.433534600E1,6.378894749E-2,2.169633122E-1,3.444559658E-1,4.120582738E-1
1.434534400E1,-7.223028950E-3,-1.362478174E-1,4.024118131E-1,4.249128231E-1
1.435534300E1,-3.663020222E-2,1.999813534E-2,3.548435444E-1,3.572892919E-1
1.436534200E1,-1.966426298E-1,-5.697609158E-2,2.249347848E-1,3.041549873E-1
1.437534100E1,-9.133630419E-2,-2.251753611E-2,1.899158102E-1,2.119371956E-1
1.438534000E1,-1.629988839E-1,-8.489999983E-2,2.532446641E-1,3.129049472E-1
1.439533900E1,-1.317264397E-1,-5.315173846E-3,2.562390232E-1,2.881640904E-1
1.440533700E1,1.132296866E-2,-5.471807962E-2,3.228551817E-1,3.276549194E-1
1.441533600E1,-3.071569791E-3,-3.390966637E-2,3.532601184E-1,3.548971840E-1
1.442533500E1,9.301522253E-3,4.479734637E-2,2.715312463E-1,2.753589263E-1
1.443533400E1,-1.645000834E-2,-1.461751105E-1,2.908609718E-1,3.259415141E-1
1.444533300E1,-9.485685792E-2,2.598310774E-2,2.155891800E-1,2.369633725E-1
1.445533200E1,-1.150102460E-1,-9.517134676E-2,1.963009697E-1,2.466151103E-1
1.446533100E1,-5.799105858E-2,-2.218216175E-2,1.961641449E-1,2.057556388E-1
1.447532900E1,-8.673238931E-2,-6.414030120E-4,2.849459285E-1,2.978541604E-1
1.448532800E1,-1.374938408E-1,-5.191433972E-2,3.568105477E-1,3.858930187E-1
1.449532700E1,-6.902054270E-2,4.380655395E-2,2.806219125E-1,2.922866867E-1
1.450532600E1,-8.544590137E-2,-1.090019669E-2,2.964912558E-1,3.087505159E-1
1.451532500E1,1.022869879E-3,2.662772672E-2,2.902131003E-1,2.914339131E-1
1.452532400E1,2.397376690E-3,2.732818661E-2,2.671785790E-1,2.685832650E-1
1.453532200E1,-2.780445146E-2,-6.653035060E-5,2.248336279E-1,2.265463577E-1
1.454532100E1,-6.479020094E-2,2.433539892E-2,2.026896375E-1,2.141799966E-1
1.455532000E1,-1.263674665E-1,1.200402310E-2,1.503219742E-1,1.967473738E-1
1.456531900E1,-1.039977827E-1,3.014786018E-2,9.105810463E-2,1.414779513E-1
1.457531800E1,-1.101371034E-1,2.052010898E-2,1.154708147E-1,1.608874310E-1
1.458531700E1,-1.184470932E-1,4.672442419E-2,2.020078522E-1,2.387887310E-1
1.459531500E1,-5.120609572E-2,5.299110448E-2,3.184873116E-1,3.269010386E-1
1.460531400E1,-3.405141567E-2,3.020258646E-2,3.908056748E-1,3.934472907E-1
1.461531300E1,-1.107582330E-2,5.150989512E-2,4.210650158E-1,4.243485486E-1
1.462531200E1,2.932812623E-2,-3.802290849E-2,4.681046963E-1,4.705612471E-1
1.463531100E1,5.855792787E-2,9.074833011E-2,4.093045110E-1,4.233136816E-1
1.464531000E1,-1.333021455E-1,-6.610439921E-2,4.515500593E-1,4.754331811E-1
1.465530800E1,-2.097669246E-1,-5.441660084E-2,4.659540904E-1,5.138837840E-1
1.466530700E1,-7.558327482E-2,2.991652971E-2,4.688291663E-1,4.758241454E-1
1.467530600E1,-3.783617218E-2,3.486195853E-2,5.793187380E-1,5.815987726E-1
1.468530500E1,-3.371944000E-2,3.096849862E-3,6.291972417E-1,6.301077368E-1
1.469530400E1,-1.004114935E-1,-1.978129501E-2,5.671021503E-1,5.762626281E-1
1.470530300E1,-1.536170264E-1,-1.772181429E-2,6.154621321E-1,6.345911200E-1
1.471530200E1,-1.625167079E-1,-4.444203665E-2,7.022827595E-1,7.222103913E-1
1.472530000E1,-5.461102990E-2,2.615148928E-3,6.804241133E-1,6.826171530E-1
1.473529900E1,-2.655045211E-2,3.187706457E-2,6.639466596E-1,6.652414904E-1
1.474529800E1,1.108701523E-2,1.080346182E-3,6.311630756E-1,6.312613698E-1
1.475529700E1,-2.176102518E-2,3.459760956E-3,5.289210016E-1,5.293797673E-1
1.476529571E1,-1.253386398E-1,-3.501716556E-2,5.334034771E-1,5.490494020E-1
1.477529471E1,-1.833934970E-1,-3.461655820E-2,5.717109257E-1,6.014024139E-1
1.478529271E1,-1.841247461E-1,-3.372763524E-2,6.221308815E-1,6.496816984E-1
1.479529171E1,-7.863675479E-2,1.115230305E-2,7.659577686E-1,7.700645533E-1
1.480529071E1,-6.065470286E-2,-3.261430711E-3,9.084473974E-1,9.104758666E-1
1.481528971E1,2.406713963E-2,4.396667629E-2,1.005732202E0,1.006980416E0
1.482528871E1,-4.579921195E-2,5.644880064E-2,1.074864417E0,1.077319614E0
1.483528771E1,-1.990576761E-1,-8.729052432E-3,1.119882715E0,1.137469758E0
1.484528571E1,-9.886030030E-2,-5.978120193E-2,1.288853214E0,1.294020772E0
1.485528471E1,-6.522876953E-2,4.383451095E-2,1.395694124E0,1.397904984E0
1.486528371E1,-1.719743782E-2,5.919196704E-2,1.567658982E0,1.568870334E0
1.487528271E1,4.485005354E-2,4.168977052E-2,1.731404994E0,1.732487465E0
1.488528171E1,-7.603681776E-2,1.327199912E-1,1.794858393E0,1.801364162E0
1.489528071E1,-2.890128131E-1,-9.338697754E-3,1.930778090E0,1.952311361E0
1.490527871E1,-1.735509337E-1,9.785110742E-2,2.034801811E0,2.044532508E0
1.491527771E1,5.472911624E-3,1.207166625E-1,2.205279722E0,2.208588037E0
1.492527671E1,-9.846244295E-2,3.048140729E-2,2.393875816E0,2.396093778E0
1.493527571E1,-5.036833590E-2,1.426071030E-1,2.534268048E0,2.538776929E0
1.494527471E1,-8.333780654E-2,6.576604642E-2,2.640080432E0,2.642214044E0
1.495527371E1,-7.938962035E-2,1.271470100E-1,2.600694172E0,2.605010413E0
1.496527171E1,-1.297375732E-1,1.219223766E-1,2.575229548E0,2.581376402E0
1.497527071E1,-1.769830848E-1,3.431085845E-2,2.623876628E0,2.630062510E0
1.498526971E1,-2.066482391E-1,9.941699177E-2,2.576876124E0,2.587059681E0
1.499526871E1,-2.025750504E-1,2.738402752E-2,2.681507955E0,2.689288279E0
1.500526771E1,-1.667245104E-1,8.432163712E-2,2.777899305E0,2.784175237E0
1.501526671E1,-9.320892982E-2,6.105722884E-2,2.825493886E0,2.827690151E0
1.502526571E1,-6.554020685E-2,3.201284789E-2,2.844801977E0,2.845736922E0
1.503526371E1,-3.357432855E-2,1.216608234E-1,2.842998696E0,2.845798689E0
1.504526271E1,-5.906303594E-2,2.221541779E-2,2.900789652E0,2.901475930E0
1.505526171E1,-1.342392806E-1,5.181353007E-2,2.880899763E0,2.884490990E0
1.506526071E1,-1.890123423E-1,3.664389750E-2,2.879416909E0,2.885846527E0
1.507525971E1,-2.297266694E-1,3.843977842E-3,2.923728864E0,2.932742673E0
1.508525871E1,-1.885479455E-1,6.375436669E-2,3.016234154E0,3.022793976E0
1.509525671E1,-1.632689887E-1,2.085237700E-2,3.102905678E0,3.107268129E0
1.510525571E1,-1.060585791E-1,4.002466623E-2,3.075071762E0,3.077160499E0
1.511525471E1,-6.267377383E-2,4.796635453E-2,3.009527982E0,3.010562647E0
1.512525371E1,-6.263107088E-2,6.961113889E-2,2.996375840E0,2.997838644E0
1.513525271E1,-1.393923404E-1,8.202956513E-2,2.977085291E0,2.981475458E0
1.514525171E1,-2.661235037E-1,2.326431692E-2,2.923364582E0,2.935544826E0
1.515524971E1,-1.913575692E-1,1.219169680E-1,2.812456350E0,2.821593909E0
1.516524871E1,-1.114141627E-1,4.408711066E-2,2.829838368E0,2.832373912E0
1.517524771E1,4.605161981E-2,1.267689875E-1,2.738541112E0,2.741860418E0
1.518524671E1,1.743795024E-3,6.373865230E-2,2.669863810E0,2.670625099E0
1.519524571E1,-1.242363666E-1,1.000672935E-1,2.475902311E0,2.481036153E0
1.520524471E1,-1.672142330E-1,6.599596990E-2,2.286579993E0,2.293635571E0
1.521524371E1,-1.641047203E-1,-5.098923711E-2,2.158038898E0,2.164870006E0
1.522524171E1,-3.888843345E-2,1.185001658E-1,1.943131503E0,1.947129846E0
1.523524071E1,1.341113728E-4,8.462269563E-2,1.739751894E0,1.741808735E0
1.524523971E1,-9.830016444E-2,8.739089543E-2,1.530676512E0,1.536317244E0
1.525523871E1,-1.579175621E-1,3.762129614E-2,1.379526572E0,1.389045313E0
1.526523771E1,-1.169799171E-1,4.556466551E-2,1.287190851E0,1.293298390E0
1.527523671E1,-1.756086054E-2,9.805380480E-2,1.170290392E0,1.174522258E0
1.528523471E1,1.043039758E-1,1.893617135E-1,1.020594655E0,1.043240445E0
1.529523371E1,2.476855882E-2,1.107826451E-1,8.642979956E-1,8.717208849E-1
1.530523271E1,-2.339009783E-1,-1.098602468E-1,8.440894336E-1,8.827603941E-1
1.531523171E1,-2.370817540E-1,2.646321896E-2,6.976839244E-1,7.373404359E-1
1.532523071E1,-1.363332325E-1,2.509592067E-2,6.270337719E-1,6.421743584E-1
1.533522971E1,-1.390256834E-2,5.750279780E-3,4.420354700E-1,4.422914241E-1
1.534522771E1,-1.063745114E-1,-3.665140752E-2,2.863790810E-1,3.076878945E-1
1.535522671E1,-1.110056890E-1,-6.036506468E-2,1.015328068E-1,1.620960051E-1
1.536522571E1,-9.755135539E-2,-2.491226329E-2,-1.044201618E-1,1.450532937E-1
1.537522471E1,-1.057190386E-1,1.333589092E-2,-3.178873873E-1,3.352711620E-1
1.538522371E1,-4.446035489E-2,-1.418347589E-1,-3.636997372E-1,3.929011591E-1
1.539522271E1,1.438468955E-2,7.502640976E-2,-6.366109264E-1,6.411780978E-1
1.540522071E1,3.151030711E-2,-7.758734403E-2,-6.878354591E-1,6.929143628E-1
1.541521971E1,-1.164358154E-1,-6.370532317E-2,-8.787341863E-1,8.887009832E-1
1.542521871E1,-2.046835746E-1,-1.633997836E-1,-9.636386812E-1,9.985961961E-1
1.543521771E1,-1.247427994E-1,-1.167296837E-1,-1.157659822E0,1.170197781E0
1.544521671E1,-4.264538828E-2,-3.511527088E-3,-1.308272987E0,1.308972562E0
1.545521571E1,-4.661664356E-2,-1.318269752E-1,-1.330880662E0,1.338205813E0
1.546521371E1,-2.521575205E-3,-5.117304068E-2,-1.590310510E0,1.591135619E0
1.547521271E1,2.059078719E-3,-9.072285818E-2,-1.740619036E0,1.742982933E0
1.548521171E1,3.302215040E-2,-1.321182579E-1,-1.749908507E0,1.755199556E0
1.549521071E1,9.838130370E-2,4.608216237E-2,-1.974452698E0,1.977439229E0
1.550520971E1,1.492672644E-2,-8.457944451E-2,-2.153352939E0,2.155065050E0
1.551520871E1,-2.005417725E-2,-7.263124404E-2,-2.177162216E0,2.178465695E0
1.552520771E1,-2.628756495E-2,1.243141802E-2,-2.356356572E0,2.356535990E0
1.553520571E1,-9.862613758E-2,-7.428041467E-2,-2.498439819E0,2.501488802E0
1.554520471E1,-9.774141731E-3,-6.478325738E-2,-2.517912802E0,2.518765031E0
1.555520371E1,2.182561681E-1,1.587635994E-2,-2.713274124E0,2.722084548E0
1.556520271E1,6.163501597E-2,-3.677299306E-2,-2.912675287E0,2.913559414E0
1.557520171E1,-1.076129335E-1,-1.018178768E-1,-3.061467045E0,3.065049411E0
1.558520071E1,9.819603832E-3,-7.028676638E-2,-3.301118687E0,3.301881469E0
1.559519871E1,7.302656150E-2,-4.617769126E-2,-3.527308284E0,3.528366334E0
1.560519771E1,2.018577615E-3,-1.385596238E-1,-3.727427486E0,3.730002480E0
1.561519671E1,-7.532611610E-3,-7.940734472E-2,-4.073805431E0,4.074586231E0
1.562519571E1,-3.348804558E-2,-1.632391131E-1,-4.353270764E0,4.356458975E0
1.563519471E1,5.685928431E-2,-1.064696292E-1,-4.694411359E0,4.695962816E0
1.564519371E1,-2.619112244E-2,-2.074995754E-1,-4.948732495E0,4.953150044E0
1.565519171E1,5.207322867E-2,-1.871159989E-1,-5.212331409E0,5.215948881E0
1.566519071E1,6.250001103E-2,-1.873851901E-1,-5.312174955E0,5.315846331E0
1.567518971E1,3.941360478E-2,-1.756331637E-1,-5.284924006E0,5.287988483E0
1.568518871E1,3.999221418E-2,-2.037987264E-1,-5.309021552E0,5.313082263E0
1.569518771E1,-3.585922857E-2,-2.458789265E-1,-5.271743798E0,5.277596517E0
1.570518671E1,-5.505402957E-2,-2.181328467E-1,-5.130572716E0,5.135502826E0
1.571518471E1,-4.770656456E-2,-2.349802282E-1,-4.891798156E0,4.897670960E0
1.572518371E1,5.986649819E-2,-1.524539421E-1,-4.595988686E0,4.598906197E0
1.573518271E1,6.624689768E-2,-1.316964544E-1,-4.249737040E0,4.252293207E0
1.574518171E1,-2.283869443E-2,-1.881659579E-1,-3.907383733E0,3.911978486E0
1.575518071E1,-5.062289991E-2,-1.347308853E-1,-3.629109478E0,3.631962375E0
1.576518050E1,1.299729145E-2,-1.063175102E-1,-3.297552470E0,3.299291535E0
1.577517950E1,5.917490048E-2,-6.363411505E-2,-2.944290597E0,2.945572625E0
1.578517750E1,-8.749937955E-3,-7.602893315E-2,-2.590580243E0,2.591710431E0
1.579517650E1,-6.138576013E-2,-7.432936683E-2,-2.353328299E0,2.355301923E0
1.580517550E1,-3.727053629E-2,-8.028044365E-2,-2.120864639E0,2.122710734E0
1.581517450E1,2.601928739E-2,-2.469032491E-2,-1.846331432E0,1.846679824E0
1.582517350E1,3.634674017E-2,1.168529503E-2,-1.556528222E0,1.556996383E0
1.583517250E1,-4.523188585E-2,3.796999119E-3,-1.312994029E0,1.313778391E0
1.584517050E1,-5.188800897E-3,-4.052065630E-3,-1.149545640E0,1.149564492E0
1.585516950E1,2.629034238E-2,2.096025813E-3,-1.042979550E0,1.043312953E0
1.586516850E1,-2.718110173E-2,3.211424226E-2,-8.992953354E-1,9.002789774E-1
1.587516750E1,-2.038514793E-2,1.887799155E-2,-6.954415172E-1,6.959962907E-1
1.588516650E1,2.138411731E-2,-4.603567701E-3,-4.959234095E-1,4.964055815E-1
