"Time (s)","Linear Acceleration x (m/s^2)","Linear Acceleration y (m/s^2)","Linear Acceleration z (m/s^2)","Absolute acceleration (m/s^2)"
7.726166659E-3,9.924639925E-2,-2.988144185E-4,-3.102649570E-2,1.039835587E-1
1.772416665E-2,6.654100349E-2,2.289356690E-2,-4.242388844E-2,8.216816209E-2
2.772316666E-2,2.006146800E-2,2.456566958E-2,-3.076980293E-2,4.418953940E-2
3.772116668E-2,-3.380686501E-2,2.865076284E-2,-1.955835164E-2,4.843861530E-2
4.772016665E-2,-6.045567825E-2,4.569351439E-2,-2.075644612E-2,7.857236376E-2
5.771816667E-2,-2.948833080E-2,5.944104929E-2,-1.117227495E-2,6.728758966E-2
6.771716668E-2,5.709093455E-3,6.394348757E-2,-3.839866519E-2,7.480521933E-2
7.771516667E-2,1.774576960E-2,2.470944028E-2,-9.174866080E-3,3.177494209E-2
8.771416667E-2,8.378257865E-2,-1.383113752E-2,-2.427120745E-2,8.831711251E-2
9.771216667E-2,1.278462274E-1,-4.835704446E-4,-5.958488166E-2,1.410505222E-1
1.077111667E-1,9.988308795E-2,-2.192291540E-2,-7.577991486E-4,1.022634819E-1
1.177091667E-1,5.484255223E-2,-3.608908581E-2,7.244700193E-4,6.565555960E-2
1.277081667E-1,1.284960357E-2,-4.632465737E-2,-2.668376863E-2,5.498281278E-2
1.377061667E-1,-3.206222031E-2,-3.083616426E-2,-1.246743321E-2,4.619839703E-2
1.477051667E-1,-6.409354175E-2,5.849628771E-3,-1.186341584E-2,6.544418145E-2
1.577031667E-1,-5.348957961E-2,6.617513224E-3,-3.026518822E-2,6.181349550E-2
1.677021667E-1,-1.676065994E-2,-9.093174082E-4,-1.092903078E-2,2.002973524E-2
1.777001667E-1,3.782567460E-2,1.089433349E-2,5.122160912E-3,3.969514698E-2
1.876991667E-1,7.709089715E-2,1.431655464E-2,-1.925546587E-2,8.073873374E-2
1.976971667E-1,1.059814781E-1,3.713193444E-2,-5.248226881E-2,1.239566165E-1
2.076961667E-1,1.007451503E-1,3.686289628E-2,-4.485340655E-2,1.162767668E-1
2.176941667E-1,6.129402280E-2,2.332872537E-2,-1.447829068E-2,6.716254581E-2
2.276931667E-1,3.387577079E-2,9.323121548E-3,-1.015544415E-2,3.657350801E-2
2.376911667E-1,9.699617140E-3,-1.518613039E-2,-1.211309195E-2,2.171239566E-2
2.476901667E-1,-5.356674459E-2,-9.501297172E-3,-2.978571653E-3,5.448433410E-2
2.576881667E-1,-5.828482635E-2,-2.434494175E-2,-3.260056615E-2,7.108160159E-2
2.676871667E-1,-1.564404275E-2,-3.234051352E-2,-1.940398514E-2,4.083086489E-2
2.776851667E-1,1.529138256E-2,-5.368105765E-2,2.433026433E-2,6.088878463E-2
2.876841667E-1,3.927435882E-2,-4.651444520E-2,-4.686543345E-3,6.105761674E-2
2.976821667E-1,7.097891226E-2,-3.533086868E-2,-3.880446196E-2,8.827266018E-2
3.076811667E-1,7.600035489E-2,-1.209279343E-2,-3.266020775E-2,8.360011224E-2
3.176791667E-1,5.570682552E-2,1.084160006E-2,-2.113651514E-2,6.056024251E-2
3.276781667E-1,3.145831257E-2,1.755497336E-2,-1.083138227E-2,3.761809885E-2
3.376761667E-1,-8.024572581E-4,2.255568463E-2,-1.968465149E-2,2.994809428E-2
3.476751667E-1,-2.137193866E-2,3.484784299E-2,-2.523073554E-2,4.803875455E-2
3.576731667E-1,-4.614205979E-2,5.162898646E-2,-2.372741640E-2,7.319584833E-2
3.676721667E-1,-8.061154224E-3,4.772208709E-2,-1.937474906E-2,5.213214656E-2
3.776701667E-1,3.266017120E-2,2.069545464E-2,-1.127343178E-2,4.027504053E-2
3.876691667E-1,4.149922438E-2,2.184823549E-2,-1.021216214E-2,4.799811740E-2
3.976671667E-1,6.610142078E-2,1.299449004E-2,-2.622125387E-2,7.228975554E-2
4.076661667E-1,8.787001994E-2,1.546868338E-3,-4.478031635E-2,9.863472988E-2
4.176641667E-1,5.952366862E-2,-1.373544076E-2,-3.984351218E-2,7.293308524E-2
4.276631667E-1,3.555673566E-2,-3.747207794E-2,-4.226367474E-3,5.182953075E-2
4.376611667E-1,8.541502990E-3,-3.772059374E-2,-7.830591202E-3,3.946034242E-2
4.476601667E-1,-2.756180115E-2,-2.724594644E-2,-2.160487711E-2,4.437076960E-2
4.576581667E-1,-4.117561754E-2,-2.772666065E-2,-2.249891639E-2,5.450138007E-2
4.676571666E-1,-3.178572010E-2,-1.307065688E-2,-2.069621980E-2,4.011866882E-2
4.776551667E-1,-9.119171351E-3,-2.407980935E-2,-5.266002417E-3,2.628169108E-2
4.876541667E-1,1.706290618E-2,-1.395950789E-2,-2.545468390E-2,3.367419725E-2
4.976521667E-1,3.976461131E-2,-4.900016966E-3,-1.825383782E-2,4.402768532E-2
5.076511667E-1,8.017577849E-2,2.337661087E-2,-3.052363515E-2,8.891745439E-2
5.176491667E-1,7.414068449E-2,2.894460370E-2,-3.651001453E-2,8.756490359E-2
5.276481667E-1,4.496114150E-2,1.431117680E-2,-2.678551018E-2,5.425659021E-2
5.376461667E-1,2.389267333E-2,2.835758893E-2,-2.515004396E-2,4.480555100E-2
5.476451667E-1,1.062289249E-2,2.839912700E-2,-2.635398567E-2,4.017323512E-2
5.576431667E-1,-1.461003575E-2,2.072160266E-2,-2.306317270E-2,3.427459549E-2
5.676421667E-1,-1.862926561E-2,-2.525494667E-3,-1.273055792E-2,2.270450981E-2
5.776401667E-1,-9.598423764E-3,-2.114259076E-2,-1.856023192E-2,2.972576478E-2
5.876391667E-1,8.748421334E-3,-2.460630316E-2,-2.980910540E-3,2.628480281E-2
5.976371667E-1,3.487937227E-2,-2.673913674E-2,-2.212995708E-2,4.920657521E-2
6.076361667E-1,4.253202539E-2,-2.550168090E-2,-2.616745949E-2,5.607178300E-2
6.176341667E-1,3.275613863E-2,-2.219319380E-2,-2.108096659E-2,4.483201559E-2
6.276331667E-1,2.830944076E-2,-1.591665548E-2,-1.434614360E-2,3.550459399E-2
6.376315000E-1,2.577946018E-2,3.771969153E-3,-6.567007899E-3,2.686882788E-2
6.476305000E-1,-1.884411424E-3,2.260761750E-2,-3.186557114E-2,3.911610921E-2
6.576285000E-1,-1.148181193E-2,2.938937581E-2,-3.366125107E-2,4.613726519E-2
6.676275000E-1,1.970877126E-3,2.754876825E-2,-2.198026836E-2,3.529803374E-2
6.776255000E-1,1.919523954E-2,3.738057815E-2,-2.047928810E-2,4.674576008E-2
6.876245000E-1,2.852421630E-2,4.071946163E-2,-2.346546113E-2,5.497575227E-2
6.976225000E-1,5.039448392E-2,3.200788232E-2,-4.920782804E-2,7.736613523E-2
7.076215000E-1,4.542029411E-2,1.485085539E-2,-3.319055021E-2,5.818215917E-2
7.176195000E-1,4.650367353E-2,-1.172391178E-2,-1.806848109E-2,5.124950505E-2
7.276185000E-1,3.833189730E-2,-1.459585169E-2,-1.822460175E-2,4.488328582E-2
7.376165000E-1,2.400980037E-2,-1.734669942E-2,-2.197325170E-2,3.688092033E-2
7.476155000E-1,-5.138131119E-3,-3.490470487E-2,-1.973376811E-2,4.042475006E-2
7.576135000E-1,-1.604446739E-2,-3.223757740E-2,-1.853158057E-2,4.049821982E-2
7.676125000E-1,-2.450005285E-2,-4.273728093E-2,-8.051031232E-3,4.991539718E-2
7.776105000E-1,-8.051469773E-3,-3.517817641E-2,-1.342930019E-2,3.850553680E-2
7.876095000E-1,8.815335408E-3,-1.650483398E-2,-2.015418291E-2,2.750110492E-2
7.976075000E-1,2.452274736E-2,-4.080832332E-3,-1.535420358E-2,2.921934117E-2
8.076065000E-1,3.709382247E-2,-1.118340521E-3,-1.773986757E-2,4.113277589E-2
8.176045000E-1,3.492468819E-2,-2.822387042E-3,-1.564188659E-2,3.837145202E-2
8.276035000E-1,4.674706388E-2,1.789438595E-2,-3.330983341E-2,6.012521960E-2
8.376015000E-1,4.320313957E-2,4.611275976E-2,-3.660941720E-2,7.302840070E-2
8.476005000E-1,1.997514848E-2,3.305177477E-2,-3.092533886E-2,4.947527621E-2
8.575985000E-1,1.360208541E-2,2.711270986E-2,-7.580915093E-3,3.126637231E-2
8.675975000E-1,1.439632002E-2,9.570252062E-3,-1.116993606E-2,2.058181786E-2
8.775955000E-1,1.174800642E-2,8.952885446E-3,-2.075176835E-2,2.547166469E-2
8.875945000E-1,1.503987920E-2,1.876368419E-2,-2.838589311E-2,3.720259048E-2
8.975925000E-1,2.352550473E-2,1.152727060E-2,-2.448813915E-2,3.586079056E-2
9.075915000E-1,1.487948276E-2,-1.483183138E-2,-8.911741376E-3,2.282107280E-2
9.175895000E-1,1.533424996E-2,-2.599338377E-2,-7.709553838E-3,3.114855441E-2
9.275885000E-1,1.208396550E-2,-2.063531283E-2,-1.998052061E-2,3.116182860E-2
9.375865000E-1,-3.797218390E-3,-2.647345844E-2,-3.180066705E-2,4.155171831E-2
9.475855000E-1,5.487100258E-3,-8.667919335E-3,-2.520968556E-2,2.721707811E-2
9.575835000E-1,5.057731904E-3,-1.178883757E-2,-3.949209452E-3,1.342213093E-2
9.675825000E-1,1.979527351E-2,-1.240324632E-2,-1.188037276E-2,2.620756817E-2
9.775805000E-1,2.478203483E-2,1.796991782E-2,-2.759885788E-2,4.121606668E-2
9.875795000E-1,2.426459279E-2,2.096657587E-2,-2.759710371E-2,4.230801225E-2
9.975775000E-1,3.297482450E-2,2.554656284E-2,-3.433426559E-2,5.402599113E-2
1.007576500E0,4.603366703E-2,2.582948586E-2,-1.846843064E-2,5.592265882E-2
1.017574500E0,3.720356740E-2,1.432497257E-2,-9.337418675E-3,4.094505653E-2
1.027573500E0,2.710023656E-2,1.925355638E-2,-2.146512866E-2,3.957112588E-2
1.037571500E0,1.708878011E-2,1.174399902E-2,-2.834671676E-2,3.512099471E-2
1.047570500E0,3.087439500E-3,-5.531043455E-3,-1.831464887E-2,1.937914052E-2
1.057568500E0,-8.765707165E-3,-2.507297035E-2,-5.436156392E-3,2.711168126E-2
1.067567500E0,-5.725191571E-3,-3.786591075E-2,-8.276149035E-3,3.918034786E-2
1.077565500E0,2.119432949E-3,-3.288620035E-2,-7.075715661E-3,3.370548800E-2
1.087564500E0,-3.963206224E-3,-2.200144624E-2,-1.425317287E-2,2.651270596E-2
1.097562500E0,1.181777101E-2,-3.030110291E-2,-2.217848897E-2,3.936625360E-2
1.107561500E0,2.427570250E-2,-2.385409769E-2,-1.828248918E-2,3.863388563E-2
1.117559500E0,2.486301877E-2,-9.953141904E-3,-1.348718762E-2,2.998564600E-2
1.127558500E0,3.153681144E-2,1.964056669E-2,-2.052548110E-2,4.244546749E-2
1.137556500E0,3.318579935E-2,5.198581279E-2,-2.322455585E-2,6.590297417E-2
1.147555500E0,2.797534548E-2,5.570742851E-2,-3.654802144E-2,7.226129958E-2
1.157553500E0,2.155203290E-2,4.853890201E-2,-3.444828629E-2,6.330244513E-2
1.167552500E0,1.140568849E-2,4.308800880E-2,-2.681006849E-2,5.201390203E-2
1.177550500E0,3.128772005E-3,3.874096028E-2,-3.085107923E-2,4.962298164E-2
1.187549500E0,1.676762179E-2,3.814533914E-2,-3.114636362E-2,5.202226451E-2
1.197547500E0,2.128342643E-2,2.359706688E-3,-1.183301032E-2,2.446574318E-2
1.207546500E0,5.262822993E-3,-2.956492247E-2,-3.300168514E-3,3.021047929E-2
1.217544500E0,5.519917756E-3,-5.583631393E-2,-1.422569096E-2,5.788379505E-2
1.227543500E0,1.174884696E-2,-4.710781882E-2,-2.380343020E-2,5.407203795E-2
1.237541500E0,7.316145860E-3,-3.752931213E-2,-1.706451416E-2,4.187090759E-2
1.247540500E0,2.188075606E-2,-4.285240713E-2,-6.138406992E-3,4.850542570E-2
1.257538500E0,2.631254353E-2,-4.094988761E-2,-1.018292606E-2,4.972861575E-2
1.267537500E0,4.743626788E-3,-2.224201120E-2,-1.032676756E-2,2.497701315E-2
1.277535500E0,1.348283876E-2,-3.797711749E-3,-2.798711300E-2,3.129677379E-2
1.287534500E0,2.773509800E-2,2.489264542E-2,-2.828765988E-2,4.678751072E-2
1.297532500E0,1.511932824E-2,3.618165683E-2,-1.436543941E-2,4.176209079E-2
1.307531500E0,1.195192806E-2,4.699495842E-2,-2.514244258E-2,5.462158108E-2
1.317529500E0,2.147481311E-2,4.838727183E-2,-2.169784784E-2,5.721269329E-2
1.327528500E0,1.398854982E-2,3.442310215E-2,-2.409286737E-2,4.428426071E-2
1.337526500E0,2.121490438E-2,1.957635010E-2,-3.037687004E-2,4.190536820E-2
1.347525500E0,2.288384590E-2,9.575135401E-3,-3.262278557E-2,4.098292034E-2
1.357523500E0,1.296174221E-2,-7.745748331E-3,-3.366943717E-2,3.690033032E-2
1.367522500E0,6.413993575E-3,-2.945099085E-2,1.805620193E-3,3.019537116E-2
1.377520500E0,9.258992895E-3,-4.328228254E-2,-2.834730148E-3,4.435223361E-2
1.387519500E0,1.168997280E-2,-2.553439333E-2,-1.660667717E-2,3.262579399E-2
1.397517500E0,-1.113441423E-2,-2.343707016E-2,-1.884499133E-2,3.206875638E-2
1.407516500E0,1.211864680E-2,-1.572230408E-2,-1.884616077E-2,2.737207010E-2
1.417514500E0,2.114207000E-2,-2.564398065E-3,-1.809420884E-2,2.794572695E-2
1.427513500E0,2.299903605E-2,7.502379678E-3,-2.917292833E-2,3.789856340E-2
1.437511500E0,2.956593432E-2,2.547889960E-2,-3.814840436E-2,5.457673086E-2
1.447510500E0,2.884022176E-2,3.336380138E-2,-3.155859232E-2,5.422957111E-2
1.457508500E0,2.728153680E-2,2.956644823E-2,-1.749077618E-2,4.386780553E-2
1.467507500E0,3.678026553E-2,3.374592149E-2,-2.602478743E-2,5.629267013E-2
1.477505500E0,2.771890853E-2,2.190337747E-2,-3.620654404E-2,5.058665502E-2
1.487504500E0,1.326411635E-2,6.483002140E-3,-3.096977770E-2,3.430879232E-2
1.497502500E0,1.478932600E-2,-6.926456345E-3,-1.510335803E-2,2.224435625E-2
1.507501500E0,1.118477337E-2,-4.535616660E-2,-8.067403436E-3,4.740637090E-2
1.517499500E0,2.485249378E-3,-5.734071573E-2,-1.585063219E-2,5.954306581E-2
1.527498500E0,1.135989748E-2,-3.602064141E-2,-2.004308581E-2,4.275814738E-2
1.537496500E0,9.376302660E-3,-3.589776766E-2,-1.225751817E-2,3.907443571E-2
1.547495500E0,9.790870249E-3,-4.661393923E-2,-1.927242279E-3,4.767006118E-2
1.557493500E0,1.230097029E-2,-4.526898370E-2,3.917049766E-3,4.707375101E-2
1.567492500E0,2.012392357E-3,-1.395251635E-2,-1.703586280E-2,2.211205683E-2
1.577490500E0,6.974193379E-3,2.208423459E-2,-2.182122409E-2,3.182009761E-2
1.587489500E0,1.597375263E-2,4.276167478E-2,-1.149328709E-2,4.707246808E-2
1.597487500E0,1.960560445E-2,5.905420116E-2,-9.548503160E-3,6.295198419E-2
1.607486500E0,1.580432955E-2,5.669956396E-2,-2.346780002E-2,6.336682905E-2
1.617484500E0,2.167471480E-2,6.997414134E-2,-3.170126438E-2,7.981944551E-2
1.627483500E0,1.317187652E-2,7.528937458E-2,-1.957823217E-2,7.890054138E-2
1.637481625E0,2.112982739E-2,7.269898038E-2,-3.814080298E-2,8.477223724E-2
1.647480625E0,2.455571104E-2,3.981246712E-2,-1.718438208E-2,4.983290549E-2
1.657478625E0,3.411985550E-2,1.046990672E-2,-1.972909033E-2,4.078014825E-2
1.667477625E0,1.797554690E-2,-1.756675572E-2,-1.987936378E-2,3.204528510E-2
1.677475625E0,4.035748243E-3,-1.754080185E-2,-2.751758158E-2,3.288136691E-2
1.687474625E0,1.825683452E-3,-3.703109738E-2,-4.383014381E-2,5.740833389E-2
1.697472625E0,6.596682519E-3,-1.730185630E-2,-2.077281833E-2,2.782769183E-2
1.707471625E0,1.719859812E-2,-4.378189514E-2,1.686336994E-3,4.706899035E-2
1.717469625E0,9.445226714E-3,-4.392919473E-2,-1.642190516E-2,4.783999818E-2
1.727468625E0,3.757895865E-3,-4.212353799E-2,-2.674516439E-2,5.003816596E-2
1.737466625E0,2.585682616E-2,-4.237962320E-2,-1.910928547E-2,5.319560802E-2
1.747465625E0,2.434893887E-2,-2.051182694E-2,-1.536706746E-2,3.535184056E-2
1.757463625E0,2.151278347E-2,-9.695187189E-3,-2.105523884E-2,3.162466743E-2
1.767462625E0,2.134014443E-2,-7.806665583E-3,-1.462271690E-2,2.702165134E-2
1.777460625E0,1.180183735E-2,-1.309988953E-2,-1.746738732E-2,2.481934911E-2
1.787459625E0,2.797381058E-3,7.269681052E-3,-1.641898155E-2,1.817296230E-2
1.797457625E0,8.109503388E-3,1.771488899E-2,-2.540264368E-2,3.201367900E-2
1.807456625E0,8.582616225E-3,1.305716374E-2,-2.525880218E-2,2.970114330E-2
1.817454625E0,1.145845961E-2,2.225256131E-3,-1.268611908E-2,1.723907418E-2
1.827453625E0,2.142017819E-2,-5.576516977E-3,-2.121603727E-2,3.066010132E-2
1.837451625E0,1.666211609E-2,-7.155702602E-3,-2.106225550E-2,2.779296312E-2
1.847450625E0,2.398326863E-2,2.009787834E-2,-3.094112635E-2,4.400539952E-2
1.857448625E0,1.182920963E-2,3.514201275E-2,-2.285735071E-2,4.355857828E-2
1.867447625E0,1.469313931E-2,3.594076982E-2,-2.800231576E-3,3.892901970E-2
1.877445625E0,8.213949278E-3,3.224082077E-2,-3.552183509E-3,3.345978922E-2
1.887444625E0,-1.001865584E-2,2.829850464E-2,-1.313343108E-2,3.276684058E-2
1.897442625E0,-1.523674764E-3,3.473324670E-2,-2.495767057E-2,4.279725845E-2
1.907441625E0,1.396592841E-2,3.135745039E-2,-3.438572109E-2,4.858718623E-2
1.917439625E0,1.213936787E-2,2.961065181E-2,-3.228949428E-2,4.546170249E-2
1.927438625E0,2.873544697E-2,5.289709907E-3,-1.821349204E-2,3.443019366E-2
1.937436625E0,4.179787092E-2,-2.543677452E-2,-1.117929161E-2,5.019031851E-2
1.947435625E0,3.651293814E-2,-2.480260744E-2,-2.105757773E-2,4.890588479E-2
1.957433625E0,1.927600421E-2,-2.930633164E-2,-2.135578573E-2,4.106695748E-2
1.967432625E0,1.541673224E-2,-3.200608247E-2,-2.854201376E-2,4.557095016E-2
1.977430625E0,1.805163380E-2,-4.906539809E-2,-1.642015100E-2,5.479868732E-2
1.987429625E0,6.304577552E-3,-5.737933476E-2,-1.851754725E-2,6.062206951E-2
1.997427625E0,-8.762089200E-3,-6.476022940E-2,-1.058053672E-2,6.620127851E-2
2.007426625E0,-7.224600390E-4,-4.532571539E-2,-1.491975546E-2,4.772359508E-2
2.017424625E0,1.085871801E-2,-2.830976510E-2,-2.583884597E-2,3.983717507E-2
2.027423625E0,6.384830587E-3,-2.132138309E-2,-2.299008250E-2,3.199861453E-2
2.037421625E0,7.101589590E-3,2.205450973E-3,-1.999455392E-2,2.133257545E-2
2.047420625E0,9.639719725E-3,2.204184685E-2,-1.655171335E-2,2.920147982E-2
2.057418625E0,1.508497585E-2,4.489703226E-2,-1.700253367E-2,5.032281941E-2
2.067417625E0,1.389411729E-2,6.004222529E-2,-1.999163032E-2,6.479028165E-2
2.077415625E0,1.302353997E-2,6.361740937E-2,-2.373034000E-2,6.913693951E-2
2.087414625E0,6.325042807E-3,5.811886593E-2,-1.893679261E-2,6.145250896E-2
2.097412625E0,4.739497192E-3,5.150672940E-2,-1.968289733E-2,5.534277238E-2
2.107411625E0,7.889099903E-3,6.330565684E-2,-1.758257747E-2,6.617394590E-2
2.117409625E0,2.155448142E-2,4.261641716E-2,-3.045346856E-2,5.664069587E-2
2.127408625E0,3.073683925E-2,3.246910430E-2,-1.907887995E-2,4.861069513E-2
2.137406625E0,2.643405598E-2,5.713964232E-3,-1.653592587E-2,3.169929884E-2
2.147405625E0,2.425936684E-2,3.686566686E-3,-1.713701963E-2,2.992966915E-2
2.157403625E0,2.763854586E-2,-3.013223258E-3,-2.552251160E-2,3.774079133E-2
2.167402625E0,2.096884623E-2,-2.198489131E-2,-2.911270201E-2,4.207822925E-2
2.177400625E0,1.021779008E-2,-3.483598410E-2,-1.414499938E-2,3.896190486E-2
2.187399625E0,3.494296074E-3,-6.298527511E-2,-4.864298701E-3,6.326939535E-2
2.197397625E0,-5.737836175E-3,-6.127043294E-2,-5.908611417E-3,6.182152057E-2
2.207396625E0,2.812766545E-3,-4.876235244E-2,-2.625224411E-2,5.545141109E-2
2.217394625E0,7.679623403E-3,-4.196758635E-2,-2.534709513E-2,4.962590202E-2
2.227393625E0,9.884279519E-3,-4.900659246E-2,-2.040093541E-2,5.399577069E-2
2.237391625E0,1.879485145E-2,-3.365647280E-2,-1.575298369E-2,4.164325993E-2
2.247390625E0,2.805256527E-2,-2.064982580E-2,-1.096235991E-2,3.651759930E-2
2.257388625E0,2.615159892E-2,3.611226683E-5,-1.710076690E-2,3.124649834E-2
2.267386625E0,1.749187253E-2,2.119982267E-2,-3.611649692E-2,4.538501334E-2
2.277385625E0,5.801899731E-3,2.600189649E-2,-2.968455970E-2,3.988651083E-2
2.287383625E0,-2.039983906E-3,3.449449757E-2,-1.636518717E-2,3.823416336E-2
2.297382625E0,-1.395536687E-2,3.876239855E-2,-1.546413124E-2,4.400471748E-2
2.307381625E0,-8.746447898E-3,4.411847549E-2,-2.983366370E-2,5.397210132E-2
2.317379625E0,-8.997329995E-3,4.070403046E-2,-3.252513707E-2,5.287394996E-2
2.327377625E0,6.490153559E-3,3.733325225E-2,-1.456015170E-2,4.059423400E-2
2.337376625E0,1.993140399E-2,2.485958809E-2,-9.015821815E-3,3.311412128E-2
2.347374625E0,2.936325520E-2,2.601162662E-2,-2.697379053E-2,4.760662613E-2
2.357373625E0,2.482866637E-2,2.758569022E-2,-3.700176537E-2,5.240766756E-2
2.367371625E0,3.232640482E-2,1.374899214E-2,-2.054185331E-2,4.069396726E-2
2.377370625E0,2.888078682E-2,1.552945446E-2,-1.979340971E-2,3.830199565E-2
2.387368625E0,1.757578008E-2,1.678630889E-2,-1.605411530E-2,2.912769867E-2
2.397367625E0,9.431522302E-3,1.244325635E-2,-2.414022982E-2,2.874959021E-2
2.407365625E0,1.217002921E-2,3.499619096E-3,-2.773451328E-2,3.048868924E-2
2.417364625E0,7.964638621E-3,-1.297347090E-2,-1.561381996E-2,2.180682896E-2
2.427362625E0,5.724826120E-3,-2.970058473E-2,-6.937136650E-3,3.103259951E-2
2.437361625E0,1.724848218E-2,-5.284514336E-2,-1.742002487E-2,5.825441254E-2
2.447359625E0,1.727340594E-2,-4.328780542E-2,-2.595345140E-2,5.334591165E-2
2.457358625E0,2.151855759E-2,-4.249855922E-2,-1.772232592E-2,5.082574832E-2
2.467356625E0,1.625120301E-2,-4.919156548E-2,-1.727209032E-2,5.460986007E-2
2.477355625E0,1.159199540E-2,-5.786565865E-2,-7.541154027E-3,5.949519151E-2
2.487353625E0,9.247371554E-3,-4.079156511E-2,-1.727209032E-2,4.525252223E-2
2.497352625E0,-4.755796306E-3,-1.318471755E-2,-2.715388477E-2,3.055794223E-2
2.507350625E0,-9.511702247E-3,8.926146997E-3,-1.553020477E-3,1.313622672E-2
2.517349625E0,-3.773266733E-2,-1.361749031E-2,-3.372790933E-2,5.240956109E-2
2.527347625E0,7.264010623E-2,7.154115859E-2,-6.201615393E-2,1.193345120E-1
2.537346625E0,5.498283058E-2,1.161934666E-1,2.938225865E-3,1.285794171E-1
2.547344625E0,5.111613996E-2,8.426441663E-2,-6.348322034E-3,9.876058357E-2
2.557343625E0,-2.961044624E-2,2.061653778E-2,-3.089610279E-2,4.750146655E-2
2.567341625E0,-1.611134492E-2,-7.728976644E-2,-8.538396657E-2,1.162914665E-1
2.577340625E0,5.192926839E-2,1.568783292E-2,1.145761907E-2,5.544397219E-2
2.587338625E0,3.413695861E-2,7.763267823E-2,4.961713314E-2,9.825489592E-2
2.597337625E0,-5.303702340E-2,1.189364960E-1,-5.037376285E-2,1.396292659E-1
2.607335625E0,-3.796542305E-2,3.530643828E-2,-6.922810972E-2,8.648958959E-2
2.617334625E0,1.932007760E-2,-9.890160539E-2,-3.363903165E-3,1.008271233E-1
2.627332625E0,-5.492216572E-3,-5.702573353E-2,2.478634715E-2,6.242164474E-2
2.637331500E0,1.805550758E-2,-6.968034160E-2,-5.305295706E-2,8.942017452E-2
2.647329500E0,6.176954761E-2,3.003954965E-2,-4.796938777E-2,8.377895749E-2
2.657328500E0,6.917800639E-2,3.721660486E-2,-2.163469791E-4,7.855392448E-2
2.667326500E0,2.016430590E-2,-7.625488692E-3,-1.563662410E-2,2.663177282E-2
2.677325500E0,-8.652198091E-3,-5.942161187E-2,-6.713656068E-2,9.007278317E-2
2.687323500E0,4.491392523E-5,-6.006599788E-2,-1.699083924E-2,6.242287030E-2
2.697322500E0,-4.179078117E-3,-2.110181329E-2,2.791636169E-2,3.524307688E-2
2.707320500E0,-1.733333990E-3,8.389104222E-3,-2.193173647E-2,2.354533034E-2
2.717319500E0,-2.560689423E-2,1.237197171E-2,-5.231153011E-2,5.954221107E-2
2.727317500E0,-1.374081060E-2,-2.903243984E-2,-2.356252491E-2,3.983572542E-2
2.737316500E0,2.925997876E-2,-2.491232724E-2,1.438999772E-3,3.845570342E-2
2.747314500E0,6.445813391E-2,-5.704622391E-3,-2.460742235E-2,6.923091058E-2
2.757313500E0,5.285488263E-2,2.043743483E-2,-1.113777637E-2,5.775272654E-2
2.767311500E0,2.172470849E-2,3.015552323E-2,-1.832809746E-2,4.143956680E-2
2.777310500E0,1.371753138E-2,-5.161170519E-3,-3.270523131E-2,3.583909183E-2
2.787308500E0,-1.184316985E-3,1.016840167E-2,-4.034578800E-2,4.162429109E-2
2.797307500E0,-5.802813359E-3,3.720150260E-2,-8.318248987E-3,3.855927521E-2
2.807305500E0,-1.216388963E-2,6.289415448E-2,-8.475539088E-3,6.461787401E-2
2.817304500E0,5.403338894E-3,5.293133497E-2,-2.897997022E-2,6.058680522E-2
2.827302500E0,1.246513087E-2,3.388518572E-2,-1.115824163E-2,3.779009997E-2
2.837301500E0,1.348335039E-2,1.084206486E-2,-3.817647099E-3,1.771794394E-2
2.847299500E0,1.190050911E-2,-2.907811208E-3,-2.716616392E-2,2.980063666E-2
2.857298500E0,3.801293168E-2,3.478259628E-3,-3.210823059E-2,4.988005350E-2
2.867296500E0,4.157830797E-2,9.391021198E-3,-1.725513339E-3,4.266057160E-2
2.877295500E0,1.822584428E-2,3.720732926E-3,-3.975521922E-3,1.902183029E-2
2.887293500E0,8.190889321E-3,-5.814009863E-3,-2.672820747E-2,2.855329146E-2
2.897292500E0,-7.054154053E-3,-1.332464873E-2,-3.062069893E-2,3.413113763E-2
2.907290500E0,-1.477003019E-2,-9.186477143E-3,-3.379690647E-3,1.771912704E-2
2.917289500E0,-1.165393934E-2,-7.906581023E-3,3.057509065E-3,1.441099189E-2
2.927287500E0,-9.397169910E-3,1.893651624E-3,-2.298832834E-2,2.490694599E-2
2.937286500E0,5.362262204E-3,2.942685509E-3,-2.373501778E-2,2.451049414E-2
2.947284500E0,2.896016277E-2,-7.850323271E-3,-1.354975283E-2,3.292285536E-2
2.957283500E0,3.528177034E-2,-1.025357801E-2,-3.150830626E-2,4.840157584E-2
2.967281500E0,2.789403263E-2,-6.724246609E-3,-1.833394468E-2,3.405034620E-2
2.977280500E0,3.928291038E-2,-1.458431486E-3,3.370335102E-3,3.945419152E-2
2.987278500E0,3.892323352E-2,-3.592175266E-3,-1.938527405E-2,4.363153311E-2
2.997277500E0,1.041060202E-2,4.747539398E-3,-3.061426699E-2,3.268261171E-2
3.007275500E0,-3.648333661E-3,-9.816936040E-3,-9.508742094E-3,1.414562646E-2
3.017274500E0,-5.434658043E-3,-1.148891538E-2,-6.771075726E-4,1.272749619E-2
3.027272500E0,-9.726185426E-3,-8.344315920E-3,-5.463638306E-3,1.393117492E-2
3.037271500E0,1.007109806E-3,2.214064195E-2,-2.117978454E-2,3.065624845E-2
3.047269500E0,8.265806772E-3,3.657640784E-2,-3.494880795E-2,5.125989026E-2
3.057268500E0,9.172271378E-3,3.121635890E-2,-2.432090878E-2,4.062140112E-2
3.067266500E0,2.826916806E-2,2.965832489E-2,-8.227032423E-4,4.098095825E-2
3.077265500E0,2.864430349E-2,3.031390968E-2,-8.908817768E-3,4.264734783E-2
3.087263500E0,1.691018421E-2,3.583103859E-2,-3.390507996E-2,5.214759922E-2
3.097262500E0,-1.873776801E-3,3.340776513E-2,-3.240585387E-2,4.658035182E-2
3.107260500E0,1.092150249E-3,1.504886701E-2,-8.455073833E-3,1.729593778E-2
3.117259500E0,7.320019640E-3,1.429415021E-2,-1.669087708E-2,2.316227095E-2
3.127257500E0,1.360789608E-2,-1.538030706E-2,-2.088216126E-2,2.928810919E-2
3.137256500E0,1.840451326E-2,-6.858027934E-3,-7.260487676E-3,2.093975494E-2
3.147254500E0,3.938984133E-2,-6.446737982E-3,-1.639266908E-2,4.314903974E-2
3.157253500E0,3.702299807E-2,-9.818663938E-3,-2.402796328E-2,4.521561199E-2
3.167251500E0,2.620312750E-2,-3.706897181E-2,-1.130734563E-2,4.678214004E-2
3.177250500E0,2.192822814E-2,-3.618627522E-2,-4.873069525E-3,4.259155444E-2
3.187248500E0,3.159733012E-2,-7.575697139E-3,-3.541249216E-2,4.806066020E-2
3.197247500E0,8.685673401E-4,4.580928013E-4,-1.236393750E-2,1.240287099E-2
3.207245500E0,6.147799082E-3,-1.349079303E-2,4.545040727E-3,1.550658974E-2
3.217244500E0,-1.050941996E-2,2.325269558E-2,-2.643409252E-2,3.674094456E-2
3.227242500E0,-2.481123436E-2,-9.267929314E-3,-2.688081980E-2,3.773685648E-2
3.237241500E0,1.232077774E-2,4.420576118E-3,-1.819361150E-2,2.241317819E-2
3.247239500E0,-2.452673078E-2,2.448923779E-2,5.308102369E-3,3.506364557E-2
3.257238500E0,3.673754431E-2,2.422516291E-3,-1.429059505E-3,3.684505338E-2
3.267236500E0,6.815660745E-3,-3.192080677E-3,-2.672236025E-2,2.776197306E-2
3.277235500E0,-1.531612359E-2,2.726207653E-2,-4.737531066E-2,5.676464145E-2
3.287233500E0,7.607435871E-2,4.425127124E-3,-1.878710389E-2,7.848468052E-2
3.297232500E0,4.275297705E-2,2.886249372E-2,1.069514215E-2,5.268060987E-2
3.307230500E0,1.744516790E-2,4.883309461E-2,-2.179198802E-2,5.624851779E-2
3.317229500E0,2.185309142E-2,4.194834536E-2,-5.083393872E-2,6.943565805E-2
3.327227500E0,1.354098201E-2,2.153026116E-2,-1.492034018E-2,2.948774136E-2
3.337226500E0,1.250302814E-2,3.392049286E-2,-1.671718955E-2,3.982951135E-2
3.347224500E0,1.984033361E-3,2.743134429E-3,-2.031381190E-2,2.059398283E-2
3.357223500E0,2.054532509E-2,-1.446857996E-2,-2.210481405E-2,3.346749159E-2
3.367221500E0,2.310011979E-2,1.436168897E-2,7.986711860E-3,2.834891904E-2
3.377220500E0,1.858647130E-2,-2.501639854E-2,-1.506418169E-2,3.461512215E-2
3.387218500E0,-1.262465023E-2,-7.163204625E-3,-4.649647415E-2,4.870950012E-2
3.397217500E0,3.004774489E-3,-3.027170238E-2,-2.040678263E-3,3.048883406E-2
3.407215500E0,2.767611422E-2,-3.178260463E-2,2.071259201E-2,4.695862778E-2
3.417214500E0,2.561409362E-3,-2.461071598E-2,5.294069052E-3,2.530366230E-2
3.427212500E0,5.840527900E-3,5.079993579E-3,-2.928344071E-2,3.028923902E-2
3.437211500E0,1.335847579E-2,2.642361321E-2,-3.496810377E-2,4.581947721E-2
3.447209500E0,1.159619808E-2,-3.852169655E-3,-3.679652810E-3,1.276130345E-2
3.457208500E0,3.818688635E-2,2.906409018E-2,-1.731945276E-3,4.802040464E-2
3.467206500E0,4.286495123E-2,1.850190366E-2,-1.610323191E-2,4.938662330E-2
3.477205500E0,3.780736551E-3,3.966416254E-2,-5.068074167E-2,6.446764564E-2
3.487203500E0,5.373591185E-3,4.106358854E-2,-3.945233345E-2,5.719773073E-2
3.497202500E0,3.202907391E-2,2.451430544E-2,-2.628557324E-2,4.814295491E-2
3.507200500E0,6.625991687E-3,2.468593949E-3,-9.121656418E-5,7.071495060E-3
3.517199500E0,7.560888380E-3,-1.501698598E-3,7.990220189E-3,1.110251100E-2
3.527197500E0,2.992166430E-3,-5.008836847E-4,-8.024134040E-3,8.578500539E-3
3.537196500E0,-6.612250730E-3,-2.362707498E-2,-5.532460034E-2,6.052083884E-2
3.547194500E0,2.495445460E-3,-1.890468774E-2,1.856490970E-3,1.915883675E-2
3.557193500E0,3.555764928E-3,-1.940714173E-2,4.212275684E-2,4.651459188E-2
3.567191500E0,6.686035283E-3,-7.050315448E-2,-3.062069893E-2,7.715584917E-2
3.577190500E0,-2.949262485E-3,-2.579929732E-3,-3.166618109E-2,3.190769831E-2
3.587188500E0,-9.303322099E-3,-2.031820188E-2,-1.310302556E-2,2.590502670E-2
3.597187500E0,4.622823313E-2,2.348778334E-2,-5.217645943E-2,7.356023670E-2
3.607185500E0,4.019825544E-2,2.237448490E-3,-2.627855659E-2,4.807773344E-2
3.617184500E0,4.355177980E-2,2.007732857E-2,-9.660184979E-3,4.892009628E-2
3.627182500E0,3.881242879E-2,1.448136618E-2,-9.063184261E-3,4.240584752E-2
3.637181500E0,2.026356239E-2,1.122890043E-2,-2.133824408E-2,3.149636211E-2
3.647179375E0,-2.107738517E-3,1.919953588E-2,-3.271283269E-2,3.798939539E-2
3.657178375E0,-1.992160991E-2,1.266338689E-2,-2.028866887E-2,3.112654805E-2
3.667176375E0,-1.369564086E-2,-1.870263903E-4,2.910159230E-3,1.400266347E-2
3.677175375E0,-1.638894148E-2,9.090236770E-3,-1.280189395E-2,2.269621766E-2
3.687173375E0,-2.525116425E-2,-1.634232478E-2,-2.581896544E-2,3.963977613E-2
3.697172375E0,1.544183873E-2,9.417125818E-3,-3.269938409E-2,3.736819988E-2
3.707170375E0,5.056281064E-2,1.149262471E-2,-2.087222099E-2,5.589568723E-2
3.717169375E0,2.610021651E-2,3.805697995E-3,-2.491206229E-2,3.628106237E-2
3.727167375E0,3.401975848E-2,5.295493169E-4,-5.185544729E-2,6.202105935E-2
3.737166375E0,5.400002327E-2,-1.263103420E-2,-3.000791073E-2,6.305569161E-2
3.747164375E0,3.533033878E-2,-1.001415623E-3,-1.010574281E-2,3.676087198E-2
3.757163375E0,2.763613388E-3,-8.784071077E-5,-3.240643859E-2,3.252418388E-2
3.767161375E0,-2.608698718E-2,1.901091406E-3,-2.491849422E-2,3.612584121E-2
3.777160375E0,-8.264235333E-3,-3.335653347E-2,-2.614874840E-3,3.446437989E-2
3.787158375E0,-1.279458493E-2,-2.061608554E-2,4.272560477E-3,2.463694704E-2
3.797157375E0,-3.202673502E-2,-1.062549633E-2,-1.892217457E-2,3.868671114E-2
3.807155375E0,4.900880344E-3,-4.774331523E-3,-1.681951582E-2,1.815789036E-2
3.817154375E0,2.036859300E-2,3.769777133E-2,-1.980978191E-2,4.720623903E-2
3.827152375E0,3.604084857E-2,3.757205162E-2,-2.804090738E-2,5.913454418E-2
3.837151375E0,3.670633480E-2,5.463620947E-2,-2.609729290E-2,7.080634926E-2
3.847149375E0,2.152400281E-2,4.056563417E-2,-2.475301802E-2,5.216862346E-2
3.857148375E0,1.691124402E-2,4.547778868E-2,-3.433426559E-2,5.943955948E-2
3.867146375E0,1.025097303E-2,4.125483817E-2,-2.325496137E-2,4.845448740E-2
3.877145375E0,-9.658832811E-3,5.792167315E-2,-3.343905687E-2,6.757502346E-2
3.887143375E0,-3.339783400E-3,5.284323845E-2,-1.473381400E-2,5.496041555E-2
3.897142375E0,-1.996027462E-2,1.291120947E-2,-1.038348556E-2,2.594086863E-2
3.907140375E0,-5.039148722E-2,4.357803288E-2,2.929981291E-2,7.277929631E-2
3.917139375E0,7.223354202E-2,-3.230753385E-3,-1.126699984E-2,7.317832770E-2
3.927137375E0,1.566523891E-1,-6.026219480E-2,-1.674069536E-1,2.370582022E-1
3.937136375E0,5.061422959E-2,1.782223108E-2,9.214977980E-2,1.066349571E-1
3.947134375E0,-7.809895713E-2,-6.173524547E-2,7.778375566E-2,1.263368524E-1
3.957133375E0,1.051402465E-4,-9.050869477E-2,-9.525815964E-2,1.313999690E-1
3.967131375E0,-7.373375483E-3,-9.736810913E-2,-5.439781666E-2,1.117767319E-1
3.977130375E0,-3.584467448E-2,-3.685236901E-2,4.873888135E-2,7.084078166E-2
3.987128375E0,-5.970920809E-2,-1.296952403E-2,5.308219314E-2,8.093897276E-2
3.997127375E0,6.941522062E-3,4.463281349E-3,-8.028168619E-2,8.070473806E-2
4.007125375E0,5.569118422E-2,-1.234031566E-2,-6.096073151E-2,8.348653889E-2
4.017124375E0,5.432275303E-2,-7.059265799E-3,7.448183298E-3,5.528354334E-2
4.027122375E0,5.605455212E-2,-1.663994692E-2,-2.413906038E-2,6.325895101E-2
4.037121375E0,6.497838993E-2,1.614757367E-2,-7.503614902E-2,1.005651975E-1
4.047119375E0,4.646299884E-2,1.930315265E-2,-3.986573160E-2,6.419266717E-2
4.057118375E0,1.370623894E-3,4.072077268E-2,1.431339920E-2,4.318487391E-2
4.067116375E0,-1.382610686E-2,-9.487906820E-4,-1.084132254E-2,1.759533203E-2
4.077115375E0,-2.243371993E-2,8.741155255E-2,-4.886459649E-2,1.026245589E-1
4.087113375E0,-6.710275646E-2,6.473251908E-2,4.725719690E-3,9.335636763E-2
4.097112375E0,-5.134184249E-3,4.757969369E-2,-8.891276121E-3,4.867485891E-2
4.107110375E0,2.505787723E-2,4.094814715E-2,-5.095263720E-2,7.000585121E-2
4.117109375E0,2.798868444E-2,-1.454346315E-2,-1.831347942E-2,3.647276114E-2
4.127107375E0,5.727417167E-2,3.216411718E-2,-1.007884562E-2,6.645633381E-2
4.137106375E0,5.780922845E-2,3.061533365E-2,-1.965716958E-2,6.830526967E-2
4.147104375E0,4.537972905E-2,5.332079151E-2,-4.945048749E-2,8.571917714E-2
4.157103375E0,6.096599400E-3,1.574085757E-2,-2.714920700E-2,3.196908760E-2
4.167101375E0,-2.941905957E-2,-1.533844579E-2,7.125416994E-3,3.393406183E-2
4.177100375E0,-6.599131040E-3,-2.894318529E-2,-1.517527878E-2,3.333984990E-2
4.187098375E0,8.230175301E-3,-3.663765286E-2,-2.205628216E-2,4.354920177E-2
4.197097375E0,-5.614788830E-3,-4.614719894E-2,-1.741417766E-2,4.964215353E-2
4.207095375E0,1.290180825E-2,-7.149517572E-2,-2.399404943E-2,7.650968054E-2
4.217094375E0,4.562750481E-2,-7.652374464E-2,-7.376847267E-3,8.939894051E-2
4.227092375E0,5.586294618E-2,-5.798085337E-2,-5.243432164E-2,9.608228868E-2
4.237091375E0,3.488828927E-2,-3.359487603E-2,5.631453395E-3,4.875983687E-2
4.247089375E0,6.976312995E-2,-3.574653491E-2,1.875202060E-3,7.841062072E-2
4.257088375E0,1.895480935E-2,7.716924527E-3,-1.578450018E-1,1.591662034E-1
4.267086375E0,-2.165242229E-2,-1.644945560E-2,-7.910230279E-2,8.364559933E-2
4.277085375E0,2.786973014E-2,5.420771820E-2,2.132263201E-1,2.217671350E-1
4.287083375E0,8.974120203E-2,5.718377281E-2,2.539305425E-1,2.753256029E-1
4.297082375E0,-2.191613537E-1,2.483994054E-2,-2.687696064E-1,3.476863858E-1
4.307080375E0,-2.448554445E-1,5.594830639E-2,-1.675531340E-1,3.019245839E-1
4.317079375E0,2.795480713E-3,5.624491097E-2,-2.189372957E-2,6.042052728E-2
4.327077375E0,1.647243972E-1,6.043446839E-2,5.249805629E-2,1.831461109E-1
4.337076375E0,1.554214040E-1,1.206314393E-1,-1.935720742E-2,1.976928387E-1
4.347074375E0,9.687871546E-2,6.609050293E-2,-2.774445355E-2,1.205122184E-1
4.357073375E0,1.083407199E-1,1.400961921E-2,-4.497678280E-2,1.181392907E-1
4.367071375E0,7.278062213E-2,3.840001279E-3,-7.762061834E-2,1.064740577E-1
4.377070375E0,-7.247130442E-2,-3.391219255E-2,-2.419460893E-2,8.359130260E-2
4.387069375E0,-1.033588922E-1,1.670418406E-2,2.428641021E-2,1.074798590E-1
4.397067375E0,-6.321556404E-2,-3.327137198E-2,7.712068141E-2,1.051227436E-1
4.407066375E0,-8.603827000E-2,-4.105393150E-2,3.596797764E-2,1.018906503E-1
4.417064375E0,-1.231761293E-1,-1.591344865E-2,-8.105878115E-2,1.483108987E-1
4.427062375E0,-8.701680154E-3,-6.586903051E-2,-1.051428777E-1,1.243763368E-1
4.437061375E0,1.733753528E-1,-6.402678756E-2,7.875030041E-3,1.849877255E-1
4.447060375E0,1.612901082E-1,-5.102350271E-2,8.331229806E-2,1.885705063E-1
4.457058375E0,9.431405358E-2,-9.868393365E-2,-1.339421690E-2,1.371607251E-1
4.467057375E0,4.950223535E-2,-7.292875769E-2,-1.045669270E-1,1.367600717E-1
4.477055375E0,1.211232450E-2,-4.374474705E-2,-2.494773030E-2,5.179479266E-2
4.487053375E0,-4.182253886E-2,1.317813144E-2,5.281205177E-3,4.416649220E-2
4.497052375E0,-9.190825325E-2,5.187227174E-2,6.472283006E-3,1.057343371E-1
4.507051375E0,-6.351896144E-2,4.729504849E-2,-4.453239441E-3,7.931778751E-2
4.517049375E0,-3.406730365E-2,3.874876723E-2,-1.566410601E-2,5.392042615E-2
4.527048375E0,-5.407687761E-3,5.640919032E-2,-3.644920349E-2,6.737792127E-2
4.537046375E0,6.037769102E-2,8.266353121E-2,-6.338147879E-2,1.203990732E-1
4.547045375E0,1.275785711E-1,7.188876643E-2,-5.784299612E-2,1.574487178E-1
4.557043375E0,1.176901620E-1,4.450886850E-2,4.273145199E-3,1.258978688E-1
4.567041375E0,6.364175297E-2,-8.247166488E-4,1.084541559E-2,6.456450974E-2
4.577040375E0,6.350222379E-3,1.440498007E-2,-3.632231891E-2,3.958711440E-2
4.587039375E0,-3.975708302E-2,2.959477753E-2,-7.046070278E-2,8.614631242E-2
4.597037375E0,-6.220348410E-2,5.542995529E-2,-1.193299770E-2,8.416739162E-2
4.607036375E0,-5.954914056E-2,1.249654595E-2,2.473664582E-2,6.568230696E-2
4.617034375E0,-2.282709137E-2,-4.728948907E-2,-1.754749417E-3,5.253999450E-2
4.627033375E0,6.781673804E-3,-4.802445210E-2,-1.162309527E-2,4.987419616E-2
4.637031375E0,3.620687295E-2,-7.394961644E-3,-2.957872510E-2,4.733417460E-2
4.647030500E0,7.024508670E-2,1.821626946E-2,-5.576664984E-2,9.152116648E-2
4.657028500E0,1.040985650E-1,1.563301641E-3,-1.804626167E-2,1.056627782E-1
4.667027500E0,5.612921376E-2,-1.772906621E-2,2.266614676E-2,6.307584827E-2
4.677025500E0,-2.626594853E-2,-2.358403856E-2,-5.931415558E-3,3.579509208E-2
4.687024500E0,-2.430724092E-2,-3.999246543E-2,-6.012867272E-2,7.619512146E-2
4.697022500E0,-3.357807443E-2,1.903945008E-2,-1.717327237E-2,4.224818369E-2
4.707021500E0,-5.053565763E-3,2.982942790E-3,1.321061432E-2,1.445533830E-2
4.717019500E0,-1.952619195E-2,-1.597226341E-3,-2.503193021E-3,1.975067795E-2
4.727018500E0,9.874193072E-3,-3.424701874E-2,-2.001384974E-2,4.087679247E-2
4.737016500E0,3.396212686E-2,-2.617812837E-2,-1.342228353E-2,4.493192808E-2
4.747015500E0,2.403508957E-2,-1.180487402E-2,-2.704220295E-2,3.805681702E-2
4.757013500E0,4.482417047E-2,1.293172955E-2,-7.586762309E-3,4.726515471E-2
4.767012500E0,4.465145834E-2,1.504776951E-2,1.501214147E-2,4.945252764E-2
4.777010500E0,1.565591991E-3,2.339338050E-2,-9.991722107E-3,2.548599302E-2
4.787009500E0,-2.738119528E-2,3.122283652E-2,-4.651343107E-2,6.235458800E-2
4.797007500E0,-1.859425541E-2,2.141291485E-2,-3.558966279E-2,4.550695940E-2
4.807006500E0,-8.509197123E-3,5.333854786E-2,-1.822284758E-2,5.700420421E-2
4.817004500E0,1.696149353E-2,4.458929969E-2,-1.148276210E-2,4.906884689E-2
4.827003500E0,2.869740352E-2,5.065650770E-2,-2.764680505E-2,6.445128835E-2
4.837001500E0,2.030979194E-2,3.463386002E-2,-4.366349816E-2,5.931688613E-2
4.847000500E0,3.666196905E-2,-1.552283294E-3,-2.345669031E-2,4.355141649E-2
4.856998500E0,4.059846081E-2,8.367463814E-3,-1.268553436E-2,4.334942044E-2
4.866997500E0,1.791067936E-2,-1.738919680E-3,-2.242699564E-2,2.875389382E-2
4.876995500E0,1.142538629E-2,1.838798003E-2,-3.665093243E-2,4.256698380E-2
4.886994500E0,2.885198928E-3,-1.659047171E-2,-2.123240948E-2,2.709950805E-2
4.896992500E0,-7.834538072E-3,-4.589859178E-2,-2.730649710E-4,4.656323956E-2
4.906991500E0,4.213284329E-3,-2.909383561E-2,-1.257151365E-4,2.939759921E-2
4.916989500E0,-5.200732872E-3,-3.051343221E-2,-1.763988018E-2,3.562699174E-2
4.926988500E0,-2.756194733E-3,3.119685409E-3,-3.440150857E-2,3.465245790E-2
4.936986500E0,2.085548334E-2,4.995568122E-3,-1.239609718E-2,2.477034742E-2
4.946985500E0,3.188084699E-2,-7.788552919E-3,-5.363650918E-3,3.325385260E-2
4.956983500E0,2.223297771E-2,-2.573444119E-2,-4.168480039E-3,3.426285142E-2
4.966982500E0,-8.563722409E-3,5.373608315E-3,-8.959688544E-3,1.350884994E-2
4.976980500E0,1.047886826E-2,4.263913450E-2,-3.261167586E-2,5.469391075E-2
4.986979500E0,2.032503124E-2,2.647589098E-2,-3.785428941E-2,5.046807828E-2
4.996977500E0,1.024746470E-2,1.681853824E-2,-2.531259656E-3,1.985651120E-2
5.006976500E0,-7.106778994E-3,2.650622798E-3,-6.123788953E-3,9.748481934E-3
5.016974500E0,5.239763036E-3,2.766573541E-2,-3.575981677E-2,4.551497037E-2
5.026973500E0,2.374112081E-2,2.908460797E-2,-2.887238145E-2,4.736211195E-2
5.036971500E0,2.086615451E-2,4.054306758E-2,-1.929113388E-2,4.951044919E-2
5.046970500E0,1.975255229E-2,1.620732719E-2,-2.707260847E-2,3.722589026E-2
5.056968500E0,2.802607007E-2,9.089245484E-3,-2.781754375E-2,4.052025083E-2
5.066967500E0,2.938507263E-2,2.307738646E-2,-2.754038572E-4,3.736474416E-2
5.076965500E0,1.781167869E-2,2.916779146E-2,-1.240428329E-2,3.635769795E-2
5.086964500E0,-1.052864268E-2,1.155862972E-2,-3.156268537E-2,3.522296617E-2
5.096962500E0,-1.385388114E-2,3.195681511E-3,-2.617798448E-2,2.978975116E-2
5.106961500E0,-2.408102676E-3,-2.217685586E-2,-6.421412230E-3,2.321306592E-2
5.116959500E0,7.460133545E-3,-2.082223415E-2,9.446176887E-3,2.405097265E-2
5.126958500E0,5.772846378E-3,6.137090797E-3,-3.740522325E-2,3.834240949E-2
5.136956500E0,2.674768601E-2,1.236610508E-2,-4.353836775E-2,5.257327009E-2
5.146955500E0,3.285163097E-2,-2.724382682E-2,-6.863461733E-3,4.322687664E-2
5.156953500E0,3.556199815E-2,-3.334444618E-2,1.713234186E-4,4.874974006E-2
5.166952500E0,2.818993829E-2,-2.236298233E-2,-2.737023175E-2,4.520956962E-2
5.176950500E0,6.605855338E-3,2.286921416E-3,-3.276311874E-2,3.350058633E-2
5.186949500E0,6.929389089E-3,1.128538659E-2,-1.390292466E-2,1.920072128E-2
5.196947500E0,9.596011788E-4,1.476013104E-3,7.659852505E-4,1.919943361E-3
5.206946500E0,-1.855540797E-3,-8.042071402E-3,-1.360471666E-2,1.591245611E-2
5.216944500E0,-1.637330018E-3,3.480825208E-3,-2.573184192E-2,2.601777628E-2
5.226943500E0,1.059537403E-2,3.891334808E-2,-3.291573107E-2,5.205723736E-2
5.236941500E0,2.661751237E-2,3.100503459E-2,-3.411382556E-2,5.323116783E-2
5.246940500E0,3.132090300E-2,1.885973499E-2,-2.214048207E-2,4.274212811E-2
5.256938500E0,3.277291283E-2,3.173009275E-3,-2.768247306E-2,4.301687016E-2
5.266937500E0,1.510745108E-2,8.900527741E-3,-4.040601432E-2,4.404657155E-2
5.276935500E0,2.064673774E-2,1.659244971E-2,-3.292157829E-2,4.225431911E-2
5.286934500E0,2.481602177E-2,2.074532271E-2,-2.034246325E-2,3.821019710E-2
5.296932500E0,2.032108437E-2,1.301011878E-2,-1.884089828E-2,3.061354453E-2
5.306931500E0,9.415186644E-3,-1.659808679E-3,-5.364820361E-3,1.096275521E-2
5.316929500E0,7.850727551E-3,-7.847614365E-4,-2.631890237E-2,2.747606951E-2
5.326928500E0,1.246535014E-2,1.449988426E-3,-4.353252053E-2,4.530527303E-2
5.336926500E0,1.319325540E-2,-1.817739119E-2,-1.703703225E-2,2.819113347E-2
5.346925500E0,2.874604505E-2,-1.454520018E-2,-1.179734230E-2,3.430853013E-2
5.356923500E0,3.719428495E-2,-1.321393308E-2,-1.943848372E-2,4.399860804E-2
5.366922500E0,1.764649484E-2,-9.227445911E-3,-2.049273670E-2,2.857440805E-2
5.376920500E0,1.620979741E-2,2.801679675E-3,-2.468109727E-2,2.966080753E-2
5.386919500E0,2.444724519E-2,-4.764255354E-3,-1.286036611E-2,2.803132075E-2
5.396917500E0,6.904392242E-3,7.806440602E-3,-9.426296353E-3,1.405226708E-2
5.406916500E0,3.886973150E-3,3.578971637E-3,-1.376142204E-2,1.474090685E-2
5.416914500E0,2.005339153E-3,1.726692832E-2,-2.274040639E-2,2.862331710E-2
5.426913500E0,-6.832434945E-3,2.172573632E-2,-2.558449209E-2,3.425282501E-2
5.436911500E0,1.817278080E-2,1.606013153E-2,-2.977577627E-2,3.840279468E-2
5.446910500E0,2.918900818E-2,1.989951840E-2,-1.555359364E-2,3.859926561E-2
5.456908500E0,4.143914424E-2,2.140483153E-2,-1.915021598E-2,5.041924494E-2
5.466907500E0,3.570222169E-2,2.706159926E-2,-1.945251703E-2,4.884034405E-2
5.476905500E0,1.061346386E-2,2.424292611E-2,-1.496419430E-2,3.040217414E-2
5.486904500E0,-2.227423713E-4,2.049373940E-2,-1.571556151E-2,2.582676601E-2
5.496902500E0,-6.081908271E-3,1.683809901E-2,-1.048054934E-2,2.074495362E-2
5.506901500E0,-1.714166086E-2,1.087511419E-2,-7.183304429E-3,2.153379921E-2
5.516899500E0,-1.035278767E-2,3.220119904E-4,-2.260299683E-2,2.486321318E-2
5.526898500E0,2.092316486E-3,4.321290510E-3,-2.469922364E-2,2.516153788E-2
5.536896500E0,2.183880229E-2,6.774548652E-3,-1.946011841E-2,3.002538931E-2
5.546895500E0,3.031532809E-2,-9.586012135E-3,-1.646400511E-2,3.580466744E-2
5.556893500E0,5.096469708E-2,-8.263330841E-3,-3.441086411E-3,5.174479742E-2
5.566892500E0,4.724626992E-2,-1.595914829E-2,-2.185338378E-2,5.444699090E-2
5.576890500E0,3.429216564E-2,-1.078253975E-2,-2.410105348E-2,4.327905459E-2
5.586889500E0,1.413509566E-2,-7.220100203E-3,-2.425249636E-2,2.898472626E-2
5.596887500E0,2.327922732E-3,-3.484827467E-3,-4.551355720E-2,4.570609517E-2
5.606886500E0,7.390113138E-3,-3.108654500E-3,-3.263915777E-2,3.360940531E-2
5.616884500E0,7.081928328E-3,-8.712928621E-3,-7.047064304E-3,1.325631734E-2
5.626883500E0,6.364876963E-3,-1.125141792E-2,-3.605393171E-3,1.342031758E-2
5.636881500E0,8.187819533E-3,-3.605706660E-3,-1.422861457E-2,1.680758703E-2
5.646880167E0,1.293221377E-2,8.778262690E-3,-1.422218263E-2,2.113221540E-2
5.656878167E0,1.823012006E-2,1.583335550E-2,-1.781178832E-2,3.000487005E-2
5.666877167E0,2.113647860E-2,1.434900897E-2,-3.038330197E-2,3.969621927E-2
5.676875167E0,1.908860095E-2,2.373244820E-2,-2.843851805E-2,4.166957034E-2
5.686874167E0,8.571141064E-3,3.208979816E-2,-1.901163697E-2,3.827090207E-2
5.696872167E0,1.119851433E-2,3.657890204E-2,-1.811116576E-2,4.232537210E-2
5.706871167E0,1.200148322E-2,3.566568801E-2,-2.589731812E-2,4.568093680E-2
5.716869167E0,1.129232559E-2,2.968006466E-2,-1.691716433E-2,3.598073518E-2
5.726868167E0,8.448130265E-3,1.873540057E-2,-9.732105732E-3,2.273983337E-2
5.736866167E0,2.182692513E-2,1.104148918E-2,-1.002855957E-2,2.643673866E-2
5.746865167E0,2.139814150E-2,-8.768350974E-4,-1.556762695E-2,2.647641041E-2
5.756863167E0,1.249348987E-2,-2.560584813E-3,-2.948633909E-2,3.212612763E-2
5.766862167E0,1.665319908E-2,-1.439415701E-2,-3.082769036E-2,3.787964214E-2
5.776860167E0,3.127200566E-2,-1.899248277E-2,-1.840703487E-2,4.095694902E-2
5.786859167E0,2.883309547E-2,-2.000717340E-2,4.508203268E-4,3.509754437E-2
5.796857167E0,1.671598356E-2,-2.272291728E-2,-9.878286123E-3,2.988872050E-2
5.806856167E0,5.357803702E-3,-3.961210519E-3,-2.185396850E-2,2.284717025E-2
5.816855167E0,9.534616023E-4,-1.326426938E-2,-2.604291379E-2,2.924180723E-2
5.826853167E0,-2.895723917E-3,-1.452864297E-2,-1.885434687E-2,2.397817924E-2
5.836851167E0,2.122648917E-3,-4.079148402E-3,-8.379060030E-3,9.557914893E-3
5.846850167E0,2.371330999E-2,9.391527119E-3,-8.080852032E-3,2.675485043E-2
5.856849167E0,3.230104253E-2,2.150009547E-2,-2.364497066E-2,4.543892704E-2
5.866847167E0,3.143068448E-2,8.259409096E-3,-2.170018673E-2,3.907689688E-2
5.876846167E0,1.993509505E-2,9.990211196E-3,-2.963427365E-2,3.708641947E-2
5.886844167E0,2.434649035E-2,6.154811173E-4,-2.634346068E-2,3.587629203E-2
5.896843167E0,2.855893414E-2,2.269776512E-2,-2.245740116E-2,4.283848886E-2
5.906841167E0,1.129660137E-2,1.998149590E-2,-1.153304815E-2,2.568821871E-2
5.916840167E0,2.155356780E-3,1.900246872E-2,-1.512557745E-2,2.438283153E-2
5.926838167E0,-4.652812220E-3,1.514831307E-2,-1.961390018E-2,2.521557318E-2
5.936837167E0,-3.731473759E-3,2.638604600E-3,-1.616696656E-2,1.680050411E-2
5.946835167E0,1.314644113E-2,1.964147575E-2,-1.196925044E-2,2.649300738E-2
5.956834167E0,3.346876804E-2,2.658540293E-2,-2.529096186E-2,4.966462358E-2
5.966832167E0,2.912596788E-2,3.546211583E-2,-2.005185664E-2,5.007954292E-2
5.976831167E0,3.490023952E-2,1.738476456E-2,-1.241539299E-2,4.091941765E-2
5.986829167E0,5.452568796E-2,-8.175892698E-3,-1.795446038E-2,5.798498526E-2
5.996828167E0,2.867452629E-2,8.344979442E-3,-3.202695429E-2,4.379032931E-2
6.006826167E0,1.608474009E-2,1.125483946E-3,-3.861735106E-2,4.184836174E-2
6.016825167E0,7.153593265E-3,-5.241828976E-3,-1.167513549E-2,1.466149571E-2
6.026823167E0,8.471884578E-4,-2.005211245E-2,1.353045702E-3,2.011555803E-2
6.036822167E0,-2.067904361E-3,-2.864027896E-2,-3.434654474E-3,2.891952038E-2
6.046820167E0,-1.875096079E-2,-2.262868118E-2,-2.229835689E-2,3.689000491E-2
6.056819167E0,-8.409027010E-3,-1.999442373E-2,-2.977811515E-2,3.684053281E-2
6.066817167E0,2.761859223E-2,-8.296914644E-3,-1.645406485E-2,3.320183247E-2
6.076816167E0,3.320980947E-2,3.243615546E-3,-1.885083854E-2,3.832449088E-2
6.086814167E0,2.405573756E-2,1.715574214E-2,-2.708781123E-2,4.008425520E-2
6.096813167E0,3.816225495E-2,1.322621565E-2,-1.915547848E-2,4.470148587E-2
6.106811167E0,2.631532095E-2,1.790761185E-2,-2.394961059E-2,3.983418791E-2
6.116810167E0,5.316653922E-3,2.212070203E-2,-2.365374148E-2,3.281907606E-2
6.126808167E0,2.608113997E-3,1.519616887E-2,-5.994565487E-3,1.654269091E-2
6.136807167E0,8.262481168E-3,3.027795388E-2,-1.138745248E-2,3.338708074E-2
6.146805167E0,1.052323401E-2,3.164006048E-2,-2.351750135E-2,4.080324437E-2
6.156804167E0,1.347735699E-2,1.572483026E-2,-3.310108781E-2,3.904601711E-2
6.166802167E0,2.624241348E-2,-8.904432356E-3,-1.170203269E-2,3.008140206E-2
6.176801167E0,3.856735736E-2,8.802492090E-3,-1.410348415E-2,4.199801407E-2
6.186799167E0,3.815180305E-2,3.238243760E-2,-2.473255277E-2,5.582008158E-2
6.196798167E0,2.302509271E-2,-2.622382573E-3,-1.649908841E-2,2.844734966E-2
6.206796167E0,1.758879013E-2,-4.029294036E-3,-1.620321929E-2,2.425170230E-2
6.216795167E0,-1.001112755E-2,-2.726183670E-2,-1.021391630E-2,3.078562167E-2
6.226793167E0,-1.202191193E-2,-4.137902641E-3,-1.755158722E-2,2.167272061E-2
6.236792167E0,-1.171595637E-2,4.884594364E-3,-1.126466095E-2,1.697101889E-2
6.246790167E0,-3.420840427E-3,5.242242393E-3,-1.470984042E-2,1.598632727E-2
6.256789167E0,9.273208939E-3,-5.184004353E-3,-2.024715364E-2,2.286511613E-2
6.266787167E0,1.265852753E-2,-1.510050751E-2,-7.222480774E-3,2.098637355E-2
6.276786167E0,4.507457748E-2,-5.359675497E-4,-1.531970501E-3,4.510378842E-2
6.286784167E0,5.440801274E-2,-7.818246953E-4,-2.204049468E-2,5.870797651E-2
6.296783167E0,2.838910908E-2,3.963112577E-3,-1.889820099E-2,3.433350806E-2
6.306781167E0,1.980400778E-2,3.583638560E-3,1.610907912E-3,2.019000282E-2
6.316780167E0,1.170119215E-2,-6.035883717E-3,-3.328235149E-3,1.358038803E-2
6.326778167E0,-4.642250687E-3,-9.434533847E-4,-1.006305814E-2,1.112230798E-2
6.336777167E0,-6.407013461E-3,1.024921658E-2,-3.745200098E-2,3.935414386E-2
6.346775167E0,6.454047002E-3,2.697543962E-2,-3.594985127E-2,4.540617659E-2
6.356774167E0,2.265982445E-2,2.477646170E-2,-2.980442762E-2,4.489593083E-2
6.366772167E0,4.243032038E-2,2.309620490E-2,-2.096870005E-2,5.266358467E-2
6.376771167E0,3.317951359E-2,5.743323650E-3,-1.512674689E-2,3.691455485E-2
6.386769167E0,2.875134408E-2,2.676778124E-2,-2.934951425E-2,4.903618955E-2
6.396768167E0,2.003025848E-2,2.357390414E-2,-3.010146618E-2,4.316292944E-2
6.406766167E0,9.556579627E-3,2.596901961E-2,-2.216796398E-2,3.545612529E-2
6.416765167E0,8.725361377E-3,3.322095573E-2,-2.950037241E-2,4.527732107E-2
6.426763167E0,-3.173101209E-3,-3.429837374E-3,-1.184002697E-2,1.272865250E-2
6.436762167E0,8.373943716E-4,1.021847530E-2,-1.871927619E-2,2.134314335E-2
6.446760167E0,5.344757102E-3,-4.887330678E-3,-2.485709846E-2,2.589068893E-2
6.456759167E0,1.400145024E-2,-6.905454334E-3,-3.028857708E-4,1.561466132E-2
6.466757167E0,3.363135718E-2,-3.892941421E-3,-2.544649780E-2,4.235265551E-2
6.476756167E0,6.237144537E-2,2.316766884E-2,-6.915560424E-2,9.596580472E-2
6.486754167E0,8.479924500E-3,-5.747523823E-2,-1.392046630E-2,5.974187402E-2
6.496753167E0,2.193729132E-2,-3.833772167E-2,1.706568360E-2,4.735254175E-2
6.506751167E0,1.807538811E-2,-9.746174453E-3,-3.142878413E-3,2.077463012E-2
6.516750167E0,7.455199957E-6,-2.220368453E-2,-2.350171387E-2,3.233162874E-2
6.526748167E0,-1.961693343E-2,1.485738554E-2,-1.496887207E-2,2.880335247E-2
6.536747167E0,-2.166503035E-2,-1.939776334E-2,-5.834936500E-3,2.965962317E-2
6.546745167E0,5.291730165E-3,-4.238920715E-3,-2.963544309E-2,3.040115695E-2
6.556744167E0,1.325673424E-2,-2.151357376E-3,-7.178041935E-3,1.522805395E-2
6.566742167E0,3.662560668E-2,1.704508130E-2,-7.622430325E-3,4.111047683E-2
6.576741167E0,5.722604178E-2,4.887297902E-2,-3.921025872E-2,8.485771812E-2
6.586740167E0,5.264847592E-2,4.746895290E-2,-3.187726557E-2,7.772595169E-2
6.596738167E0,2.810296096E-2,4.752679009E-2,-1.870465815E-2,5.829610988E-2
6.606737167E0,1.762120564E-2,2.977075132E-2,-1.436368525E-2,3.745824310E-2
6.616735167E0,1.220606267E-2,4.613903111E-2,-7.332408428E-3,4.828625448E-2
6.626734167E0,3.140795343E-3,5.489508580E-2,-2.170486450E-2,5.911375630E-2
6.636732167E0,-1.187664516E-2,2.342381800E-2,-1.781646609E-2,3.173572772E-2
6.646731625E0,-4.918897077E-3,2.662213532E-2,-1.946070313E-2,3.334145474E-2
6.656729625E0,3.926770762E-4,-1.964134784E-2,-4.783607125E-3,2.021928874E-2
6.666728625E0,2.132665928E-2,-2.648354718E-2,-1.639559269E-3,3.404251492E-2
6.676726625E0,3.415117465E-2,-2.256362862E-2,-1.092376828E-2,4.236447545E-2
6.686725625E0,3.701905120E-2,-1.511167432E-2,-2.185162961E-2,4.556606818E-2
6.696723625E0,3.585066788E-2,-1.428366747E-2,-2.574002802E-2,4.638795734E-2
6.706722625E0,2.804591406E-2,-2.016916640E-2,-2.034538686E-2,4.009118775E-2
6.716720625E0,2.260654170E-2,-2.581000047E-2,-1.495483875E-2,3.742805170E-2
6.726719625E0,1.132587399E-2,-1.131755770E-2,-4.919262528E-3,1.674997546E-2
6.736717625E0,5.800328292E-3,-6.483391002E-3,-2.093595564E-2,2.267140062E-2
6.746716625E0,1.212738108E-2,3.318529685E-2,-3.904478252E-2,5.265769023E-2
6.756714625E0,5.525984243E-3,1.235481721E-2,-2.542310894E-2,2.880125827E-2
6.766713625E0,1.569531552E-2,1.810968112E-2,-4.765480757E-3,2.443385533E-2
6.776711625E0,2.600271419E-2,-7.848154547E-3,-8.507114053E-3,2.846235522E-2
6.786710625E0,2.303565424E-2,1.604065299E-2,-2.976349711E-2,4.091221914E-2
6.796708625E0,2.361266479E-2,1.831139978E-2,-2.602537215E-2,3.962556366E-2
6.806707625E0,1.053609788E-2,1.180046462E-2,-3.156677842E-2,3.530894821E-2
6.816705625E0,1.523364130E-2,1.023855912E-2,-3.501137316E-2,3.953085088E-2
6.826704625E0,4.782254957E-3,-4.082749236E-3,-1.360705554E-2,1.498968860E-2
6.836702625E0,4.953139834E-3,-1.378467386E-3,-3.877873421E-3,6.439850062E-3
6.846701625E0,2.042794224E-2,2.573439094E-2,-9.263743758E-3,3.413761342E-2
6.856699625E0,6.897558309E-3,2.702582389E-2,-2.632591903E-2,3.835395000E-2
6.866698625E0,1.350480236E-2,3.811613047E-2,-3.590716660E-2,5.407905049E-2
6.876696625E0,3.276322838E-2,3.307409469E-2,-1.659556746E-2,4.942406026E-2
6.886695625E0,2.933825836E-2,2.145832899E-2,9.744384885E-3,3.763171964E-2
6.896693625E0,3.944184501E-2,3.315232860E-2,-1.511154413E-2,5.369445777E-2
6.906692625E0,2.612163194E-2,3.761506520E-2,-3.891672850E-2,6.009779149E-2
6.916690625E0,2.023538612E-3,7.710624495E-3,-3.547915041E-2,3.636369828E-2
6.926689625E0,8.591313958E-3,-2.890174201E-3,-1.991561651E-2,2.188139766E-2
6.936687625E0,8.995173834E-3,-2.785399748E-2,-1.093780160E-2,3.124730119E-2
6.946686625E0,9.761012904E-3,-2.844891970E-2,-1.957063079E-3,3.014047944E-2
6.956684625E0,5.442697965E-3,-2.402342027E-2,-5.849554539E-3,2.531728601E-2
6.966683625E0,3.615881614E-3,-4.486215453E-2,-2.411508679E-2,5.106099216E-2
6.976681625E0,1.592920415E-2,-2.713269318E-2,-2.591252089E-2,4.076004567E-2
6.986680625E0,2.274698451E-2,-1.514325614E-2,-4.630994797E-4,2.733053187E-2
6.996678625E0,2.675927080E-2,-2.999667311E-4,-6.116187572E-4,2.676794037E-2
7.006677625E0,2.500251140E-2,-8.244624319E-3,-1.213355720E-2,2.898831863E-2
7.016675625E0,3.567963682E-2,4.282927294E-3,-4.102581918E-2,5.453895662E-2
7.026674625E0,1.697000854E-2,2.958330009E-2,-3.294730604E-2,4.742022574E-2
7.036672625E0,-3.454388827E-3,2.712449337E-2,-1.798135757E-2,3.272613884E-2
7.046671625E0,6.853375286E-3,2.482357062E-2,-2.067984760E-2,3.302778387E-2
7.056669625E0,2.578618448E-2,2.031500875E-2,-1.499401510E-2,3.608943584E-2
7.066668625E0,2.578629412E-2,1.287602225E-2,-3.239357471E-4,2.882411920E-2
7.076666625E0,1.404738743E-2,3.536184979E-2,1.330007672E-2,4.030733872E-2
7.086665625E0,-1.029219590E-2,2.691188085E-2,-1.992789567E-2,3.503283678E-2
7.096663625E0,-3.883282095E-4,2.798262937E-2,-1.962384045E-2,3.418001550E-2
7.106662625E0,-2.776382245E-2,1.834720370E-3,6.509588242E-2,7.079314899E-2
7.116660625E0,-6.758690592E-2,8.988616730E-2,1.076010472E-1,1.556454248E-1
7.126659625E0,-1.137201218E-1,7.026347802E-2,4.431990659E-1,4.629196847E-1
7.136657625E0,-1.985104132E-2,7.342730591E-2,6.572533518E-1,6.616400846E-1
7.146656625E0,-2.553435221E-2,8.742427938E-2,7.273117661E-1,7.329920961E-1
7.156654625E0,2.101635851E-1,1.390692863E-2,6.422868186E-1,6.759397107E-1
7.166653625E0,3.713545099E-1,-1.220629565E-1,6.937791538E-1,7.963247150E-1
7.176652625E0,9.439668205E-2,-2.167404556E-2,8.548027021E-1,8.602721414E-1
7.186650625E0,9.069784306E-2,-2.635315061E-1,-5.118763095E0,5.126344757E0
7.196649625E0,1.111230444E-1,1.874485205E-2,4.879565781E-1,5.008006815E-1
7.206647625E0,-2.813299007E-1,-8.374948706E-2,1.968377441E-1,3.534198454E-1
7.216646625E0,-7.223062572E-1,3.126388169E-1,-1.335808110E-1,7.983189789E-1
7.226644625E0,-6.238500360E-2,4.831097480E-2,-2.527342021E-2,8.285278951E-2
7.236643625E0,7.711994319E-1,-1.332113858E-1,-2.035012311E-1,8.086449086E-1
7.246641625E0,-2.983934281E-1,1.174058685E-1,-1.789505267E-1,3.672139253E-1
7.256640625E0,2.717201114E-1,-4.568000184E-1,1.507739639E-1,5.524770257E-1
7.266638625E0,-6.576827567E-2,9.921217477E-2,-8.470393538E-2,1.460933892E-1
7.276637625E0,1.280174777E-3,2.274816538E-2,-2.497755110E-2,3.380822288E-2
7.286635625E0,-8.068170883E-2,1.160252952E-1,-7.450522184E-3,1.415164921E-1
7.296634625E0,4.206527140E-2,9.677133682E-2,3.686260164E-2,1.117722241E-1
7.306632625E0,4.515735213E-2,-1.456585045E-2,-3.230235815E-2,5.740028565E-2
7.316631625E0,2.050479658E-2,2.815714820E-2,-9.817708969E-2,1.041729937E-1
7.326629625E0,-2.748381391E-2,1.045380015E-1,-2.454310298E-2,1.108418589E-1
7.336628625E0,2.404506639E-2,6.000389862E-2,3.801508784E-2,7.499186603E-2
7.346626625E0,2.877206516E-2,-2.957980775E-2,-7.209032178E-3,4.188993799E-2
7.356625625E0,-1.384182125E-3,-1.632275146E-2,-6.231260777E-2,6.442987864E-2
7.366623625E0,-3.613363657E-2,2.448245182E-2,-4.615090370E-2,6.352114649E-2
7.376622625E0,1.167813219E-2,-5.749318188E-3,2.360696375E-2,2.695778494E-2
7.386620625E0,4.406001247E-2,-6.550842175E-2,4.899381995E-3,7.909893782E-2
7.396619625E0,3.073548708E-2,6.522197328E-3,-5.931707919E-2,6.712469819E-2
7.406617625E0,3.566136427E-2,-1.459766296E-2,-2.085175574E-2,4.381347262E-2
7.416616625E0,2.217410356E-2,-6.177530803E-2,2.240886927E-2,6.935443009E-2
7.426614625E0,2.046371989E-2,-5.396118953E-2,-1.202246010E-2,5.895009207E-2
7.436613625E0,6.503602155E-3,-6.867985902E-3,-6.052569866E-2,6.126031562E-2
7.446611625E0,-3.647032656E-2,-1.980519093E-2,4.739168286E-3,4.177068378E-2
7.456610625E0,-2.212725274E-2,-2.310215490E-2,2.180485189E-2,3.871403416E-2
7.466608625E0,2.245670680E-2,-4.301494487E-3,-4.361321211E-2,4.924346460E-2
7.476607625E0,-1.858617894E-2,2.217139465E-2,-5.783305585E-2,6.466590398E-2
7.486605625E0,-5.421465263E-4,2.937818445E-3,-9.630948901E-3,1.008364402E-2
7.496604625E0,5.509582803E-2,-3.850050039E-3,-8.586636186E-3,5.589368007E-2
7.506602625E0,5.759251602E-2,2.456410042E-2,-7.686749697E-3,6.308231965E-2
7.516601625E0,2.025632646E-2,4.184000742E-2,-1.681542277E-2,4.943342417E-2
7.526599625E0,2.961563565E-2,4.305327726E-2,-4.182104051E-2,6.693033682E-2
7.536598625E0,4.419219609E-2,3.100707426E-2,-3.359049976E-2,6.358231298E-2
7.546596625E0,3.859235421E-3,3.533025427E-2,-1.263173997E-2,3.771844932E-2
7.556595625E0,-4.515329562E-3,3.975211289E-2,-1.098574877E-2,4.148861719E-2
7.566593625E0,1.218815558E-2,1.917669976E-2,-2.101255417E-2,3.094873798E-2
7.576592625E0,9.049699120E-3,-2.487759569E-3,-1.876254559E-2,2.097901615E-2
7.586590625E0,-1.692228064E-2,-1.210356167E-2,-1.680899084E-2,2.674699908E-2
7.596589625E0,-1.007259641E-2,-1.090957736E-2,-1.111438751E-2,1.854739029E-2
7.606587625E0,3.571969025E-2,-3.864810261E-3,-3.446524322E-2,4.978640397E-2
7.616586625E0,1.978646614E-2,-4.165055306E-2,-1.245866239E-2,4.776495662E-2
7.626584625E0,-8.935751505E-3,-4.955101392E-2,1.852573335E-2,5.365028827E-2
7.636583625E0,2.396718878E-2,-8.954066880E-3,-4.838921785E-2,5.473680532E-2
7.646580875E0,1.461211883E-2,-5.323378677E-2,-2.069914341E-2,5.895595482E-2
7.656579875E0,1.066963367E-2,-4.632653487E-2,9.684158564E-3,4.851568657E-2
7.666578875E0,2.340106867E-2,-2.346429398E-3,-2.639608562E-2,3.535348755E-2
7.676576875E0,9.875581786E-3,-2.440004491E-2,-8.431684971E-3,2.764023550E-2
7.686575875E0,-3.349577487E-3,-5.327964059E-4,-1.097405434E-2,1.148622697E-2
7.696573875E0,2.271328993E-2,1.183424143E-2,-3.702047646E-2,4.501620249E-2
7.706572875E0,1.362233140E-2,1.861242860E-2,-3.492658854E-2,4.185519081E-2
7.716570875E0,3.084515892E-3,3.954241712E-2,-2.324852943E-2,4.597402648E-2
7.726569875E0,2.215528283E-2,2.587673410E-2,-9.928572178E-3,3.548293210E-2
7.736567875E0,1.624089729E-2,1.030776183E-2,-2.744449139E-2,3.351442684E-2
7.746566875E0,1.316376351E-2,7.413225057E-3,-3.357880533E-2,3.682087374E-2
7.756564875E0,1.457327139E-2,2.962490211E-2,-2.968397498E-2,4.439767376E-2
7.766563875E0,1.586773530E-2,8.954008066E-3,-1.546179235E-2,2.389615673E-2
7.776561875E0,3.805879578E-3,-4.531489633E-3,-1.725513339E-2,1.824167607E-2
7.786560875E0,2.939176038E-3,4.648944435E-3,-1.650785923E-2,1.740002461E-2
7.796558875E0,5.497259796E-3,2.523033583E-2,-2.504070103E-2,3.596979871E-2
7.806557875E0,2.665233985E-2,6.997574819E-3,-2.952259183E-2,4.038436208E-2
7.816555875E0,2.454299334E-2,-1.431580204E-2,6.407963634E-3,2.912666662E-2
7.826554875E0,2.655242555E-2,2.645707939E-2,-2.741876364E-2,4.644132806E-2
7.836552875E0,1.130080406E-2,3.022331439E-2,-5.032172263E-2,5.977819563E-2
7.846551875E0,4.837328419E-3,-5.553574649E-3,-1.394093156E-2,1.576678504E-2
7.856549875E0,1.408634450E-2,7.770491646E-3,-2.217322648E-2,2.739448146E-2
7.866548875E0,2.070319992E-2,1.827378916E-2,-2.606630266E-2,3.797375398E-2
7.876546875E0,-5.602144226E-3,-2.206088684E-2,-8.858531713E-3,2.442417516E-2
7.886545875E0,9.951997586E-3,-3.916619904E-2,-1.215636134E-2,4.219965076E-2
7.896543875E0,2.770622738E-2,-3.387352784E-2,-3.446290433E-2,5.570226834E-2
7.906542875E0,2.367025986E-4,-6.159189275E-2,4.753201604E-3,6.177548225E-2
7.916540875E0,2.849567458E-2,-2.067868729E-2,-2.533306181E-2,4.337482679E-2
7.926539875E0,2.018473461E-2,-2.940360556E-2,-1.739722073E-2,3.968197097E-2
7.936537875E0,-4.769135267E-4,-3.194433953E-2,-2.188261986E-2,3.872360167E-2
7.946536875E0,-4.465810955E-4,-9.598524263E-3,-1.409412861E-2,1.705800586E-2
7.956534875E0,5.192802586E-3,8.333175947E-4,5.217470527E-3,7.408212713E-3
7.966533875E0,2.297674354E-2,2.006010898E-2,-1.334276140E-2,3.329216120E-2
7.976531875E0,1.552910842E-2,3.685186195E-2,-2.831280291E-2,4.899824227E-2
7.986530875E0,7.846634500E-3,2.441739470E-2,-2.905949235E-2,3.875864977E-2
7.996528875E0,2.159617938E-2,4.443891205E-2,-4.417746842E-2,6.627865859E-2
8.006527875E0,2.757605374E-2,4.982168062E-2,-4.357871354E-2,7.170594727E-2
8.016525875E0,3.063034683E-2,4.813077549E-2,-1.019988298E-2,5.795539068E-2
8.026524875E0,3.097025279E-2,3.341452598E-2,2.826544046E-3,4.564730502E-2
8.036522875E0,1.904584318E-2,2.384532687E-2,-2.980735123E-2,4.265937111E-2
8.046521875E0,8.661188185E-6,1.040084219E-2,-3.070489883E-2,3.241864287E-2
8.056519875E0,-9.199972562E-3,-2.159006265E-2,2.423378527E-2,3.373494700E-2
8.066518875E0,2.717303440E-2,4.064392291E-2,-1.602721810E-2,5.145069473E-2
8.076517875E0,1.677825641E-2,2.992887967E-2,-4.731040657E-2,5.844246997E-2
8.086515875E0,-1.825321656E-2,-4.373116598E-2,1.616813600E-2,5.006998516E-2
8.096514875E0,-1.324080057E-2,-5.825682367E-2,1.947473645E-2,6.283662677E-2
8.106512875E0,1.354043383E-2,-2.076962520E-2,-1.794218123E-2,3.060461643E-2
8.116511875E0,2.530510481E-2,4.755836962E-2,-8.290474713E-2,9.887033907E-2
8.126509875E0,7.142045014E-3,-5.635181452E-2,-1.104714453E-2,5.786687488E-2
8.136508875E0,1.999060705E-2,-7.778078751E-3,5.119822025E-3,2.205301469E-2
8.146506875E0,5.448402654E-2,2.673389708E-2,-3.394601047E-2,6.953806173E-2
8.156505875E0,-1.829476833E-2,-4.551546211E-2,6.111802161E-2,7.836943540E-2
8.166503875E0,-1.631022334E-2,-3.838929137E-2,-4.436867237E-3,4.194576103E-2
8.176502875E0,3.603160266E-2,3.815308499E-3,-8.332106888E-2,9.085831546E-2
8.186500875E0,2.029166557E-3,-3.106736910E-2,2.027522027E-2,3.715351258E-2
8.196499875E0,-4.820579801E-2,-7.030647333E-2,1.393028963E-1,1.633159394E-1
8.206497875E0,-4.276817981E-2,-1.196628937E-1,2.168960327E-1,2.513806165E-1
8.216496875E0,-3.468049385E-2,-1.203060601E-1,3.635167193E-1,3.844745635E-1
8.226494875E0,2.572716415E-2,-1.486537727E-1,5.662788624E-1,5.860303585E-1
8.236493875E0,2.268460203E-2,-5.609861181E-2,6.843090034E-1,6.869792264E-1
8.246491875E0,5.042931139E-2,1.863101247E-1,6.577491957E-1,6.854841956E-1
8.256490875E0,4.698519174E-2,9.226028304E-2,7.913557345E-1,7.980999101E-1
8.266488875E0,-3.757596195E-2,2.792812007E-1,8.319704944E-1,8.783990241E-1
8.276487875E0,1.485775670E-1,3.012087528E-1,7.728639150E-1,8.426865593E-1
8.286485875E0,2.721347886E-1,-1.387911735E-1,1.041845191E0,1.085707941E0
8.296484875E0,1.879967541E-2,3.787118056E-1,1.060836947E0,1.126566060E0
8.306482875E0,-6.217256695E-2,6.091405428E-2,1.392383430E0,1.395101275E0
8.316481875E0,2.228330762E-1,-1.618212181E-1,1.425121406E0,1.451486034E0
8.326479875E0,1.535077565E-1,1.289804410E-2,1.443647724E0,1.451843566E0
8.336478875E0,-6.608077280E-2,-1.716507531E-1,1.698534286E0,1.708464038E0
8.346476875E0,9.788239002E-3,-1.199997847E-1,1.578288635E0,1.582874213E0
8.356475875E0,7.019878406E-2,-2.170170701E-1,1.343242260E0,1.362469834E0
8.366473875E0,-2.659094408E-3,-1.726278776E-1,1.155338477E0,1.168167133E0
8.376472875E0,9.560928494E-3,1.799235399E-1,6.505349010E-1,6.750255914E-1
8.386470875E0,-3.724055104E-3,2.673410493E-2,4.461460626E-1,4.469618442E-1
8.396469875E0,1.494689750E-1,-8.355173240E-3,2.493205976E-1,2.908118702E-1
8.406467875E0,3.917276711E-1,-8.197991861E-2,1.157953352E-1,4.166291336E-1
8.416466875E0,3.061321449E-1,4.646201212E-1,-1.149849111E-1,5.681639525E-1
8.426464875E0,-6.628002398E-1,-4.134067347E-1,1.178180040E0,1.413618581E0
8.436463875E0,2.241826867E-1,3.181275251E-1,4.677830994E-2,3.919836853E-1
8.446461875E0,-2.891294651E-1,-2.806109627E-2,2.197559059E-1,3.642470739E-1
8.456460875E0,1.648233979E-1,6.121364642E-2,2.592357212E-1,3.132363679E-1
8.466458875E0,-8.731632516E-2,-6.767841028E-2,4.173444325E-1,4.317185231E-1
8.476457875E0,7.407044481E-2,6.712142644E-2,1.276628441E-1,1.621404281E-1
8.486456875E0,-1.669522960E-1,-2.553641244E-3,5.946606624E-1,6.176575861E-1
8.496454875E0,2.357528281E-1,1.630503942E-1,3.219009161E-1,4.310278724E-1
8.506453875E0,-2.205463763E-2,-9.007801079E-2,5.478648108E-1,5.556584437E-1
8.516451875E0,1.076940179E-1,7.079055883E-2,3.447705460E-1,3.680706917E-1
8.526450875E0,2.259670011E-1,1.023764869E-1,3.510294056E-1,4.298414524E-1
8.536448875E0,1.396425829E-1,-2.332288409E-1,5.193701595E-1,5.862090973E-1
8.546447875E0,4.603885643E-2,2.192061077E-2,4.926437062E-1,4.952755907E-1
8.556445875E0,-9.153450653E-4,1.525987429E-1,5.108425802E-1,5.331485308E-1
8.566444875E0,4.584622722E-2,-1.825402055E-1,5.733849835E-1,6.034841692E-1
8.576442875E0,-2.948118258E-1,1.392378460E-1,6.681864756E-1,7.434879667E-1
8.586441875E0,-1.979400539E-1,-3.435836251E-2,7.540686250E-1,7.803718685E-1
8.596439875E0,1.426550684E-1,-6.693537991E-2,4.377406901E-1,4.652394281E-1
8.606438875E0,4.191338997E-2,-3.173265662E-3,5.010373843E-1,5.027974367E-1
8.616436875E0,-9.824067816E-2,3.635476365E-1,3.522117126E-1,5.156270021E-1
8.626435875E0,1.616050538E-1,7.625328808E-4,4.546742266E-1,4.825405965E-1
8.636433875E0,2.573383728E-1,-4.326793402E-2,4.784022278E-1,5.449438905E-1
8.646433125E0,1.046309905E-1,-3.533381787E-1,9.546363080E-1,1.023291744E0
8.656431125E0,9.161516156E-2,1.964386351E-1,4.664054954E-1,5.143107634E-1
8.666430125E0,-9.233813323E-2,-4.353857788E-2,7.203237587E-1,7.275219969E-1
8.676428125E0,1.334776808E-1,1.601807452E-1,5.115302128E-1,5.523923614E-1
8.686427125E0,9.008183889E-2,-4.008612595E-2,5.800917399E-1,5.884114733E-1
8.696425125E0,-9.087684095E-2,1.477056101E-1,6.335124868E-1,6.568208420E-1
8.706424125E0,4.905974731E-2,1.101590304E-1,5.787772858E-1,5.912064084E-1
8.716422125E0,1.717530793E-1,-6.847992193E-2,5.759717917E-1,6.049232388E-1
8.726421125E0,-6.686492097E-2,-1.456264590E-1,8.979919910E-1,9.121773946E-1
8.736419125E0,3.965746108E-2,3.074789871E-2,5.676558816E-1,5.698695881E-1
8.746418125E0,-1.872863173E-2,9.374437032E-2,5.200747490E-1,5.287877770E-1
8.756416125E0,1.545618999E-1,-1.490363359E-1,3.556270713E-1,4.154176502E-1
8.766415125E0,-9.634384140E-3,-1.946410183E-1,5.492839301E-1,5.828299779E-1
8.776413125E0,1.383417602E-1,4.488107119E-2,2.913030213E-1,3.255920813E-1
8.786412125E0,-1.544848993E-2,1.026615569E-1,3.329644328E-1,3.487740883E-1
8.796410125E0,2.293878415E-1,1.057345063E-1,1.825781393E-1,3.116622284E-1
8.806409125E0,-1.456285969E-1,6.771693795E-2,5.808220571E-1,6.026172367E-1
8.816407125E0,3.830909315E-2,1.834322713E-1,1.481620127E-1,2.388869331E-1
8.826406125E0,9.067799907E-2,-7.264620013E-2,1.804661250E-1,2.146345550E-1
8.836404125E0,-1.746936441E-1,3.977024839E-3,5.904705477E-1,6.157833659E-1
8.846403125E0,1.273148982E-1,7.321992162E-2,1.276435483E-1,1.945844691E-1
8.856402125E0,-1.034081184E-1,2.410315482E-2,3.402184886E-1,3.564026108E-1
8.866400125E0,5.035899863E-2,-1.851289871E-1,4.132139593E-1,4.555815479E-1
8.876399125E0,-1.315973989E-1,1.289905640E-1,2.167235398E-1,2.844741354E-1
8.886397125E0,1.303056028E-1,4.957697921E-2,7.574541628E-2,1.586656708E-1
8.896396125E0,8.673913188E-2,-2.509836737E-1,3.650077593E-1,4.513835906E-1
8.906394125E0,3.362635050E-2,1.260336910E-1,-1.106749284E-1,1.710677132E-1
8.916393125E0,2.764417380E-3,1.462574284E-1,-7.787965000E-2,1.657230136E-1
8.926391125E0,1.767280731E-2,1.573344851E-1,-1.459827554E-1,2.153542040E-1
8.936390125E0,7.542926464E-2,-2.591478668E-2,-1.124431264E-1,1.378571972E-1
8.946388125E0,-1.218154091E-1,3.318150530E-1,-1.628584045E-1,3.891825834E-1
8.956387125E0,-8.391309947E-2,1.117598702E-1,-7.077060521E-2,1.566529776E-1
8.966385125E0,7.209097959E-2,4.096734017E-3,-1.467656976E-1,1.635666915E-1
8.976384125E0,7.296773303E-2,-7.821697952E-2,-1.076788151E-1,1.517791592E-1
8.986382125E0,5.595741525E-2,-6.620300702E-2,-1.727998406E-1,1.933231889E-1
8.996381125E0,3.549990803E-3,-6.583550951E-2,-1.774624103E-1,1.893140878E-1
9.006379125E0,4.070473395E-2,-5.338642194E-2,-2.628416991E-1,2.712798264E-1
9.016378125E0,1.156945072E-1,-7.047586899E-2,-4.561687750E-1,4.758592422E-1
9.026376125E0,8.183287941E-2,-1.374969654E-1,-3.593991101E-1,3.934078748E-1
9.036375125E0,-1.278310977E-2,2.478298043E-2,-3.938865727E-1,3.948724303E-1
9.046373125E0,-9.556685608E-2,4.967499317E-2,-3.018706942E-1,3.205098203E-1
9.056372125E0,5.183574948E-2,1.423271950E-1,-4.398059267E-1,4.651593582E-1
9.066370125E0,1.332241309E-1,4.218492005E-2,-5.100894588E-1,5.288851411E-1
9.076369125E0,-5.066594090E-2,1.363461055E-1,-5.830556935E-1,6.009253196E-1
9.086367125E0,1.574766638E-2,1.499494974E-1,-6.835734236E-1,7.000039045E-1
9.096366125E0,1.147555906E-1,-2.981658572E-2,-5.875568801E-1,5.994005019E-1
9.106364125E0,-3.030792771E-2,2.505142930E-2,-4.633859932E-1,4.650513126E-1
9.116363125E0,-5.707611552E-2,5.695839462E-2,-3.395250088E-1,3.489687282E-1
9.126361125E0,1.103945910E-1,-2.126687516E-1,-3.042844248E-1,3.873034660E-1
9.136360125E0,-3.028437439E-3,-2.201740731E-1,-2.373069084E-1,3.237288413E-1
9.146358125E0,-1.196432599E-1,1.811440000E-1,-4.804779893E-1,5.272444941E-1
9.156357125E0,-4.567430081E-2,-2.572788820E-2,-5.850104177E-1,5.873544541E-1
9.166356125E0,2.292713357E-2,-2.034373091E-2,-6.779776382E-1,6.786701694E-1
9.176354125E0,-1.001483688E-1,2.684320758E-1,-7.783871949E-1,8.294408359E-1
9.186353125E0,8.149054321E-2,-3.893806170E-2,-6.703715801E-1,6.764280721E-1
9.196351125E0,-5.139757376E-2,1.296372387E-1,-5.190532404E-1,5.374605015E-1
9.206350125E0,-7.110031508E-3,1.360536077E-1,-5.689627343E-1,5.850467757E-1
9.216348125E0,5.806040291E-2,2.946321290E-2,-6.970202655E-1,7.000545277E-1
9.226347125E0,1.488863548E-1,-5.748426944E-2,-8.899082154E-1,9.041063100E-1
9.236345125E0,9.572303155E-2,-5.999784127E-2,-8.683062619E-1,8.756245795E-1
9.246344125E0,-2.332169272E-2,7.089317746E-2,-8.713883293E-1,8.745783923E-1
9.256342125E0,-1.220244106E-1,-2.306047521E-2,-8.260963815E-1,8.353783418E-1
9.266341125E0,-1.230552381E-1,5.946668111E-2,-9.451404297E-1,9.549708423E-1
9.276339125E0,-6.537556205E-2,4.358331822E-2,-1.046805968E0,1.049750544E0
9.286338125E0,-3.383966424E-3,-2.176653892E-2,-1.095937198E0,1.096158554E0
9.296336125E0,-1.699654028E-2,8.533233748E-2,-1.162634048E0,1.165885251E0
9.306335125E0,2.412224232E-1,-3.140772502E-3,-1.258105046E0,1.281025538E0
9.316333125E0,-4.977299798E-2,-1.138294373E-2,-1.012745352E0,1.014031593E0
9.326332125E0,-6.006691150E-2,9.476708489E-2,-9.738023114E-1,9.802447531E-1
9.336330125E0,4.035185449E-2,-2.064751432E-2,-9.362199175E-1,9.373165559E-1
9.346329125E0,8.816358671E-3,-6.941010430E-2,-8.917448258E-1,8.944855086E-1
9.356327125E0,-7.828076899E-2,1.045726371E-1,-9.706120706E-1,9.793626023E-1
9.366326125E0,-3.126436774E-2,3.960715676E-2,-9.330214906E-1,9.343849792E-1
9.376324125E0,3.065099481E-2,2.435183507E-2,-9.265877992E-1,9.274143869E-1
9.386323125E0,5.873367324E-2,8.518039210E-2,-8.825921792E-1,8.886362013E-1
9.396321125E0,6.347788475E-2,-5.679650440E-2,-7.014869535E-1,7.066393923E-1
9.406320125E0,5.178330727E-2,1.022649238E-1,-6.880482978E-1,6.975314227E-1
9.416318125E0,7.832257658E-2,-2.279969168E-2,-6.149013841E-1,6.202886136E-1
9.426317125E0,9.549815129E-2,-6.101480911E-2,-5.706607658E-1,5.818044460E-1
9.436315125E0,4.493994534E-2,8.037439882E-3,-5.416860580E-1,5.436064612E-1
9.446314125E0,-6.089315962E-2,-6.782633570E-2,-4.104628444E-1,4.204618120E-1
9.456313125E0,-7.723430011E-2,7.114638017E-2,-4.759253472E-1,4.873724250E-1
9.466311125E0,-4.148818776E-3,-7.181388095E-2,-4.657962155E-1,4.713178976E-1
9.476310125E0,-4.211310893E-3,-6.059874318E-2,-4.865041298E-1,4.902817670E-1
9.486308125E0,-7.940818526E-2,1.089036515E-1,-5.733697808E-1,5.889979378E-1
9.496307125E0,-1.212060562E-1,1.568696132E-1,-6.197066259E-1,6.506422103E-1
9.506305125E0,2.905241722E-1,8.681080596E-2,-8.439280504E-1,8.967468789E-1
9.516304125E0,-3.990980498E-3,2.006575291E-1,-7.335875827E-1,7.605459312E-1
9.526302125E0,-9.133509820E-2,4.184230976E-2,-5.703771758E-1,5.791571477E-1
9.536301125E0,-8.423707176E-2,1.908869414E-1,-6.231553137E-1,6.571577084E-1
9.546299125E0,9.201408785E-2,-4.212443791E-3,-5.900396079E-1,5.971859643E-1
9.556298125E0,2.806301899E-1,-5.396326804E-2,-6.741161370E-1,7.321870690E-1
9.566296125E0,-1.624423020E-1,8.865048161E-3,-4.947153747E-1,5.207776805E-1
9.576295125E0,7.090050476E-2,-1.294499176E-1,-5.688843817E-1,5.877189825E-1
9.586293125E0,5.926248081E-2,-9.141940774E-2,-5.416737789E-1,5.525215222E-1
9.596292125E0,-1.209879368E-1,-6.283018685E-2,-4.585959542E-1,4.784307290E-1
9.606290125E0,-2.439582624E-2,1.319257475E-2,-5.304015166E-1,5.311261330E-1
9.616289125E0,-7.177736783E-2,7.143161466E-2,-4.743378282E-1,4.850266398E-1
9.626287125E0,-2.167160846E-3,1.156224495E-1,-4.381611049E-1,4.531648721E-1
9.636286125E0,2.372403597E-2,1.389294054E-1,-3.513819927E-1,3.785941288E-1
9.646284042E0,3.759030590E-2,1.401074183E-1,-2.752354574E-1,3.111232502E-1
9.656283042E0,8.454492766E-2,7.024672666E-2,-1.957998633E-1,2.245440578E-1
9.666281042E0,1.096111737E-1,3.811841682E-2,-1.250532317E-1,1.706046127E-1
9.676280042E0,1.247256780E-1,3.336514441E-2,-8.799767196E-2,1.562476172E-1
9.686278042E0,9.261466999E-2,4.143732612E-2,-4.615908980E-2,1.114683393E-1
9.696277042E0,1.379588589E-1,-3.422454350E-2,-2.978396237E-2,1.452275819E-1
9.706275042E0,9.421929214E-2,-4.044178284E-2,-2.883086622E-2,1.065083643E-1
9.716274042E0,-3.677752465E-3,1.172598114E-2,-7.366322279E-3,1.432784704E-2
9.726272042E0,2.550855137E-2,2.184194516E-2,-3.785253525E-2,5.060208678E-2
9.736271042E0,-7.990878001E-3,5.013274222E-3,-1.265922189E-2,1.578743008E-2
9.746269042E0,-5.029972248E-2,2.321139733E-2,-6.695120394E-2,8.689818615E-2
9.756268042E0,-4.245915446E-2,1.765601713E-2,-1.389099634E-1,1.463232472E-1
9.766267042E0,-7.462490704E-2,2.161588861E-2,-1.475492245E-1,1.667540016E-1
9.776265042E0,-6.286688726E-2,2.298266156E-2,-1.575427008E-1,1.711728682E-1
9.786264042E0,-3.111036669E-2,1.582731984E-2,-1.763748282E-1,1.797955478E-1
9.796262042E0,-1.515426535E-2,-4.006120447E-3,-1.646774733E-1,1.654217972E-1
9.806261042E0,1.017901573E-2,1.055145596E-2,-1.429585755E-1,1.437083849E-1
9.816259042E0,3.501908418E-2,3.770700353E-2,-1.326282996E-1,1.422618017E-1
9.826258042E0,8.238675691E-2,1.022595563E-2,-1.298000014E-1,1.540785132E-1
9.836256042E0,9.075763084E-2,1.938399497E-2,-1.266886979E-1,1.570436659E-1
9.846255042E0,9.236956201E-2,3.806730622E-2,-1.150544930E-1,1.523771378E-1
9.856253042E0,1.067890882E-1,3.493389755E-2,-9.130778074E-2,1.447805145E-1
9.866252042E0,1.088178162E-1,4.224502760E-2,-8.418762624E-2,1.439219090E-1
9.876250042E0,5.048529848E-2,9.941500006E-2,-4.652337134E-2,1.208161069E-1
9.886249042E0,2.680418473E-2,7.093018851E-2,2.317134619E-2,7.928724516E-2
9.896247042E0,4.142770562E-2,4.105001204E-2,4.602343440E-2,7.429343710E-2
9.906246042E0,4.272483733E-2,3.684800872E-2,4.729695797E-2,7.362193766E-2
9.916244042E0,1.542593978E-1,3.138891800E-2,-3.766542435E-2,1.618638631E-1
9.926243042E0,-1.056237016E-1,1.333832848E-1,3.111361921E-2,1.729610485E-1
9.936241042E0,4.013232809E-2,-1.251954424E-2,-1.537525356E-2,4.476316753E-2
9.946240042E0,7.143978249E-2,-3.807839309E-2,2.659313679E-3,8.099801536E-2
9.956238042E0,-8.074272087E-2,9.058403249E-2,6.994556308E-2,1.400615426E-1
9.966237042E0,-2.214210832E-2,8.253039742E-2,1.120841074E-1,1.409410749E-1
9.976235042E0,2.359188890E-2,-5.330630595E-2,1.506400627E-1,1.615257502E-1
9.986234042E0,5.290231816E-3,7.862440255E-2,7.843513548E-2,1.111838734E-1
9.996232042E0,-1.363249093E-2,8.358896272E-2,5.713957608E-2,1.021659956E-1
1.000623104E1,7.137012754E-2,-1.473486125E-2,3.361154974E-2,8.025302185E-2
1.001622904E1,4.127673782E-2,-8.796923531E-3,5.247583687E-2,6.734143156E-2
1.002622804E1,-4.169841344E-2,9.260508603E-2,8.692938566E-2,1.336831243E-1
1.003622704E1,4.962743886E-2,-8.381466525E-2,1.297655028E-1,1.622555593E-1
1.004622504E1,3.546107886E-2,-1.210913365E-2,7.695695937E-2,8.559493459E-2
1.005622404E1,4.818924308E-2,2.091126486E-2,1.921336591E-2,5.593422545E-2
1.006622204E1,7.144710978E-2,-3.976102076E-2,3.534057140E-3,8.184202972E-2
1.007622104E1,5.645092025E-2,2.752598695E-2,-3.385596335E-2,7.134852913E-2
1.008621904E1,6.353332367E-2,3.800367664E-2,-4.144974232E-2,8.484600045E-2
1.009621804E1,5.124015575E-2,6.656621504E-2,-1.042558551E-2,8.464813867E-2
1.010621604E1,2.628867958E-2,1.346456529E-1,2.037169933E-3,1.372031217E-1
1.011621504E1,5.766487531E-2,6.375528946E-2,1.689377546E-2,8.760921429E-2
1.012621304E1,2.738185309E-2,1.374857278E-1,-4.398684919E-2,1.469249269E-1
1.013621204E1,5.922498554E-3,1.231907839E-1,-7.223357856E-2,1.429291261E-1
1.014621004E1,4.342213606E-2,6.533725365E-2,-7.877895176E-2,1.111780637E-1
1.015620904E1,2.860149091E-2,4.793782194E-2,-3.353319705E-2,6.511954667E-2
1.016620704E1,2.848045355E-2,-1.157200751E-2,6.327856779E-3,3.138613330E-2
1.017620604E1,3.545627318E-2,-4.294726450E-2,5.875516176E-2,8.095544373E-2
1.018620404E1,5.393197630E-2,-1.096955655E-1,8.992082119E-2,1.517482429E-1
1.019620304E1,1.328070782E-2,-1.096271622E-1,1.103071386E-1,1.560838131E-1
1.020620104E1,-2.304120909E-2,-4.470492382E-2,7.171493053E-2,8.759257270E-2
1.021620004E1,2.695939176E-2,-5.760876032E-2,-1.209496558E-2,6.474462342E-2
1.022619804E1,-7.603938505E-4,3.390209925E-2,-9.081836879E-2,9.694280088E-2
1.023619704E1,1.225243840E-2,7.940041029E-2,-1.449969149E-1,1.657668626E-1
1.024619504E1,-4.011701569E-3,7.705896587E-2,-1.104065412E-1,1.346988579E-1
1.025619404E1,-1.442138996E-2,1.165120028E-1,-1.012673432E-1,1.550422461E-1
1.026619204E1,1.441335004E-2,1.002802966E-1,-9.437347591E-2,1.384566196E-1
1.027619104E1,3.113064922E-2,6.217157110E-2,-7.042445004E-2,9.896476513E-2
1.028618904E1,6.675016936E-2,3.453601052E-2,-4.199528754E-2,8.609253921E-2
1.029618804E1,4.057890918E-2,1.433545074E-2,9.933249950E-3,4.416811602E-2
1.030618704E1,4.963109337E-2,-2.701804207E-2,4.419091702E-2,7.173602423E-2
1.031618504E1,6.954078957E-2,9.488991753E-4,1.302642703E-2,7.075669315E-2
1.032618404E1,7.615210840E-2,9.857915657E-3,-2.607682765E-2,8.109453160E-2
1.033618204E1,7.401703415E-2,2.481445033E-2,-3.539495051E-2,8.571511426E-2
1.034618104E1,7.128914360E-2,6.765632333E-2,-4.861316621E-2,1.096483471E-1
1.035617904E1,6.419546602E-2,4.719226997E-2,-3.234621227E-2,8.599096261E-2
1.036617804E1,2.608832108E-2,5.318090145E-2,-8.742756844E-3,5.987691185E-2
1.037617604E1,8.611505125E-3,7.565442813E-2,-2.031498134E-2,7.880640191E-2
1.038617504E1,-9.105576575E-4,3.423353816E-2,-5.981701612E-4,3.425086945E-2
1.039617304E1,-9.344380517E-3,2.705290153E-2,-2.817539334E-2,4.016254123E-2
1.040617204E1,-2.394337965E-2,2.993774642E-2,-6.144020319E-2,7.241859332E-2
1.041617004E1,-1.725668656E-2,3.274550401E-3,-6.611037433E-2,6.840392902E-2
1.042616904E1,-1.772813659E-2,4.505695361E-3,-8.888995707E-2,9.075247978E-2
1.043616704E1,-1.820117634E-2,2.399831835E-2,-1.074735779E-1,1.116143899E-1
1.044616604E1,1.385548912E-2,1.111321007E-2,-1.167776674E-1,1.181207078E-1
1.045616404E1,3.746707583E-2,2.606750408E-2,-1.483830374E-1,1.552443955E-1
1.046616304E1,5.293208415E-2,4.814165679E-2,-1.738441533E-1,1.879925910E-1
1.047616104E1,7.947886348E-2,-2.858873896E-3,-1.671175164E-1,1.850765441E-1
1.048616004E1,6.787056897E-2,5.030005595E-2,-1.723659772E-1,1.919545255E-1
1.049615804E1,4.302357523E-2,6.002229908E-2,-1.288135761E-1,1.484811160E-1
1.050615704E1,6.336459495E-2,4.184515342E-3,-1.026203889E-1,1.206794360E-1
1.051615504E1,2.407189049E-2,5.582882219E-2,-1.125010139E-1,1.278780334E-1
1.052615404E1,4.072207460E-2,2.217783116E-2,-6.280026555E-2,7.806418454E-2
1.053615204E1,4.844644748E-2,-1.321921955E-2,-3.016286194E-2,5.857989655E-2
1.054615104E1,1.053346664E-2,4.788721155E-2,-3.284322560E-2,5.901539136E-2
1.055615004E1,5.674613155E-3,3.212194185E-3,8.938638568E-3,1.106429778E-2
1.056614804E1,3.057662554E-2,-8.050528737E-3,1.255455673E-2,3.401996380E-2
1.057614704E1,-5.506761521E-3,6.476509446E-2,2.351165414E-2,6.912047283E-2
1.058614504E1,2.597433692E-2,1.503237260E-2,1.381053865E-2,3.303588023E-2
1.059614404E1,1.152402151E-2,4.029046329E-2,1.623830259E-2,4.494226268E-2
1.060614204E1,3.837326635E-3,7.012568473E-2,-7.846963406E-4,7.023498048E-2
1.061614104E1,3.324545922E-2,1.975500766E-2,1.473498344E-4,3.867224584E-2
1.062613904E1,4.019186005E-2,4.183944097E-2,-2.780526459E-2,6.433550477E-2
1.063613804E1,3.439067295E-2,6.464149894E-2,-3.794375181E-2,8.246799423E-2
1.064613637E1,4.260425678E-2,1.622307242E-2,-3.042247832E-2,5.480728018E-2
1.065613538E1,3.441857513E-2,2.933211878E-2,-4.790039063E-2,6.587456966E-2
1.066613337E1,3.349003728E-2,1.828180510E-2,-3.035348117E-2,4.875593107E-2
1.067613237E1,5.174740171E-2,-1.005615454E-2,-1.834622383E-2,5.581669783E-2
1.068613037E1,3.436772263E-2,2.087653788E-2,4.733321071E-3,4.048919017E-2
1.069612937E1,2.986987989E-2,1.663106760E-2,-5.712729692E-3,3.466175724E-2
1.070612737E1,2.150061395E-2,-6.792408926E-3,-3.735201359E-3,2.285530460E-2
1.071612637E1,8.860687874E-3,4.039448434E-2,-2.736087620E-2,4.958672909E-2
1.072612438E1,7.056492940E-4,3.910054120E-2,-2.539913535E-2,4.663117348E-2
1.073612337E1,1.047009744E-2,4.299097243E-2,-3.705731392E-2,5.771560591E-2
1.074612138E1,-1.800211519E-4,6.372421242E-2,-2.777076602E-2,6.951275495E-2
1.075612038E1,2.236702513E-2,4.920890156E-2,-3.659538388E-2,6.527650364E-2
1.076611838E1,4.050099503E-2,4.042097497E-2,-2.760938287E-2,6.353317117E-2
1.077611738E1,3.660941720E-2,4.598284193E-2,-3.330164731E-2,6.755494722E-2
1.078611638E1,5.240994606E-2,1.061524200E-2,3.065695167E-3,5.356196688E-2
1.079611437E1,5.109918304E-2,2.651160011E-2,1.082962811E-2,5.857706285E-2
1.080611338E1,6.055709090E-2,2.592938645E-2,2.951615989E-2,7.218516492E-2
1.081611137E1,7.298673648E-2,6.222980343E-3,3.697194457E-2,8.205311616E-2
1.082611037E1,6.347355416E-2,4.174675346E-2,3.454242647E-2,8.345575312E-2
1.083610837E1,4.498900713E-2,3.913175072E-2,5.081932068E-2,7.834480220E-2
1.084610737E1,4.562679218E-2,3.396032701E-2,7.293582916E-2,9.249185451E-2
1.085610537E1,2.646466250E-2,5.209703780E-2,7.335273564E-2,9.378221331E-2
1.086610437E1,1.188620171E-2,1.931644593E-2,9.068271339E-2,9.347599361E-2
1.087610237E1,8.797921669E-3,1.137194023E-2,1.201380622E-1,1.209953654E-1
1.088610137E1,5.222659931E-4,2.135017605E-2,1.524357426E-1,1.539245218E-1
1.089609938E1,8.142375704E-3,9.923906968E-3,1.818928456E-1,1.823452481E-1
1.090609838E1,2.608879616E-2,1.372014778E-2,2.225760180E-1,2.245193789E-1
1.091609638E1,2.922414629E-2,2.511967270E-2,2.689520395E-1,2.716988190E-1
1.092609538E1,4.254920159E-2,1.382221595E-2,2.808996552E-1,2.844399840E-1
1.093609337E1,3.976762628E-2,3.532087360E-2,2.382085490E-1,2.440744580E-1
1.094609238E1,5.486873679E-2,3.803526987E-2,1.739610976E-1,1.863322933E-1
1.095609037E1,4.769551881E-2,3.935759028E-2,1.005861425E-1,1.180739366E-1
1.096608937E1,5.348486530E-2,4.930854633E-2,7.122201025E-2,1.018063765E-1
1.097608737E1,6.636025144E-2,3.400932485E-2,7.074663162E-2,1.027881464E-1
1.098608637E1,5.647494866E-2,2.563368407E-2,1.011077142E-1,1.186139766E-1
1.099608437E1,4.672164677E-2,2.507159078E-2,1.130576688E-1,1.248740702E-1
1.100608337E1,2.912940312E-2,3.040322134E-2,9.238132954E-2,1.015243224E-1
1.101608237E1,1.671919953E-2,1.581663726E-2,9.655974984E-2,9.926471144E-2
1.102608037E1,9.511409886E-3,2.069546149E-2,1.315787244E-1,1.335355000E-1
1.103607937E1,-4.421481751E-3,4.610211600E-2,1.600242591E-1,1.665914707E-1
1.104607738E1,2.306324579E-3,2.133433832E-2,2.374267763E-1,2.383945201E-1
1.105607638E1,1.207135744E-2,2.577659596E-2,3.172272366E-1,3.185016016E-1
1.106607438E1,2.057543825E-2,3.405058198E-2,4.375991875E-1,4.394039596E-1
1.107607338E1,5.074010918E-2,6.122501880E-3,5.946466291E-1,5.968388871E-1
1.108607138E1,5.955348942E-2,4.016830217E-2,6.892721200E-1,6.930051703E-1
1.109607038E1,5.819953009E-2,4.771039723E-2,7.315106517E-1,7.353715393E-1
1.110606837E1,8.659578374E-2,9.897958806E-3,8.077302772E-1,8.124192268E-1
1.111606737E1,6.446933499E-2,3.888847000E-2,8.424837881E-1,8.458413217E-1
1.112606537E1,6.482541215E-2,4.415061691E-2,8.255941057E-1,8.293113037E-1
1.113606437E1,6.570609419E-2,5.718852138E-3,7.856500214E-1,7.884135668E-1
1.114606237E1,2.931125153E-2,3.831570325E-2,6.717597091E-1,6.734896802E-1
1.115606137E1,1.983370068E-2,2.749286111E-2,5.393091649E-1,5.403735823E-1
1.116605937E1,1.933299629E-2,1.143920719E-2,4.460817432E-1,4.466469992E-1
1.117605837E1,1.853870686E-2,4.338727204E-2,3.206759244E-1,3.241283504E-1
1.118605638E1,1.676325465E-2,4.112152623E-2,2.283489740E-1,2.326268268E-1
1.119605538E1,3.100250384E-2,2.747963407E-2,2.178929830E-1,2.217963876E-1
1.120605338E1,3.554341497E-2,6.523611509E-2,1.890293723E-1,2.031038864E-1
1.121605238E1,4.630927188E-2,4.292725605E-2,1.662959826E-1,1.778810046E-1
1.122605038E1,6.483083909E-2,2.953780373E-2,1.098838001E-1,1.309578905E-1
1.123604938E1,4.426112015E-2,4.364163049E-2,5.152157128E-2,8.073481886E-2
1.124604838E1,4.336353600E-2,1.097980905E-2,-1.208677948E-2,4.633619211E-2
1.125604637E1,4.714504000E-2,-7.878220885E-3,-6.881529629E-2,8.378702862E-2
1.126604537E1,3.010369543E-2,7.078737484E-3,-2.854552209E-2,4.208548247E-2
1.127604337E1,3.355570883E-2,-1.791040641E-2,2.249248445E-2,4.418914017E-2
1.128604237E1,2.612660207E-2,-1.579610348E-2,6.318501234E-3,3.117755088E-2
1.129604037E1,1.243426854E-2,-5.952420424E-3,-6.563499570E-3,1.526832897E-2
1.130603937E1,1.561215715E-2,3.961173403E-3,-1.899409533E-2,2.490393549E-2
1.131603737E1,5.737214908E-3,8.959607460E-3,-5.193613887E-2,5.301464629E-2
1.132603637E1,1.107353009E-3,3.512083943E-2,-1.395093030E-1,1.438664145E-1
1.133603438E1,1.885580868E-2,3.495619920E-2,-2.380114979E-1,2.413026119E-1
1.134603337E1,2.370910730E-2,8.781086256E-2,-2.966959083E-1,3.103245581E-1
1.135603138E1,2.068768652E-2,7.403156083E-2,-2.666154921E-1,2.774751755E-1
1.136603038E1,4.252294393E-2,8.312821127E-2,-2.301031387E-1,2.483263069E-1
1.137602838E1,4.081372971E-2,8.800963135E-2,-2.093098551E-1,2.306990923E-1
1.138602738E1,5.269090477E-2,5.172505438E-2,-1.915126848E-1,2.052533097E-1
1.139602537E1,6.450794488E-2,3.671874643E-2,-1.791113251E-1,1.938824595E-1
1.140602437E1,6.033465916E-2,6.328446069E-3,-1.212005013E-1,1.355355372E-1
1.141602237E1,2.877635920E-2,2.187135026E-3,-7.108050764E-2,7.671571530E-2
1.142602137E1,6.105275206E-2,-6.129910257E-2,-5.209518313E-2,1.009897352E-1
1.143601937E1,2.054146959E-2,-6.696309024E-3,-8.894433618E-2,9.153080064E-2
1.144601837E1,-6.419932153E-3,-2.663593567E-2,-1.840218168E-1,1.860503095E-1
1.145601737E1,-1.262176316E-3,-5.399817774E-2,-2.479634589E-1,2.537779999E-1
1.146601537E1,-3.958681941E-2,3.432947133E-2,-2.996271175E-1,3.041743553E-1
1.147601437E1,-3.717846092E-2,7.504088162E-2,-3.387081528E-1,3.489077022E-1
1.148601238E1,-2.413303044E-2,8.766423449E-2,-4.153598875E-1,4.251955518E-1
1.149601137E1,-2.889924210E-2,1.218633746E-1,-5.002345616E-1,5.156747665E-1
1.150600938E1,-9.061740730E-3,1.404628103E-1,-5.955792600E-1,6.119857606E-1
1.151600838E1,7.045310140E-3,1.069231813E-1,-6.425785947E-1,6.514518044E-1
1.152600638E1,5.613199119E-2,9.020888792E-2,-6.594910812E-1,6.679947082E-1
1.153600538E1,3.838218335E-2,3.319658015E-2,-5.904799032E-1,5.926564950E-1
1.154600337E1,7.881609986E-2,1.654840145E-2,-5.551609665E-1,5.609719475E-1
1.155600238E1,9.888663104E-2,-6.665768285E-2,-5.313692307E-1,5.445870655E-1
1.156600037E1,5.596472427E-2,-1.002249993E-2,-5.466520983E-1,5.496007801E-1
1.157599937E1,8.185564701E-2,-4.721686482E-2,-5.055075806E-1,5.142642252E-1
1.158599737E1,5.323577391E-2,-8.673840098E-2,-4.269362050E-1,4.388987594E-1
1.159599637E1,3.642815351E-3,-9.319168967E-3,-3.787469620E-1,3.788791076E-1
1.160599437E1,-2.680144385E-3,-4.404171366E-3,-3.515047842E-1,3.515425909E-1
1.161599337E1,-5.600033747E-2,6.498182973E-2,-3.261986196E-1,3.372895128E-1
1.162599138E1,-2.929197399E-2,7.764268245E-2,-3.068724024E-1,3.178947581E-1
1.163599037E1,-2.408976104E-2,5.187842045E-2,-2.402281773E-1,2.469438484E-1
1.164598800E1,-5.467356769E-2,5.176974447E-2,-2.238781929E-1,2.362006577E-1
1.165598700E1,-6.782613013E-2,9.052565170E-2,-2.352136052E-1,2.609994590E-1
1.166598600E1,8.406304400E-3,-3.739841673E-2,-2.092771107E-1,2.127585876E-1
1.167598400E1,4.730375536E-2,-2.078378871E-2,-2.285483640E-1,2.343159530E-1
1.168598300E1,3.259610765E-2,5.734033200E-2,-2.250721943E-1,2.345376570E-1
1.169598100E1,9.600833913E-2,-2.602340100E-2,-1.849217033E-1,2.099782249E-1
1.170598000E1,1.009136232E-1,2.784891314E-2,-1.681366861E-1,1.980632892E-1
1.171597800E1,7.246540239E-2,3.653193931E-2,-1.413184315E-1,1.629623153E-1
1.172597700E1,7.885407021E-2,1.764961145E-2,-1.398063415E-1,1.614784391E-1
1.173597500E1,9.607669674E-2,2.168242581E-2,-1.682343346E-1,1.949452502E-1
1.174597400E1,2.500030043E-2,5.247218236E-2,-1.481585044E-1,1.591517746E-1
1.175597200E1,6.164174940E-2,2.623515015E-2,-1.408091390E-1,1.559333255E-1
1.176597100E1,8.449317981E-3,1.688567616E-2,-1.023286128E-1,1.040560524E-1
1.177596900E1,2.212622948E-4,2.574437232E-2,-8.210309386E-2,8.604498640E-2
1.178596800E1,-2.165529108E-2,4.158411864E-2,-4.766065478E-2,6.685602867E-2
1.179596600E1,-1.628376469E-2,1.973091530E-2,-2.130140662E-2,3.328993745E-2
1.180596500E1,-4.077099022E-2,6.825355703E-2,-3.221698880E-2,8.578319216E-2
1.181596300E1,-2.652697189E-2,6.647152669E-2,-4.417454481E-2,8.410430731E-2
1.182596200E1,-1.263510212E-2,6.613332008E-2,-5.688697636E-2,8.814414280E-2
1.183596100E1,3.873798642E-3,8.126661312E-2,-6.690676510E-2,1.053365271E-1
1.184595900E1,6.897412129E-3,5.884674835E-2,-2.664049923E-2,6.496329952E-2
1.185595800E1,2.777186237E-2,1.547264168E-2,-6.433691382E-3,3.243564960E-2
1.186595600E1,2.419607073E-2,4.089686067E-2,-3.000791073E-3,4.761310532E-2
1.187595500E1,5.953585641E-2,-1.412818864E-2,9.412847757E-3,6.190901078E-2
1.188595300E1,6.767797630E-2,-1.444621208E-2,8.946239948E-3,6.977848328E-2
1.189595200E1,5.392488655E-2,-4.829480359E-4,-6.548881531E-4,5.393102545E-2
1.190595000E1,8.957367931E-2,-3.032082813E-2,-6.069409847E-3,9.476093277E-2
1.191594900E1,8.258481307E-2,-1.834298731E-2,-1.028700650E-2,8.522053177E-2
1.192594700E1,2.138162311E-2,1.153203403E-2,2.546403944E-2,3.519344997E-2
1.193594600E1,3.749715244E-2,3.314781985E-2,1.016479969E-2,5.106992809E-2
1.194594400E1,3.789613355E-2,4.376448140E-2,1.598160982E-2,6.005712800E-2
1.195594300E1,3.018387537E-3,8.725969853E-2,1.700662673E-2,8.895274590E-2
1.196594100E1,1.347015761E-2,1.123202070E-1,2.151775360E-4,1.131252419E-1
1.197594000E1,-1.233959846E-2,9.997110682E-2,2.519389808E-2,1.038326557E-1
1.198593800E1,2.796302978E-3,1.027743351E-1,4.523581445E-2,1.123239163E-1
1.199593700E1,9.214389604E-3,8.713502493E-2,7.575886488E-2,1.158310112E-1
1.200593500E1,3.231408913E-2,2.776030499E-2,1.076285291E-1,1.157529056E-1
1.201593400E1,5.051013088E-2,1.163917854E-2,1.290176439E-1,1.390406280E-1
1.202593200E1,6.133864436E-2,-4.849769284E-2,1.659784788E-1,1.834756412E-1
1.203593100E1,5.169258406E-2,-5.515196130E-2,1.352718258E-1,1.549591202E-1
1.204593000E1,6.674415769E-2,-9.765793917E-2,1.038143903E-1,1.573826016E-1
1.205592800E1,6.083136186E-2,-7.673407995E-2,7.400586963E-2,1.227413637E-1
1.206592700E1,2.095590927E-2,-5.720886558E-2,6.815046787E-2,9.141384308E-2
1.207592500E1,3.153041605E-2,-3.071637171E-2,4.612985373E-2,6.376226182E-2
1.208592400E1,8.627493605E-3,2.111456296E-2,2.621014416E-2,3.474521653E-2
1.209592200E1,6.862931829E-3,7.510825707E-2,-2.992488027E-2,8.114091799E-2
1.210592100E1,-1.053697497E-2,1.697895660E-1,-1.043149120E-1,1.995523125E-1
1.211591900E1,5.929816710E-2,1.060248114E-1,-9.606566012E-2,1.548746083E-1
1.212591800E1,7.747030836E-3,1.765366682E-1,-9.822152853E-3,1.769793389E-1
1.213591600E1,-7.963249907E-3,1.651950798E-1,8.600143254E-2,1.864110355E-1
1.214591500E1,4.058086434E-2,7.767749165E-2,1.471019125E-1,1.712295883E-1
1.215591300E1,8.237164551E-2,2.817137567E-2,2.001168627E-1,2.182326124E-1
1.216591200E1,6.115562651E-2,2.430925090E-2,2.619570154E-1,2.700970719E-1
1.217591000E1,7.980365803E-2,-2.624715293E-2,2.956515956E-1,3.073554991E-1
1.218590900E1,9.456097053E-2,-1.181411285E-1,3.022513479E-1,3.380162432E-1
1.219590700E1,1.126703639E-2,-7.710357830E-2,2.646987748E-1,2.759299717E-1
1.220590600E1,5.532836448E-3,-8.277241733E-2,2.314737260E-1,2.458901608E-1
1.221590500E1,3.052222816E-2,-9.814977223E-2,2.433003044E-1,2.641212266E-1
1.222590300E1,-2.835534140E-4,2.073076406E-2,2.126211333E-1,2.136295656E-1
1.223590200E1,-1.523460975E-2,8.552562450E-3,1.850930268E-1,1.859157557E-1
1.224590000E1,-5.639946476E-2,1.777385999E-1,1.036804891E-1,2.133578059E-1
1.225589900E1,1.000478698E-2,1.224123276E-1,8.139675021E-2,1.473441708E-1
1.226589700E1,-5.837160269E-2,2.242027682E-1,5.627126455E-2,2.384126265E-1
1.227589600E1,2.216686763E-2,2.044317241E-1,-1.045482159E-3,2.056326649E-1
1.228589400E1,7.192974262E-2,7.759592299E-2,5.540061414E-2,1.194330071E-1
1.229589300E1,6.252752949E-2,1.215683369E-1,7.472332299E-2,1.557951459E-1
1.230589100E1,1.260120289E-1,-2.650704567E-2,1.860923159E-1,2.263006958E-1
1.231589000E1,1.529903510E-1,-1.107126978E-1,3.085277492E-1,3.617357060E-1
1.232588800E1,1.038225581E-1,-6.456694694E-2,3.944251013E-1,4.129396744E-1
1.233588700E1,7.821917223E-2,-1.559539392E-1,5.431911314E-1,5.705229840E-1
1.234588500E1,6.712305726E-2,-1.106448884E-1,6.175642061E-1,6.309780858E-1
1.235588400E1,2.611960368E-2,-8.388011752E-2,7.299476910E-1,7.352154374E-1
1.236588200E1,1.412134374E-1,-7.617979588E-2,7.891887563E-1,8.053343960E-1
1.237588100E1,-5.258642234E-2,3.163916056E-2,9.506806666E-1,9.526594870E-1
1.238587900E1,-7.733814301E-2,1.239621870E-1,9.677235460E-1,9.786913066E-1
1.239587800E1,4.901799453E-2,5.935424555E-2,9.620213413E-1,9.650962395E-1
1.240587700E1,-6.048261199E-2,2.877679775E-1,8.819220883E-1,9.296532283E-1
1.241587500E1,7.257149281E-2,1.325044117E-1,9.485265523E-1,9.604825148E-1
1.242587400E1,6.380211286E-2,4.845570709E-2,1.064677983E0,1.067688097E0
1.243587200E1,-3.477607755E-2,2.648178022E-1,1.057337973E0,1.090550977E0
1.244587100E1,1.659122408E-1,-1.503856357E-1,1.274221727E0,1.293747935E0
1.245586900E1,2.032819970E-1,-2.610932766E-2,1.312073677E0,1.327984413E0
1.246586800E1,2.236910820E-2,3.739366130E-2,1.522664073E0,1.523287412E0
1.247586600E1,2.035184621E-1,-1.829612781E-1,1.664532142E0,1.686879322E0
1.248586500E1,1.290552123E-1,3.182091988E-2,1.724670171E0,1.729784673E0
1.249586300E1,8.594977604E-2,-1.354239082E-1,1.971461847E0,1.977975939E0
1.250586200E1,1.486056336E-1,2.259916644E-2,1.942538595E0,1.948345593E0
1.251586000E1,-1.664377045E-2,1.613341450E-1,1.948646012E0,1.955384106E0
1.252585900E1,7.383681200E-2,4.549837728E-2,1.944727793E0,1.946660773E0
1.253585700E1,-9.362068344E-3,1.720478521E-1,1.916572280E0,1.924301800E0
1.254585600E1,-1.504351543E-2,2.469733243E-1,1.826302380E0,1.842987388E0
1.255585400E1,7.324514687E-2,7.342673033E-2,1.788579653E0,1.791584079E0
1.256585300E1,4.014354743E-2,8.802811403E-2,1.749518498E0,1.752191607E0
1.257585200E1,6.078480341E-2,7.836009926E-2,1.798623415E0,1.801355403E0
1.258585000E1,1.157845909E-1,-1.175953000E-1,1.903408443E0,1.910549248E0
1.259584900E1,1.128191024E-1,-5.782500223E-2,1.825572647E0,1.829969227E0
1.260584700E1,8.062340112E-2,1.320523991E-3,1.744743662E0,1.746605944E0
1.261584600E1,1.407936073E-1,-9.797251937E-2,1.711968264E0,1.720539680E0
1.262584400E1,6.714507569E-2,8.201153012E-2,1.574117231E0,1.577681657E0
1.263584300E1,8.985017952E-2,5.508293218E-2,1.555269901E0,1.558836633E0
1.264584100E1,9.120163551E-2,2.647561232E-2,1.644497827E0,1.647237627E0
1.265584004E1,4.059641428E-2,1.113947572E-1,1.665613292E0,1.669827686E0
1.266583804E1,5.456033271E-2,3.226218138E-2,1.794357287E0,1.795476469E0
1.267583704E1,7.331032505E-2,-3.401222562E-2,1.934926690E0,1.936613676E0
1.268583504E1,6.459755346E-2,2.557528729E-2,2.016215851E0,2.017412526E0
1.269583404E1,9.527699864E-2,-4.454352239E-2,2.037034863E0,2.039748235E0
1.270583204E1,8.702707071E-2,-1.578562646E-2,1.938551964E0,1.940568631E0
1.271583104E1,7.101721153E-2,5.920189817E-2,1.863566685E0,1.865858810E0
1.272582904E1,9.802290592E-2,9.267792841E-3,1.769723552E0,1.772460389E0
1.273582804E1,5.944195379E-2,6.970648505E-2,1.481440617E0,1.484270408E0
1.274582704E1,3.440536408E-2,7.806224758E-2,1.392241343E0,1.394852465E0
1.275582504E1,5.138441753E-2,4.164587986E-2,1.415310947E0,1.416855608E0
1.276582404E1,4.336817723E-2,9.845323359E-2,1.331357210E0,1.335696769E0
1.277582204E1,8.127388559E-2,9.930859673E-3,1.237674875E0,1.240380249E0
1.278582104E1,7.110650947E-2,6.333416202E-2,1.209093685E0,1.212837536E0
1.279581904E1,7.917071521E-2,5.020626753E-2,1.115548759E0,1.119480998E0
1.280581804E1,8.839378428E-2,1.584351161E-2,9.830800885E-1,9.871732059E-1
1.281581604E1,6.786053734E-2,6.070296980E-2,8.277037811E-1,8.326964947E-1
1.282581504E1,8.658545975E-2,2.987985671E-2,6.914811981E-1,6.975213939E-1
1.283581304E1,6.003047604E-2,3.663374253E-2,4.750225371E-1,4.802000624E-1
1.284581204E1,4.934796022E-2,2.088930811E-2,2.371583891E-1,2.431371750E-1
1.285581004E1,3.075942412E-2,5.361529018E-2,1.073642349E-1,1.238863207E-1
1.286580904E1,-8.563393503E-3,5.943843632E-2,-5.745415628E-2,8.310980384E-2
1.287580704E1,-3.898457447E-2,4.661512694E-2,-2.086444420E-1,2.173137600E-1
1.288580604E1,-4.926673874E-2,6.344288369E-2,-3.801801145E-1,3.885731984E-1
1.289580404E1,-7.763090579E-2,7.139185360E-2,-5.139866281E-1,5.246957291E-1
1.290580304E1,-7.337426070E-2,3.009336230E-2,-7.220334846E-1,7.263757605E-1
1.291580204E1,-6.443355734E-2,4.828902947E-2,-1.005964921E0,1.009182311E0
1.292580004E1,-1.330913991E-2,1.716354795E-2,-1.185267450E0,1.185466427E0
1.293579904E1,1.146112740E-2,9.089274035E-3,-1.376543908E0,1.376621626E0
1.294579704E1,5.005561950E-2,6.481685146E-2,-1.566338680E0,1.568478132E0
1.295579604E1,1.355246813E-1,-6.600208664E-2,-1.724568429E0,1.731143980E0
1.296579404E1,1.141902745E-1,-5.551572663E-2,-1.861258789E0,1.865584545E0
1.297579304E1,6.253326707E-2,3.564240650E-2,-2.120995617E0,2.122216577E0
1.298579104E1,8.089440130E-3,-5.218456331E-2,-2.243914615E0,2.244535913E0
1.299579004E1,-1.112966336E-2,-9.109530754E-2,-2.436721873E0,2.438449448E0
1.300578804E1,-1.051011615E-1,-4.389487431E-2,-2.575027235E0,2.577545009E0
1.301578704E1,-1.181576103E-1,2.416490233E-2,-2.797786270E0,2.800384470E0
1.302578504E1,6.917097146E-2,-4.409444252E-2,-3.064089521E0,3.065187358E0
1.303578404E1,-3.514562889E-1,1.143718671E-1,-3.152991173E0,3.174579623E0
1.304578204E1,-1.035641477E-1,7.071026011E-2,-3.436343150E0,3.438630501E0
1.305578104E1,-6.753108328E-2,-6.428425234E-2,-3.546643272E0,3.547868573E0
1.306578004E1,-2.091208073E-1,1.825697339E-1,-3.707689624E0,3.718067451E0
1.307577804E1,-1.300953771E-1,9.457467495E-2,-3.700329734E0,3.703823608E0
1.308577704E1,-2.095289430E-2,-5.412481107E-2,-3.608841274E0,3.609307948E0
1.309577504E1,2.545214402E-2,-5.297603876E-2,-3.501199881E0,3.501693145E0
1.310577404E1,3.630682379E-3,4.821274843E-3,-3.327256910E0,3.327262384E0
1.311577204E1,2.214028107E-2,-9.948647999E-3,-3.172477604E0,3.172570458E0
1.312577104E1,1.944480602E-2,-6.853537912E-2,-3.007072737E0,3.007916495E0
1.313576904E1,-8.137442116E-3,8.673931004E-3,-2.856930857E0,2.856955613E0
1.314576804E1,-1.709601603E-2,-1.658583733E-2,-2.713668226E0,2.713772762E0
1.315576604E1,-8.392143175E-3,-4.208924955E-2,-2.519678661E0,2.520044144E0
1.316576504E1,2.573169574E-2,6.179459928E-2,-2.212518575E0,2.213530921E0
1.317576304E1,-1.460442060E-1,3.588493576E-2,-1.703720182E0,1.710344730E0
1.318576204E1,-2.809163198E-2,1.439758768E-2,-1.468396064E0,1.468735317E0
1.319576004E1,-1.609642538E-1,5.569942970E-2,-1.210311660E0,1.222238205E0
1.320575904E1,-3.333883194E-2,5.218296903E-2,-1.144868453E0,1.146541894E0
1.321575704E1,-1.196326618E-1,7.262958124E-2,-9.619149220E-1,9.720428730E-1
1.322575604E1,-1.392947467E-2,5.356881852E-2,-8.506599498E-1,8.524587959E-1
1.323575504E1,2.088905001E-2,5.624420291E-2,-7.431489497E-1,7.455669817E-1
1.324575304E1,2.834088782E-2,5.773155184E-2,-5.637920415E-1,5.674483273E-1
1.325575204E1,1.091549447E-1,4.228643320E-2,-4.660166556E-1,4.804939830E-1
1.326575004E1,1.263811527E-1,-2.701838697E-2,-4.052196461E-1,4.253294612E-1
1.327574904E1,8.152363479E-2,-4.131122269E-2,-2.887401867E-1,3.028590688E-1
1.328574704E1,4.389819078E-2,8.886849025E-3,-1.586501634E-1,1.648511498E-1
1.329574604E1,3.994470555E-2,-6.348574195E-2,-6.059352636E-2,9.642403419E-2
1.330574404E1,1.513157085E-2,-4.346805955E-2,-7.090976894E-2,8.453775469E-2
1.331574304E1,2.719353620E-2,-2.528923967E-2,-2.404082716E-2,4.423794101E-2
1.332574104E1,-3.679236196E-2,-1.662403724E-2,1.175857526E-1,1.243239548E-1
1.333574004E1,-1.705610879E-2,9.961036787E-3,2.036713850E-1,2.046268951E-1
1.334573804E1,-1.598584905E-2,7.087796100E-2,2.002466708E-1,2.130210363E-1
1.335573704E1,-3.958670978E-2,7.750798635E-2,1.876903600E-1,2.068870870E-1
1.336573504E1,2.344722513E-2,8.584420639E-2,1.633051318E-1,1.859773271E-1
1.337573404E1,3.565197218E-2,1.365298177E-1,9.415186644E-2,1.696349852E-1
1.338573304E1,9.597908478E-2,1.960204358E-2,1.869998038E-2,9.972920382E-2
1.339573104E1,7.580834694E-2,1.137311424E-3,-5.409259200E-3,7.600959827E-2
1.340573004E1,6.794647314E-3,5.386244925E-2,5.011648536E-2,7.388499696E-2
1.341572804E1,5.622225758E-2,-1.385485872E-2,9.440855920E-2,1.107514127E-1
1.342572704E1,7.742440771E-2,-6.505803997E-3,2.134233713E-2,8.057518073E-2
1.343572504E1,2.035700820E-2,2.251623191E-2,-9.214042425E-2,9.701157799E-2
1.344572404E1,4.699045423E-2,1.411576787E-2,-2.152172971E-1,2.207393093E-1
1.345572204E1,4.050647680E-2,7.213331252E-2,-2.576061022E-1,2.705640282E-1
1.346572104E1,-2.743773054E-2,6.883651529E-2,-2.393727297E-1,2.505805232E-1
1.347571904E1,4.232278643E-2,-3.702530955E-2,-1.929931998E-1,2.010185737E-1
1.348571804E1,-2.555763144E-2,3.004975258E-2,-1.573883343E-1,1.622567962E-1
1.349571604E1,-8.877991978E-3,2.625532304E-2,-1.702820295E-1,1.725228399E-1
1.350571504E1,-6.121486612E-4,-1.568281824E-2,-1.966377693E-1,1.972631183E-1
1.351571304E1,-7.616747562E-3,1.602967348E-2,-3.361622751E-1,3.366304212E-1
1.352571204E1,1.521246342E-2,1.970105796E-2,-4.219456065E-1,4.226791284E-1
1.353571104E1,8.645236250E-3,5.562306872E-2,-4.545876878E-1,4.580596379E-1
1.354570904E1,1.424716121E-2,7.228216984E-2,-5.104326904E-1,5.157220425E-1
1.355570804E1,2.801874278E-2,5.976016566E-2,-6.074350744E-1,6.110103903E-1
1.356570604E1,2.056188002E-2,4.922725176E-2,-8.051738745E-1,8.069393294E-1
1.357570504E1,1.319566738E-2,1.435891155E-2,-9.692309582E-1,9.694271269E-1
1.358570304E1,6.619084664E-3,-1.522913598E-3,-1.072511498E0,1.072533004E0
1.359570204E1,-3.553663585E-3,-3.696924252E-2,-1.121155654E0,1.121770634E0
1.360570004E1,4.821522664E-3,-6.756921809E-2,-1.118751864E0,1.120800865E0
1.361569904E1,1.624648869E-3,-4.045571566E-2,-1.057663663E0,1.058438344E0
1.362569704E1,7.310901638E-3,-3.773599750E-2,-9.858002132E-1,9.865492969E-1
1.363569604E1,1.583193937E-2,-1.866892047E-2,-9.910206074E-1,9.913228652E-1
1.364569404E1,1.216114875E-2,4.024096753E-2,-1.025278274E0,1.026139741E0
1.365569354E1,2.342515189E-2,5.787958690E-2,-1.005942117E0,1.007878131E0
1.366569154E1,3.492432274E-3,8.286717877E-2,-9.901908875E-1,9.936584725E-1
1.367569054E1,8.788328581E-3,8.874691042E-2,-9.413607895E-1,9.455756897E-1
1.368568954E1,2.503529236E-2,4.512373977E-2,-8.444899678E-1,8.460651414E-1
1.369568754E1,1.500220120E-2,-9.631392010E-3,-8.033062738E-1,8.035040755E-1
1.370568654E1,-5.158117633E-2,3.829728680E-3,-8.359202886E-1,8.375189630E-1
1.371568454E1,-3.743117027E-2,-4.784569632E-2,-8.134611332E-1,8.157262522E-1
1.372568354E1,8.235035799E-3,-4.084178264E-2,-8.011878276E-1,8.022704046E-1
1.373568154E1,-2.266870491E-2,2.543622748E-3,-9.142010576E-1,9.144856007E-1
1.374568054E1,-3.935972817E-2,5.122540524E-2,-1.081401604E0,1.083329433E0
1.375567854E1,3.787990753E-2,7.845737318E-2,-1.206092309E0,1.209234925E0
1.376567754E1,-9.078204297E-3,7.075690079E-2,-1.128405032E0,1.130657715E0
1.377567554E1,3.261467256E-3,5.838045117E-2,-1.109092264E0,1.110632506E0
1.378567454E1,2.592549440E-2,2.239393146E-2,-1.056997665E0,1.057552686E0
1.379567254E1,1.701229122E-2,1.115843007E-2,-1.042480198E0,1.042678710E0
1.380567154E1,1.524380084E-2,-2.650253464E-2,-1.057305229E0,1.057747184E0
1.381566954E1,-4.736865945E-3,-2.631811894E-2,-9.649496269E-1,9.653200836E-1
1.382566854E1,2.130111426E-2,-1.809003813E-2,-9.181017351E-1,9.185269637E-1
1.383566754E1,3.883172460E-3,-8.702454167E-4,-9.357679278E-1,9.357763894E-1
1.384566554E1,-7.349043757E-2,8.799520517E-2,-9.935530365E-1,1.000145808E0
1.385566454E1,1.943599865E-2,3.766752341E-2,-9.703594708E-1,9.712847693E-1
1.386566254E1,-1.936137356E-2,5.340093948E-2,-9.076434052E-1,9.094190861E-1
1.387566154E1,-6.623024225E-2,1.610254486E-1,-9.048069209E-1,9.214071870E-1
1.388565954E1,7.918942630E-2,-4.762521974E-2,-8.163607675E-1,8.215741169E-1
1.389565854E1,2.485125124E-2,-8.575192088E-2,-6.556085300E-1,6.616596718E-1
1.390565654E1,-1.229584302E-1,1.247153632E-1,-5.705970311E-1,5.968698931E-1
1.391565554E1,1.172628584E-1,-1.534236662E-1,-4.959450442E-1,5.322131961E-1
1.392565354E1,9.685686149E-2,-9.509139522E-2,-5.338385099E-1,5.508240915E-1
1.393565254E1,-1.620461166E-1,1.946232574E-1,-5.819143170E-1,6.346348782E-1
1.394565054E1,2.562464601E-1,-1.155247918E-1,-8.299695772E-1,8.762749140E-1
1.395564954E1,-3.823461425E-2,-8.291058292E-3,-7.843174410E-1,7.852926051E-1
1.396564754E1,-2.133252477E-2,2.102635908E-1,-6.879266757E-1,7.196589229E-1
1.397564654E1,7.953333395E-2,-2.908551246E-2,-4.542614132E-1,4.620875997E-1
1.398564554E1,2.636018006E-2,3.069047037E-3,-4.434820712E-1,4.442753939E-1
1.399564354E1,-3.802711118E-2,1.571758245E-1,-5.130803096E-1,5.379606911E-1
1.400564254E1,-2.563072164E-3,-9.904335926E-3,-5.401727986E-1,5.402696712E-1
1.401564054E1,6.266261844E-2,-1.185145828E-1,-5.257968342E-1,5.426183014E-1
1.402563954E1,-1.037915496E-1,1.251660830E-1,-4.786396247E-1,5.055048214E-1
1.403563754E1,3.514052354E-2,-7.164417466E-2,-4.397135407E-1,4.468956724E-1
1.404563654E1,2.020748394E-2,-1.172761974E-1,-4.877566034E-1,5.020642917E-1
1.405563454E1,-3.881357996E-2,1.740083687E-1,-6.892276812E-1,7.119130585E-1
1.406563354E1,1.657161215E-2,-2.539328128E-2,-5.670734990E-1,5.678836063E-1
1.407563154E1,7.687509835E-2,-2.005496754E-2,-4.872753775E-1,4.937097082E-1
1.408563054E1,-3.862286936E-2,1.805862487E-1,-4.788758522E-1,5.132496480E-1
1.409562854E1,2.163124440E-2,2.988736672E-2,-3.119571412E-1,3.141312199E-1
1.410562754E1,7.617851224E-2,1.526290936E-2,-2.836490160E-1,2.940967297E-1
1.411562554E1,-1.432085440E-2,9.554086338E-2,-2.822848606E-1,2.983586533E-1
1.412562454E1,1.609193947E-2,1.628569587E-2,-1.294392282E-1,1.314484241E-1
1.413562354E1,5.155413296E-2,1.000088465E-2,-7.539165974E-2,9.187898931E-2
1.414562154E1,2.732074969E-3,5.386448664E-2,-1.087570417E-1,1.213958042E-1
1.415562054E1,3.921837173E-2,-1.158812847E-2,-2.761055231E-2,4.934276038E-2
1.416561854E1,4.740257330E-2,1.325305917E-2,9.064996898E-2,1.031506879E-1
1.417561754E1,3.425390292E-2,4.719768321E-2,7.149390578E-2,9.226228769E-2
1.418561554E1,5.207453515E-2,-4.007054403E-2,-7.684761643E-2,1.011086636E-1
1.419561454E1,1.376803670E-2,1.552465905E-2,-1.678630364E-1,1.691406895E-1
1.420561254E1,9.833847284E-3,8.081733682E-2,-2.162206793E-1,2.310401018E-1
1.421561154E1,3.557456966E-2,-2.686990652E-2,-2.442265034E-1,2.482622139E-1
1.422560954E1,1.697885245E-2,2.292983791E-2,-2.858528316E-1,2.872732153E-1
1.423560854E1,-9.162696563E-3,5.507709866E-2,-1.527953464E-1,1.626771640E-1
1.424560654E1,4.477183789E-2,-2.521664969E-2,1.588337660E-2,5.378362708E-2
1.425560554E1,2.490214029E-2,2.535090724E-2,-4.086852908E-2,5.415737954E-2
1.426560454E1,1.250434376E-2,2.881235613E-2,-8.443847179E-2,9.009087633E-2
1.427560254E1,3.344801042E-2,-1.995651048E-2,-4.688005149E-2,6.094892074E-2
1.428560154E1,2.593104925E-2,2.885438527E-2,-2.473956943E-2,4.601131556E-2
1.429559954E1,3.840807555E-2,3.895670883E-3,1.005387801E-1,1.076958812E-1
1.430559854E1,5.581280630E-2,-7.823865191E-3,1.897474104E-1,1.979402990E-1
1.431559654E1,2.955065846E-2,5.613993974E-2,1.144422895E-1,1.308509529E-1
1.432559554E1,6.476514928E-2,1.168658096E-2,1.407816571E-1,1.554045550E-1
1.433559354E1,7.502346788E-2,2.448653574E-2,2.656197113E-1,2.770955470E-1
1.434559254E1,5.865961460E-2,5.984239213E-2,3.799789703E-1,3.891093421E-1
1.435559054E1,7.005574655E-2,1.314325257E-2,5.025687701E-1,5.075981889E-1
1.436558954E1,6.213072281E-2,3.182126021E-2,4.700816399E-1,4.752363280E-1
1.437558754E1,2.930297406E-2,3.647809924E-2,3.750217009E-1,3.779293481E-1
1.438558654E1,3.901256802E-2,-6.459917058E-5,3.835498649E-1,3.855288361E-1
1.439558454E1,2.192983612E-2,3.028726146E-2,4.670720780E-1,4.685664968E-1
1.440558354E1,1.089175478E-2,1.775131532E-2,5.734990042E-1,5.738770316E-1
1.441558254E1,1.887444668E-2,9.312301344E-3,6.871063113E-1,6.874285757E-1
1.442558054E1,3.230458740E-3,5.215167729E-2,8.041605520E-1,8.058563313E-1
1.443557954E1,1.232194718E-2,4.709001679E-2,7.656829494E-1,7.672285703E-1
1.444557754E1,1.723969309E-2,5.354137772E-2,6.968220448E-1,6.990885840E-1
1.445557654E1,2.987463076E-2,6.558914074E-2,6.161380702E-1,6.203390609E-1
1.446557454E1,3.148334596E-2,6.459420959E-2,6.511669850E-1,6.551198786E-1
1.447557354E1,6.220803397E-2,4.329760408E-2,8.894801992E-1,8.927035044E-1
1.448557154E1,7.495006705E-2,5.782406576E-2,1.175240645E0,1.179046949E0
1.449557054E1,9.843279574E-2,1.845933776E-2,1.280173607E0,1.284084977E0
1.450556854E1,8.901221870E-2,2.068112668E-2,1.190365053E0,1.193867599E0
1.451556754E1,8.973548273E-2,1.582467832E-2,1.171958603E0,1.175495574E0
1.452556554E1,1.125619894E-1,-1.316275167E-2,1.197112740E0,1.202465123E0
1.453556454E1,8.229128284E-2,2.382407590E-2,1.093683096E0,1.097033343E0
1.454556254E1,6.746559447E-2,1.419802061E-2,1.029471313E0,1.031777289E0
1.455556154E1,7.041248152E-2,-1.912053451E-2,1.117343854E0,1.119723538E0
1.456556054E1,3.925341848E-2,6.917591418E-2,1.223478420E0,1.226061002E0
1.457555854E1,5.359188762E-2,3.923754421E-2,1.293687692E0,1.295391648E0
1.458555754E1,5.084069956E-2,2.164890025E-2,1.318841829E0,1.319998948E0
1.459555554E1,2.501972415E-2,7.748648870E-2,1.421535308E0,1.423865434E0
1.460555454E1,4.622644242E-2,3.713755325E-2,1.605663545E0,1.606758071E0
1.461555254E1,7.849642161E-2,2.158973831E-2,1.736797881E0,1.738704887E0
1.462555154E1,5.997087099E-2,5.618260615E-2,1.744889258E0,1.746823263E0
1.463554954E1,7.964010045E-2,-2.010194398E-2,1.764206704E0,1.766117756E0
1.464554854E1,9.661942799E-2,-2.679451855E-2,1.735174109E0,1.738068597E0
1.465554692E1,8.079417637E-2,1.157331171E-2,1.636681854E0,1.638715696E0
1.466554592E1,1.106106456E-1,-3.021288305E-2,1.607051089E0,1.611136473E0
1.467554492E1,1.108330042E-1,-5.399106515E-3,1.635948029E0,1.639707004E0
1.468554292E1,9.887908448E-2,3.990480287E-2,1.602720641E0,1.606263652E0
1.469554192E1,1.132447432E-1,2.127368031E-2,1.512009276E0,1.516393416E0
1.470553992E1,8.415722072E-2,6.427229752E-2,1.362611747E0,1.366720212E0
1.471553892E1,6.026608229E-2,8.315339084E-2,1.224891692E0,1.229189222E0
1.472553692E1,5.992378263E-2,5.082012467E-2,1.137910266E0,1.140619708E0
1.473553592E1,4.807310276E-2,6.050842653E-2,1.049875757E0,1.052716200E0
1.474553392E1,3.160600958E-2,6.389430701E-2,9.128930354E-1,9.156719480E-1
1.475553292E1,3.120529259E-2,2.517512075E-2,7.712728876E-1,7.723143299E-1
1.476553092E1,2.890801292E-2,3.209235631E-2,6.624287224E-1,6.638353748E-1
1.477552992E1,3.689395733E-2,1.917975356E-2,5.688539761E-1,5.703716974E-1
1.478552792E1,2.558642898E-2,1.393458870E-3,5.064098060E-1,5.070576877E-1
1.479552692E1,3.839393260E-2,7.807240026E-3,4.288453209E-1,4.306313462E-1
1.480552492E1,3.762717990E-2,2.488354569E-3,3.717823434E-1,3.736898546E-1
1.481552392E1,4.304844417E-2,7.785103975E-3,3.349302667E-1,3.377751619E-1
1.482552292E1,2.989038169E-2,3.334041252E-2,2.621488041E-1,2.659455085E-1
1.483552092E1,2.904045235E-2,3.217355495E-2,1.775454408E-1,1.827590464E-1
1.484551992E1,2.571250957E-2,5.365144699E-2,1.126992345E-1,1.274391163E-1
1.485551792E1,4.426958034E-2,5.414893541E-2,8.572368979E-2,1.106365850E-1
1.486551692E1,4.267575726E-2,4.766064108E-2,8.284685969E-2,1.046726284E-1
1.487551492E1,4.108927974E-2,6.195775030E-2,6.170800567E-2,9.661764691E-2
1.488551392E1,3.532259122E-2,4.755873051E-2,6.889189482E-3,5.964041607E-2
1.489551192E1,4.227282928E-2,4.265556152E-2,-3.984175801E-2,7.206840297E-2
1.490551092E1,4.609619569E-2,2.614314786E-2,-3.448103070E-2,6.322392676E-2
1.491550892E1,4.560841000E-2,1.663351955E-2,-3.421088934E-2,5.939011689E-2
1.492550792E1,4.663558306E-2,-1.004173293E-2,-4.172105312E-2,6.337476060E-2
1.493550592E1,3.257823709E-2,-9.693872707E-3,-8.784272075E-2,9.418947016E-2
1.494550492E1,2.768969072E-2,1.150068176E-2,-8.994888783E-2,9.481448768E-2
1.495550292E1,2.224039637E-2,-8.253558454E-3,-7.902511954E-2,8.250894483E-2
1.496550192E1,1.339997275E-2,1.088453598E-2,-6.435620964E-2,6.663147989E-2
1.497550092E1,-3.550721705E-4,1.679195397E-2,-3.350863874E-2,3.748232469E-2
1.498549892E1,5.686453767E-3,2.916174782E-2,-3.124342740E-2,4.311490517E-2
1.499549792E1,1.190982811E-2,3.550617780E-2,-2.088742375E-2,4.288143116E-2
1.500549592E1,2.865144806E-2,-2.778881245E-3,5.413352251E-2,6.131122178E-2
1.501549492E1,1.560504913E-2,1.720301094E-2,1.599944383E-1,1.616715232E-1
1.502549292E1,3.300745927E-2,-8.642069960E-3,2.832221693E-1,2.852700035E-1
1.503549192E1,5.319060417E-2,-1.072969782E-2,4.001600504E-1,4.038222786E-1
1.504548992E1,5.746828096E-2,1.631071670E-2,5.664975482E-1,5.696385827E-1
1.505548892E1,6.156151464E-2,2.236493977E-2,7.509479660E-1,7.537989508E-1
1.506548692E1,6.959869528E-2,2.992051313E-2,8.714760375E-1,8.747626532E-1
1.507548592E1,5.529399382E-2,5.111161294E-2,9.373642176E-1,9.403836979E-1
1.508548492E1,6.219067505E-2,6.150906329E-2,9.535574967E-1,9.575609351E-1
1.509548292E1,5.891495520E-2,5.322474643E-2,1.027531207E0,1.030594113E0
1.510548192E1,5.748419635E-2,6.212461521E-2,1.210322185E0,1.213278077E0
1.511547992E1,6.128569052E-2,5.410731054E-2,1.387579942E0,1.389986199E0
1.512547892E1,7.221961834E-2,3.537556105E-2,1.564381033E0,1.566446654E0
1.513547692E1,6.849137882E-2,3.717980623E-2,1.741776200E0,1.743518780E0
1.514547592E1,8.079008332E-2,2.196202322E-2,1.879499179E0,1.881362945E0
1.515547392E1,8.094536344E-2,1.043685282E-2,1.965878926E0,1.967572370E0
1.516547292E1,8.000326736E-2,2.461656319E-2,2.025017080E0,2.026746327E0
1.517547092E1,8.439065253E-2,1.688714253E-2,2.119623275E0,2.121369790E0
1.518546992E1,8.857080873E-2,2.226405703E-2,2.174708725E0,2.176625488E0
1.519546792E1,7.003082279E-2,4.232184083E-2,2.180691011E0,2.182225639E0
1.520546692E1,9.308067480E-2,2.646896568E-2,2.174693522E0,2.176845546E0
1.521546592E1,8.975170875E-2,4.571836049E-2,2.156573001E0,2.158923955E0
1.522546392E1,8.057903538E-2,6.901850531E-2,2.089204890E0,2.091897131E0
1.523546292E1,8.008965997E-2,5.868303088E-2,2.045778204E0,2.048186152E0
1.524546092E1,9.836668566E-2,4.768029321E-2,1.980350200E0,1.983364901E0
1.525545992E1,9.474353157E-2,4.796699863E-2,1.934228532E0,1.937141498E0
1.526545792E1,9.985059936E-2,2.120190346E-2,1.913842800E0,1.916563050E0
1.527545692E1,9.825864008E-2,3.300436892E-2,1.915311036E0,1.918113764E0
1.528545492E1,9.800660681E-2,2.151292508E-2,1.881746848E0,1.884420150E0
1.529545392E1,9.845777432E-2,8.215029642E-3,1.803277214E0,1.805981764E0
1.530545192E1,8.080124784E-2,2.572257317E-2,1.717319051E0,1.719411299E0
1.531545092E1,9.350481721E-2,1.146725670E-2,1.674472409E0,1.677120299E0
1.532544892E1,9.454702858E-2,1.395744537E-2,1.641804015E0,1.644583344E0
1.533544792E1,6.809184954E-2,2.326170394E-2,1.633085232E0,1.634669686E0
1.534544692E1,6.810478650E-2,1.034743108E-1,1.558804543E0,1.563718900E0
1.535544492E1,7.568972155E-2,1.987390714E-2,1.449199070E0,1.451310391E0
1.536544392E1,4.229939757E-2,7.631574365E-2,1.348575506E0,1.351395289E0
1.537544192E1,9.057044685E-3,3.371941259E-2,1.361265718E0,1.361713400E0
1.538544092E1,3.811788920E-2,-1.908342753E-2,1.379946987E0,1.380605243E0
1.539543892E1,1.914389368E-2,-6.226590313E-3,1.304172919E0,1.304328280E0
1.540543792E1,3.255448278E-2,-6.662604165E-3,1.126912823E0,1.127402632E0
1.541543592E1,6.610516666E-2,-1.424350898E-2,1.069401364E0,1.071537236E0
1.542543492E1,5.980311072E-2,7.370420355E-2,9.607033789E-1,9.653806006E-1
1.543543292E1,7.490504349E-2,3.632297216E-2,8.358436900E-1,8.399790462E-1
1.544543192E1,5.266768036E-2,2.508718183E-2,7.045544028E-1,7.069654573E-1
1.545542992E1,4.295368273E-2,6.331437285E-2,5.903389853E-1,5.952762773E-1
1.546542892E1,5.174862597E-2,-1.178291041E-2,5.240280515E-1,5.267087962E-1
1.547542792E1,6.711340936E-2,-9.441697828E-3,4.824233580E-1,4.871608068E-1
1.548542592E1,2.818893330E-2,2.821651115E-2,3.364926428E-1,3.388481756E-1
1.549542492E1,5.387723174E-2,3.724159257E-2,1.588331813E-1,1.718070772E-1
1.550542292E1,6.936475184E-2,5.241740126E-2,-7.570156217E-2,1.152813049E-1
1.551542192E1,2.456402505E-2,7.623242083E-2,-2.693718696E-1,2.810266490E-1
1.552541992E1,5.826715680E-2,4.972656287E-2,-4.019621623E-1,4.091960074E-1
1.553541892E1,-2.481649686E-3,7.113132359E-2,-4.653968507E-1,4.708078721E-1
1.554541692E1,5.456462676E-2,-1.933613003E-2,-6.277711058E-1,6.304345689E-1
1.555541592E1,-5.734656751E-3,1.339934235E-2,-8.247234553E-1,8.248522331E-1
1.556541392E1,-2.040027760E-2,2.286170871E-2,-1.026312062E0,1.026769340E0
1.557541292E1,1.026792996E-2,-3.355971508E-2,-1.103204117E0,1.103762207E0
1.558541092E1,-4.066109911E-2,-1.272452341E-2,-1.159437960E0,1.160220505E0
1.559540992E1,-4.018577529E-2,2.643517289E-2,-1.249198567E0,1.250124304E0
1.560540892E1,-4.704207418E-2,1.623014390E-2,-1.299585779E0,1.300538185E0
1.561540692E1,-3.515791900E-2,-1.816829717E-2,-1.314189200E0,1.314784933E0
1.562540592E1,-4.576341603E-3,1.156050922E-3,-1.304106261E0,1.304114803E0
1.563540392E1,-4.782209275E-2,4.293936619E-2,-1.294784045E0,1.296378211E0
1.564540292E1,1.800942421E-2,-3.624161820E-2,-1.211060688E0,1.211736681E0
1.565540075E1,4.158799242E-2,-4.825839554E-2,-1.258926580E0,1.260537412E0
1.566539975E1,-2.036751492E-2,1.845272481E-3,-1.366979032E0,1.367132004E0
1.567539775E1,5.331198871E-4,4.852744740E-3,-1.398551658E0,1.398560178E0
1.568539675E1,2.869113604E-2,-5.116305930E-2,-1.395553790E0,1.396786033E0
1.569539475E1,-2.424151456E-2,5.928942825E-2,-1.511410521E0,1.512767216E0
1.570539375E1,-6.731281769E-2,1.062913805E-1,-1.775298872E0,1.779751375E0
1.571539175E1,-5.968556341E-2,-2.771419421E-2,-1.904162149E0,1.905298909E0
1.572539075E1,-7.176382788E-2,1.429158634E-1,-2.015064535E0,2.021400522E0
1.573538975E1,-8.186036132E-2,9.543814424E-2,-2.013999757E0,2.017920855E0
1.574538775E1,1.046139240E-1,-3.777491346E-2,-2.182574399E0,2.185406604E0
1.575538675E1,8.093595307E-2,-4.031186958E-2,-2.312979587E0,2.314746260E0
1.576538475E1,-1.921828671E-1,9.932108830E-2,-2.349213613E0,2.359153139E0
1.577538375E1,-3.903548179E-2,-5.836766495E-2,-2.568966011E0,2.569925469E0
1.578538175E1,-3.323506214E-2,-1.039346328E-1,-2.661327460E0,2.663563558E0
1.579538075E1,-8.107963013E-2,5.991220240E-2,-2.712822719E0,2.714695283E0
1.580537875E1,-4.302710183E-2,-9.128806124E-3,-2.618086131E0,2.618455586E0
1.581537775E1,2.921278076E-2,4.440085033E-2,-2.691002079E0,2.691526892E0
1.582537575E1,-8.415504629E-2,7.726963922E-2,-2.646253338E0,2.648718444E0
1.583537475E1,-1.768388048E-2,4.242641462E-2,-2.664979046E0,2.665375402E0
1.584537375E1,-3.565065656E-3,2.305525383E-2,-2.589396767E0,2.589501858E0
1.585537175E1,-1.176114986E-1,4.412899135E-2,-2.460080330E0,2.463285421E0
1.586537075E1,-3.129585134E-2,-2.650844352E-3,-2.308911679E0,2.309125289E0
1.587536875E1,-5.676922806E-2,-6.036404142E-2,-2.051610802E0,2.053283576E0
1.588536775E1,-6.684518661E-2,-1.823406693E-2,-1.853884866E0,1.855179198E0
1.589536575E1,-9.044034630E-3,-1.018276617E-2,-1.775008850E0,1.775061098E0
1.590536475E1,-6.554474758E-2,1.214986773E-2,-1.625173364E0,1.626539946E0
1.591536275E1,1.323175566E-2,3.086142149E-2,-1.487315900E0,1.487694892E0
1.592536175E1,1.760596633E-2,4.815204930E-2,-1.260838035E0,1.261880002E0
1.593535975E1,4.128865153E-4,5.770494245E-2,-9.922923768E-1,9.939689089E-1
