"Time (s)","Linear Acceleration x (m/s^2)","Linear Acceleration y (m/s^2)","Linear Acceleration z (m/s^2)","Absolute acceleration (m/s^2)"
5.429125013E-3,-4.430922263E-2,-9.606335778E-3,-2.342920840E-2,5.103446584E-2
1.542712501E-2,-4.032591661E-2,2.770045325E-3,-8.909402490E-3,4.139118449E-2
2.542512500E-2,-5.131545693E-2,3.237164766E-3,-1.714052796E-2,5.419919791E-2
3.542412500E-2,-4.725422761E-2,1.146591481E-2,-2.043484926E-2,5.274478452E-2
4.542212500E-2,-3.625032507E-2,2.454993691E-2,-3.240877748E-2,5.447122477E-2
5.542012502E-2,-4.386232177E-2,2.442657894E-2,-3.899566591E-2,6.357061419E-2
6.541912502E-2,-4.060268177E-2,2.609303540E-2,-3.600072205E-2,6.021192781E-2
7.541712502E-2,-3.611856172E-2,3.192714963E-2,-3.030962706E-2,5.694354113E-2
8.541612502E-2,-4.438125302E-2,2.591065709E-2,-1.683764219E-2,5.407923784E-2
9.541412501E-2,-3.763695572E-2,2.707869323E-2,-2.537399232E-2,5.285485360E-2
1.054121250E-1,-2.695433026E-2,2.449261593E-2,-2.148325503E-2,4.228420984E-2
1.154111250E-1,-3.320409017E-2,1.514501944E-2,-3.420504212E-2,5.001867776E-2
1.254091250E-1,-2.715954012E-2,1.013249382E-2,-1.399706483E-2,3.219046248E-2
1.354071250E-1,-2.738500510E-2,2.233270928E-3,-2.342570007E-2,3.610663966E-2
1.454061250E-1,-3.205679337E-2,-7.436013781E-3,-3.166033387E-2,4.566518414E-2
1.554041250E-1,-2.779499542E-2,-9.374201316E-3,-3.450500429E-2,4.528832898E-2
1.654021250E-1,-3.702382034E-2,-1.421746831E-2,-3.106508732E-2,5.037796470E-2
1.754011250E-1,-4.148723759E-2,-1.720830085E-2,-2.402387023E-2,5.093586989E-2
1.853991250E-1,-4.996090374E-2,-1.899014845E-2,-2.102483332E-2,5.743484358E-2
1.953971250E-1,-4.799217364E-2,-6.613438446E-3,-2.521202445E-2,5.461348254E-2
2.053961250E-1,-6.637206464E-2,-4.622808695E-3,-3.044703662E-2,7.316859548E-2
2.153941250E-1,-5.669601909E-2,7.839782294E-3,-4.212275684E-2,7.106495206E-2
2.253921250E-1,-4.031163661E-2,1.265779663E-2,-3.808466971E-2,5.688312516E-2
2.353911250E-1,-3.703808206E-2,1.793043198E-2,-2.431564629E-2,4.779718159E-2
2.453891250E-1,-2.777392717E-2,1.845182089E-2,-2.625984550E-2,4.244337652E-2
2.553881250E-1,-2.038523016E-2,1.430771643E-2,-2.820755303E-2,3.762890386E-2
2.653861250E-1,-1.742109382E-2,8.334566373E-3,-2.881215513E-2,3.468572890E-2
2.753841250E-1,-2.048970345E-2,4.173468444E-3,-7.106705904E-3,2.208508672E-2
2.853831250E-1,-3.306592229E-2,-2.415704057E-3,-2.102424860E-2,3.925824591E-2
2.953811250E-1,-4.142947806E-2,-6.460734755E-3,-3.269646049E-2,5.317143288E-2
3.053791250E-1,-4.804721969E-2,-1.627711348E-2,-2.775205493E-2,5.782435729E-2
3.153781250E-1,-6.111520763E-2,-1.461405572E-2,-3.717425823E-2,7.301071636E-2
3.253761250E-1,-6.881215341E-2,-2.957154399E-2,-2.025183141E-2,7.758688901E-2
3.353741250E-1,-6.282515276E-2,-3.357431028E-2,-2.219076812E-2,7.461008189E-2
3.453731250E-1,-5.283984432E-2,-3.625125697E-2,-2.907469511E-2,7.036718465E-2
3.553711250E-1,-3.673756259E-2,-2.157395996E-2,-2.473138332E-2,4.926180645E-2
3.653691250E-1,-3.057587637E-2,-2.286383746E-2,-2.068335593E-2,4.342165924E-2
3.753681250E-1,-9.836725211E-3,-4.994125161E-3,-1.334451556E-2,1.731411403E-2
3.853661250E-1,-6.292006038E-3,1.536154915E-3,-1.378831923E-2,1.523374081E-2
3.953651250E-1,-1.605074401E-2,8.148570098E-3,-9.591187835E-3,2.039648161E-2
4.053631250E-1,-2.764105833E-2,2.480284726E-2,-2.815200448E-2,4.660198166E-2
4.153615417E-1,-2.464143670E-2,3.552623877E-2,-3.219067633E-2,5.390318809E-2
4.253605417E-1,-4.604312307E-2,2.891267242E-2,-2.395955086E-2,5.941356651E-2
4.353585417E-1,-4.843351051E-2,4.072996834E-2,-2.531025767E-2,6.815676346E-2
4.453565417E-1,-4.775158812E-2,5.318102935E-2,-2.037111461E-2,7.431970373E-2
4.553555417E-1,-5.988519100E-2,3.741816022E-2,-2.740706921E-2,7.574630194E-2
4.653535417E-1,-4.988417731E-2,3.287110951E-2,-3.623928845E-2,6.987293477E-2
4.753515417E-1,-3.629703884E-2,3.080727993E-2,-3.908278942E-2,6.159568129E-2
4.853505417E-1,-4.355188943E-2,1.085603194E-2,-3.114753306E-2,5.463322541E-2
4.953485417E-1,-3.708253917E-2,4.043148626E-3,-2.156394660E-2,4.308672134E-2
5.053465417E-1,-3.069363381E-2,-2.003170202E-2,-2.649841189E-2,4.522758091E-2
5.153455417E-1,-3.123707769E-2,-2.437400881E-2,-1.407073975E-2,4.204560673E-2
5.253435417E-1,-3.348661118E-2,-3.377183653E-2,4.590064287E-4,4.756154705E-2
5.353415417E-1,-2.307296678E-2,-3.273101388E-2,-2.468051255E-2,4.704050133E-2
5.453405417E-1,-2.885403581E-2,-3.585662473E-2,-3.365423441E-2,5.701631708E-2
5.553385417E-1,-2.039057488E-2,-3.228784975E-2,-1.987702489E-2,4.305086414E-2
5.653365417E-1,-1.981326283E-2,-1.598583078E-2,-3.154631317E-2,4.053741536E-2
5.753355417E-1,-2.860711886E-2,-1.840705315E-2,-2.420571864E-2,4.175049304E-2
5.853335417E-1,-3.301626664E-2,-1.712795645E-3,-2.450100303E-2,4.114980779E-2
5.953325417E-1,-3.902534966E-2,1.530168828E-2,-1.911279380E-2,4.606971313E-2
6.053305417E-1,-5.340398186E-2,1.251797508E-2,-2.734508872E-2,6.128979406E-2
6.153285417E-1,-5.429584670E-2,3.043539701E-2,-4.665727258E-2,7.778980296E-2
6.253275417E-1,-5.078251977E-2,2.815922214E-2,-4.501011193E-2,7.346915190E-2
6.353255417E-1,-6.185705485E-2,2.798493857E-2,-2.884723842E-2,7.376730431E-2
6.453235417E-1,-3.840004477E-2,3.496154392E-2,-4.411899626E-2,6.814219561E-2
6.553225417E-1,-2.629864725E-2,3.175482122E-2,-4.097553313E-2,5.812901026E-2
6.653205417E-1,-2.291818916E-2,1.333159687E-2,-2.675393522E-2,3.766627031E-2
6.753185417E-1,-8.147555972E-3,2.019237254E-2,-5.945448875E-3,2.257128573E-2
6.853175417E-1,-1.061371054E-2,8.562589511E-3,-8.335790634E-3,1.598293452E-2
6.953155417E-1,-6.569328513E-3,1.043711549E-2,-1.716567099E-2,2.113645470E-2
7.053135417E-1,-1.031352910E-2,-1.143541792E-2,-1.626344562E-2,2.239726164E-2
7.153125417E-1,-1.932624458E-2,-2.341029631E-2,-2.448872387E-2,3.900311911E-2
7.253105417E-1,-3.730479732E-2,-1.486544944E-2,-3.630828559E-2,5.413798198E-2
7.353085417E-1,-4.032995484E-2,-1.509933807E-3,-3.001785100E-2,5.029767923E-2
7.453075417E-1,-5.646657069E-2,-1.069044610E-2,-3.525754094E-2,6.742294444E-2
7.553055417E-1,-6.176154424E-2,-1.202390363E-2,-2.897119939E-2,6.927043380E-2
7.653045417E-1,-5.914014610E-2,-1.530154210E-2,-3.301221013E-2,6.943702246E-2
7.753025417E-1,-4.521043388E-2,-1.159886587E-2,-3.705322087E-2,5.959411211E-2
7.853005417E-1,-2.739023105E-2,-3.714644741E-3,-1.355384588E-2,3.078522504E-2
7.952995417E-1,-3.187510941E-2,-8.905382529E-3,-2.627153993E-3,3.319985506E-2
8.052975417E-1,-2.064752346E-2,-3.625310250E-3,-6.814929843E-3,2.204328397E-2
8.152955417E-1,-1.544522828E-2,-3.032987304E-3,-1.848304868E-2,2.427709161E-2
8.252945417E-1,-1.426641134E-2,1.322146822E-3,-4.167895317E-2,4.407282271E-2
8.352925417E-1,-1.067506975E-2,2.291326471E-2,-3.089844167E-2,3.992102844E-2
8.452905417E-1,-1.334754881E-2,3.170433417E-3,-2.595812917E-2,2.936040151E-2
8.552895417E-1,-2.546011998E-2,7.136343978E-3,-3.329053760E-2,4.251358616E-2
8.652875417E-1,-3.043777244E-2,1.060889572E-2,-3.688248217E-2,4.898289651E-2
8.752855417E-1,-3.382221395E-2,1.670006817E-2,-2.655337572E-2,4.612934203E-2
8.852845417E-1,-3.075618988E-2,2.834386624E-2,-1.398420095E-2,4.410074655E-2
8.952825417E-1,-4.654417464E-2,1.680928320E-2,-2.071726978E-2,5.364808907E-2
9.052805417E-1,-4.251277526E-2,2.023277314E-2,-4.032239914E-2,6.198868479E-2
9.152795417E-1,-3.598507161E-2,2.503901996E-2,-2.864492476E-2,5.236802091E-2
9.252775417E-1,-3.729000569E-2,1.484323002E-2,-2.610372484E-2,4.787766131E-2
9.352765417E-1,-3.197360759E-2,2.870144175E-2,-3.822968066E-2,5.751167555E-2
9.452745417E-1,-2.928233522E-2,-3.372399900E-3,-2.939804614E-2,4.163019762E-2
9.552725417E-1,-2.156168994E-2,-2.244353229E-2,-6.193955541E-3,3.173300648E-2
9.652715417E-1,-1.802416102E-2,-2.443231652E-2,-3.514176607E-4,3.036333258E-2
9.752695417E-1,-1.202477158E-2,-3.219040224E-2,-3.387584388E-2,4.825339291E-2
9.852675417E-1,-9.706898751E-3,-1.234557359E-2,-3.911085606E-2,4.214612832E-2
9.952665417E-1,-1.639895484E-2,-2.281601820E-2,-1.605119169E-2,3.235949877E-2
1.005264542E0,-3.675099291E-2,-2.126319872E-2,-1.529865503E-2,4.513100869E-2
1.015262542E0,-3.913063609E-2,-9.104187861E-3,-2.217907369E-2,4.589122168E-2
1.025261542E0,-3.315963306E-2,-9.117088281E-3,-2.232408464E-2,4.100057705E-2
1.035259542E0,-4.319329066E-2,-6.170749404E-3,-3.459622085E-2,5.568336380E-2
1.045257542E0,-4.003364719E-2,1.323645171E-3,-3.923657119E-2,5.607096809E-2
1.055256542E0,-3.032070022E-2,1.678339100E-2,-3.160303116E-2,4.690179798E-2
1.065254542E0,-2.980460121E-2,1.680785794E-2,-6.754703522E-3,3.487756244E-2
1.075252542E0,-2.637828816E-2,2.334884573E-2,-1.438590467E-2,3.805176653E-2
1.085251542E0,-2.047823743E-2,2.401349142E-2,-3.294613659E-2,4.562295360E-2
1.095249542E0,-1.337313951E-2,2.661716519E-2,-3.713625133E-2,4.760688507E-2
1.105247542E0,-2.254874563E-2,2.544819715E-2,-2.261527598E-2,4.083512428E-2
1.115246542E0,-3.157315554E-2,1.900964526E-2,-1.049048960E-2,3.831815674E-2
1.125244542E0,-2.188465725E-2,8.486703616E-3,-1.887188852E-2,3.011827580E-2
1.135242542E0,-2.968004638E-2,3.464164641E-3,-4.102698863E-2,5.075548626E-2
1.145241542E0,-3.681548587E-2,-5.178824086E-3,-3.383959115E-2,5.027243925E-2
1.155239542E0,-2.734697079E-2,-8.983771764E-3,-2.141367316E-2,3.587632039E-2
1.165238542E0,-3.450219945E-2,-4.104032759E-3,-1.647219121E-2,3.845228127E-2
1.175236542E0,-2.652933818E-2,-1.116297422E-2,-2.201008916E-2,3.623343487E-2
1.185234542E0,-2.843619743E-2,-1.349780397E-2,-2.844144166E-2,4.242314981E-2
1.195233542E0,-2.587576565E-2,-1.702343747E-2,-3.143170774E-2,4.412827804E-2
1.205231542E0,-1.900345087E-2,-1.461253909E-2,-2.020329952E-2,3.135013166E-2
1.215229542E0,-2.901632345E-2,-2.043287583E-2,-2.259656489E-2,4.207201191E-2
1.225228542E0,-3.324874828E-2,-1.408230627E-2,-1.346262932E-2,3.853612591E-2
1.235226542E0,-3.790282130E-2,-1.367777031E-2,-1.001920402E-2,4.152215929E-2
1.245224542E0,-3.528569894E-2,-4.548165333E-3,-2.798126578E-2,4.526276165E-2
1.255223542E0,-3.486996191E-2,1.586435487E-2,-4.130297720E-2,5.633407428E-2
1.265221542E0,-2.089632249E-2,4.481525347E-3,-2.393850088E-2,3.209037531E-2
1.275219542E0,-2.262240227E-2,1.578167159E-2,-3.067390859E-2,4.125194433E-2
1.285218542E0,-2.096656216E-2,1.479979618E-2,-2.244512200E-2,3.409419595E-2
1.295216542E0,-5.438449597E-3,7.471681796E-3,-7.028353214E-3,1.161036226E-2
1.305214542E0,-2.217853465E-2,6.322685648E-3,-1.316442132E-2,2.655495701E-2
1.315213542E0,-3.399741115E-2,6.791339982E-3,-2.663523674E-2,4.371935612E-2
1.325211542E0,-2.269608633E-2,9.826647900E-3,-3.830861807E-2,4.559852587E-2
1.335210542E0,-2.787712139E-2,1.345252460E-2,-4.698764026E-2,5.626670998E-2
1.345208542E0,-3.474053744E-2,1.447673751E-2,-2.782689929E-2,4.680616621E-2
1.355206542E0,-4.145029049E-2,-1.900089271E-3,-2.273572862E-2,4.731437707E-2
1.365205542E0,-3.841924922E-2,6.051320024E-3,-2.243167341E-2,4.489807520E-2
1.375203542E0,-2.928801798E-2,7.197831105E-3,-1.749077618E-2,3.486436607E-2
1.385201542E0,-2.492579411E-2,1.486325674E-3,-2.632474959E-2,3.628356125E-2
1.395200542E0,-1.864931974E-2,-6.950767972E-3,-3.440794051E-2,3.974942354E-2
1.405198542E0,-5.868457491E-3,-4.858341850E-3,-1.749428451E-2,1.908120199E-2
1.415196125E0,-1.156129751E-2,-9.206806496E-4,-2.198611557E-2,2.485760510E-2
1.425195125E0,-1.536715882E-2,-1.320575383E-3,-2.902090073E-2,3.286496871E-2
1.435193125E0,-1.929639637E-2,8.379297573E-3,-3.141708970E-2,3.781001278E-2
1.445191125E0,-2.226013985E-2,-4.902232513E-3,-3.605334699E-2,4.265430270E-2
1.455190125E0,-2.918494253E-2,-2.413091082E-2,-3.111069560E-2,4.900956140E-2
1.465188125E0,-3.802137360E-2,-1.822610009E-2,-1.748551369E-2,4.564601586E-2
1.475186125E0,-4.588644510E-2,-6.686090101E-3,-1.419177711E-2,4.849408399E-2
1.485185125E0,-3.795348194E-2,-1.572425924E-2,-7.003794909E-3,4.167459974E-2
1.495183125E0,-3.100620403E-2,-1.561842464E-2,-1.583367527E-2,3.815789760E-2
1.505181125E0,-2.143565504E-2,1.550608501E-4,-3.125219822E-2,3.789737780E-2
1.515180125E0,-2.342111366E-2,-4.697671328E-3,-3.738826632E-2,4.436777141E-2
1.525178125E0,-2.262201855E-2,7.972587179E-3,-3.469503880E-2,4.217894720E-2
1.535177125E0,-1.972064842E-2,1.321251467E-2,-4.517383397E-2,5.103087098E-2
1.545175125E0,-2.887433661E-2,1.522428576E-2,-2.242056370E-2,3.960035187E-2
1.555173125E0,-3.222730366E-2,8.914865982E-3,-1.239024997E-2,3.565939190E-2
1.565172125E0,-2.582584505E-2,2.995183228E-2,-4.367694676E-2,5.892166161E-2
1.575170125E0,-2.024530811E-2,2.089095036E-2,-4.023527563E-2,4.965059629E-2
1.585168125E0,-2.297230331E-2,2.288130602E-2,-3.095340550E-2,4.482626682E-2
1.595167125E0,-1.671450349E-2,3.194037896E-2,-1.867893040E-2,4.060129155E-2
1.605165125E0,-1.312680728E-2,1.936398653E-2,-2.661067843E-2,3.543169839E-2
1.615163125E0,-7.468959186E-3,1.503081601E-2,-3.544114351E-2,3.921460742E-2
1.625162125E0,-1.905478760E-2,-7.123187743E-3,-2.017172456E-2,2.864826706E-2
1.635160125E0,-3.675831106E-2,-1.302533068E-2,-2.301288664E-2,4.528162567E-2
1.645158125E0,-4.200041299E-2,-1.297424063E-2,-2.256206632E-2,4.941065115E-2
1.655157125E0,-4.228556525E-2,-1.076304294E-2,-2.809996426E-2,5.189913403E-2
1.665155125E0,-3.359744333E-2,-1.195342641E-2,-2.839934170E-2,4.558722639E-2
1.675153125E0,-2.058534198E-2,-8.400913998E-3,-3.692809045E-2,4.310470421E-2
1.685152125E0,-2.053523865E-2,-7.044962961E-3,-3.198660851E-2,3.865838399E-2
1.695150125E0,-2.082479459E-2,-1.690799151E-2,-2.046291590E-2,3.373845245E-2
1.705148125E0,-1.310331792E-2,-1.916211141E-2,-3.848052621E-3,2.353063882E-2
1.715147125E0,-1.972750976E-2,-9.276260454E-3,-3.063824058E-2,3.760219987E-2
1.725145125E0,-1.668292852E-2,-4.668088071E-3,-3.916757405E-2,4.282767805E-2
1.735143125E0,-2.508535914E-2,-4.888290558E-3,-2.748659134E-2,3.753243039E-2
1.745142125E0,-3.958349381E-2,-6.219610199E-4,-1.071794629E-2,4.101358543E-2
1.755140125E0,-3.445235194E-2,1.452199861E-2,-1.879938304E-2,4.184817559E-2
1.765139125E0,-3.394793822E-2,1.368126037E-2,-4.020487010E-2,5.436976159E-2
1.775137125E0,-2.385940815E-2,1.410494596E-2,-2.987810254E-2,4.075440920E-2
1.785135125E0,-2.190296634E-2,9.582380466E-3,-2.015067458E-2,3.126678167E-2
1.795134125E0,-2.459351694E-2,6.899349019E-3,-1.985129714E-2,3.234990094E-2
1.805132125E0,-2.375095144E-2,5.006440859E-3,-2.434371293E-2,3.437715089E-2
1.815130125E0,-1.717217602E-2,9.479761831E-3,-2.359994709E-2,3.068724518E-2
1.825129125E0,-1.511143450E-2,3.543960862E-3,-2.749126911E-2,3.157031816E-2
1.835127125E0,-2.440592182E-2,2.163268793E-3,-2.119908035E-2,3.239953332E-2
1.845125125E0,-2.348887741E-2,-1.321763098E-3,-2.673756301E-2,3.561420637E-2
1.855124125E0,-3.257422627E-2,9.581284113E-3,-2.583943069E-2,4.266799035E-2
1.865122125E0,-3.434422413E-2,8.457467537E-3,-2.554122269E-2,4.362807061E-2
1.875120125E0,-3.050189082E-2,-4.992663357E-3,-3.721752763E-2,4.837805694E-2
1.885119125E0,-2.118005862E-2,-6.725887712E-3,-2.778538406E-2,3.557892657E-2
1.895117125E0,-2.191413087E-2,-1.137106201E-2,-8.472030759E-3,2.610182921E-2
1.905115125E0,-1.001367657E-2,-2.730064988E-3,-8.921681643E-3,1.368661305E-2
1.915114125E0,-1.441044470E-2,8.603538293E-3,-1.910109937E-2,2.542702863E-2
1.925112125E0,-1.842463134E-2,-1.029994346E-2,-3.242047191E-2,3.868646887E-2
1.935110125E0,-1.760242146E-2,-1.242228175E-2,-3.271166325E-2,3.916900863E-2
1.945109125E0,-3.013157020E-2,-1.328852847E-3,-3.136095643E-2,4.351076833E-2
1.955107125E0,-3.619647587E-2,-2.287284583E-3,-2.193056703E-2,4.238356174E-2
1.965105125E0,-4.493518534E-2,1.017717021E-2,-1.789072573E-2,4.942493037E-2
1.975104125E0,-3.366623034E-2,-1.567558117E-2,-1.759310246E-2,4.109326179E-2
1.985102125E0,-2.328713933E-2,-1.379961167E-2,-1.669321597E-2,3.180225777E-2
1.995101125E0,-9.879245432E-3,-5.673626438E-4,-2.851570129E-2,3.018387999E-2
2.005099125E0,1.930924198E-3,1.227167940E-2,-2.686678648E-2,2.959977701E-2
2.015097125E0,1.226732139E-2,1.843524769E-2,-2.371923029E-2,3.244915126E-2
2.025096125E0,1.092070763E-2,1.044919364E-2,-1.264109552E-2,1.970392851E-2
2.035094125E0,-1.467024380E-2,7.042112444E-3,-2.506292045E-2,2.988239252E-2
2.045092125E0,-2.061413951E-2,2.221574670E-2,-4.003237724E-2,5.021029154E-2
2.055091125E0,-2.429341774E-2,2.155000465E-2,-3.359634697E-2,4.672566078E-2
2.065089125E0,-5.133353761E-2,2.260306992E-2,-3.330223203E-2,6.523089384E-2
2.075087125E0,-3.841025912E-2,1.480745237E-2,-3.659713805E-2,5.508138674E-2
2.085086125E0,-3.823257686E-2,1.422563614E-2,-2.567220032E-2,4.819917558E-2
2.095084125E0,-3.232183669E-2,1.442170059E-2,-2.387768984E-2,4.269462082E-2
2.105082125E0,-2.286225689E-2,2.173839463E-2,-1.819361150E-2,3.641768925E-2
2.115081125E0,-1.268472123E-2,-9.454929437E-3,-2.956878483E-2,3.353521850E-2
2.125079125E0,-1.550232086E-2,-1.738203624E-2,-4.887570620E-2,5.414140553E-2
2.135077125E0,-5.312113194E-3,-2.317211363E-2,-3.495114684E-2,4.226994278E-2
2.145076125E0,-2.102827770E-2,-2.567561729E-2,-6.808497906E-3,3.387892309E-2
2.155074125E0,-2.649239109E-2,-2.364983115E-2,-8.600669503E-3,3.653946928E-2
2.165072125E0,-1.227878742E-2,-1.790055636E-2,-2.715856254E-2,3.476760069E-2
2.175071125E0,-2.546097879E-2,-2.975646218E-2,-3.493886769E-2,5.248269199E-2
2.185069125E0,-3.213176563E-2,-7.591677625E-3,-1.996648729E-2,3.858425257E-2
2.195067125E0,-9.578725956E-3,6.932678148E-3,-1.427714646E-2,1.853782426E-2
2.205066125E0,-6.520312401E-3,9.209346380E-3,-1.936363935E-2,2.241153863E-2
2.215064125E0,-1.317242470E-2,1.401983242E-2,-3.552651286E-2,4.040051472E-2
2.225063125E0,-1.648713816E-2,1.588684838E-2,-3.792094767E-2,4.429690676E-2
2.235061125E0,-3.426742461E-2,3.410510955E-2,-9.631533623E-3,4.929686934E-2
2.245059125E0,-4.627996271E-2,3.023386907E-2,-2.010857463E-2,5.882411547E-2
2.255058125E0,-5.559436711E-2,3.002404539E-2,-3.343145549E-2,7.148313908E-2
2.265056125E0,-5.926971674E-2,-5.368621051E-3,-2.879168987E-2,6.611113991E-2
2.275054125E0,-4.546387414E-2,7.355267387E-3,-3.732277751E-2,5.927945285E-2
2.285053125E0,-2.538470917E-2,8.921334464E-3,-4.450842083E-2,5.200935678E-2
2.295051125E0,-1.364553753E-2,-8.200190049E-3,-1.786382854E-2,2.392822980E-2
2.305049125E0,1.405823219E-2,-1.149613760E-2,2.455830574E-4,1.816192124E-2
2.315048125E0,2.294221756E-2,-1.655770674E-2,-1.850059032E-3,2.835358386E-2
2.325046125E0,1.781583569E-2,-5.366300438E-3,-1.906309247E-2,2.663836850E-2
2.335044125E0,1.128110625E-3,1.319005771E-2,-1.951098919E-2,2.357814571E-2
2.345043125E0,-2.233420763E-2,1.464281671E-2,-2.220655560E-2,3.473269387E-2
2.355041125E0,-4.152839650E-2,5.977553744E-3,-3.358172894E-2,5.374077952E-2
2.365039125E0,-5.705470009E-2,1.200194003E-2,-3.133698285E-2,6.619132768E-2
2.375038125E0,-5.650553690E-2,1.103738699E-2,-4.076912642E-2,7.054658944E-2
2.385036125E0,-6.066105257E-2,-3.084406257E-5,-2.909516037E-2,6.727772742E-2
2.395034125E0,-3.910827049E-2,4.144104458E-3,-2.415543258E-2,4.615317265E-2
2.405033125E0,-2.219377396E-2,-1.704816023E-2,-3.448220015E-2,4.440974551E-2
2.415031500E0,1.901953071E-3,-9.935406111E-3,-1.711713910E-2,1.988281095E-2
2.425029500E0,1.022720958E-2,2.675119434E-3,-2.085584879E-2,2.338201250E-2
2.435028500E0,7.159869885E-3,-3.708011806E-3,-1.800883949E-2,1.973148215E-2
2.445026500E0,4.822016023E-3,-7.055140771E-3,-2.728603184E-2,2.859290792E-2
2.455025500E0,-1.461321518E-2,-1.749706194E-2,-1.590501130E-2,2.779680950E-2
2.465023500E0,-3.844878679E-2,1.842603832E-4,-2.548391998E-2,4.612779352E-2
2.475021500E0,-5.090548488E-2,1.127723247E-2,-3.132061064E-2,6.082372082E-2
2.485020500E0,-4.471542140E-2,8.948359564E-3,-3.835656524E-2,5.958832223E-2
2.495018500E0,-4.076570945E-2,1.723028272E-2,-2.908288121E-2,5.295790488E-2
2.505016500E0,-2.673529722E-2,2.256159123E-2,-1.905782998E-2,3.983719869E-2
2.515015500E0,-1.218121201E-2,2.187328259E-2,-2.430278242E-2,3.489194248E-2
2.525013500E0,5.055009294E-4,2.064699356E-2,-2.505648851E-2,3.247124098E-2
2.535011500E0,5.422196165E-3,2.218777142E-2,-2.565465868E-2,3.434907457E-2
2.545010500E0,-7.859416148E-3,7.201028802E-3,-2.564998090E-2,2.777673052E-2
2.555008500E0,-1.929717296E-2,3.717111535E-3,-2.384962320E-2,3.090311197E-2
2.565006500E0,-2.878581525E-2,-5.638689324E-3,-2.908405066E-2,4.130738408E-2
2.575005500E0,-3.851666931E-2,-1.172713917E-2,-2.459455848E-2,4.717999486E-2
2.585003500E0,-4.780904615E-2,-1.193424024E-2,-1.785739660E-2,5.241199860E-2
2.595001500E0,-4.127342136E-2,-2.478090193E-2,-1.785798132E-2,5.134681984E-2
2.605000500E0,-2.367609794E-2,-1.708128836E-2,-2.594000280E-2,3.905395974E-2
2.614998500E0,-1.886279793E-2,-1.633845443E-2,-1.875669837E-2,3.121800718E-2
2.624996500E0,3.582132217E-3,-7.189517096E-4,-4.704435825E-2,4.718601706E-2
2.634995500E0,5.486616036E-3,2.546827868E-3,-4.434469879E-2,4.475535273E-2
2.644993500E0,-1.169006417E-2,-1.476111319E-3,-2.592830837E-2,2.848005758E-2
2.654991500E0,-1.308063255E-2,2.004997456E-2,-2.158616602E-2,3.223456206E-2
2.664990500E0,-3.845926610E-2,1.302944200E-2,-1.230605006E-2,4.243018237E-2
2.674988500E0,-4.673489437E-2,2.485342568E-2,-2.847360134E-2,6.010481755E-2
2.684987500E0,-4.218313848E-2,5.448837541E-3,-1.799539089E-2,4.618377524E-2
2.694985500E0,-4.187826100E-2,6.228161752E-3,-2.502959132E-2,4.918393218E-2
2.704983500E0,-3.107440632E-2,6.735590436E-3,-3.670823514E-2,4.856419910E-2
2.714982500E0,-6.616279827E-3,6.293047573E-3,-3.102123320E-2,3.233720019E-2
2.724980500E0,-1.177021670E-2,-9.065961689E-3,-1.710193634E-2,2.265404796E-2
2.734978500E0,-4.765974116E-3,-1.015984783E-2,-1.814917266E-2,2.133845087E-2
2.744977500E0,-6.818675715E-4,-1.449698349E-2,-2.113768458E-2,2.564038189E-2
2.754975500E0,-7.786901537E-3,-1.191145437E-2,-2.607273459E-2,2.970363732E-2
2.764973500E0,-2.123822928E-2,1.984526720E-3,-1.723525286E-2,2.742361520E-2
2.774972500E0,-2.673928063E-2,-6.136470102E-4,-2.636275649E-2,3.755476829E-2
2.784970500E0,-4.026395439E-2,5.806668866E-3,-2.606162488E-2,4.831264553E-2
2.794968500E0,-4.208899830E-2,6.858820505E-3,-2.351750135E-2,4.869907665E-2
2.804967500E0,-3.117093106E-2,1.306096215E-2,-2.965824723E-2,4.496473401E-2
2.814965500E0,-2.404396090E-2,2.258445019E-2,-3.864190936E-2,5.080715112E-2
2.824963500E0,-1.035711827E-2,9.286657535E-3,-2.712055564E-2,3.048009917E-2
2.834962500E0,-7.721842127E-3,1.289036963E-3,-2.038690209E-2,2.183836622E-2
2.844960500E0,-2.315378627E-3,-1.518200308E-2,-2.457760155E-2,2.898124728E-2
2.854958500E0,1.043362543E-3,-1.273529051E-2,-2.128211081E-2,2.482346612E-2
2.864957500E0,-9.618121572E-3,-1.119239302E-2,-1.544074237E-2,2.135870898E-2
2.874955500E0,-2.058965430E-2,-7.905271109E-3,-1.558867693E-2,2.700803628E-2
2.884953500E0,-2.307584471E-2,-1.722697539E-2,-1.678443253E-2,3.333137359E-2
2.894952500E0,-3.209019559E-2,-8.271087538E-3,-3.025173962E-2,4.487047238E-2
2.904950500E0,-2.902013328E-2,-2.304278053E-3,-4.761153817E-2,5.580623979E-2
2.914949500E0,-2.759703976E-2,1.351256819E-2,-3.174219489E-2,4.417864913E-2
2.924947500E0,-3.163439599E-2,1.235414341E-2,-1.617339849E-2,3.761567078E-2
2.934945500E0,-2.165663411E-2,1.947859196E-2,-1.677449226E-2,3.361263061E-2
2.944944500E0,-2.188007997E-2,4.799387299E-2,-2.650484383E-2,5.903097907E-2
2.954942500E0,-1.841491948E-2,2.562754221E-2,-2.022142589E-2,3.748047818E-2
2.964940500E0,-6.527831554E-3,3.691177307E-2,-3.220120132E-2,4.941668688E-2
2.974939500E0,-1.314097764E-2,2.469072690E-2,-4.088256240E-2,4.953484830E-2
2.984937500E0,-2.400382524E-2,1.932115568E-2,-2.905656874E-2,4.235297947E-2
2.994935500E0,-2.477259706E-2,8.996763546E-3,-2.291991591E-2,3.492772344E-2
3.004934500E0,-2.927749299E-2,-8.161799423E-3,-5.405750871E-3,3.087083913E-2
3.014932500E0,-2.619725288E-2,-1.427330922E-2,-9.297072887E-3,3.124834362E-2
3.024930500E0,-3.728107042E-2,-2.702106161E-2,-3.339929581E-2,5.688171009E-2
3.034929500E0,-2.925955849E-2,-2.525542175E-2,-3.848871231E-2,5.454666870E-2
3.044927500E0,-2.835734225E-2,-4.496689735E-2,-2.471442640E-2,5.862562229E-2
3.054925500E0,-3.439636485E-2,-2.763268037E-2,-1.573076427E-2,4.684156150E-2
3.064924500E0,-5.059275934E-3,-2.256773081E-2,-1.452799201E-2,2.731229208E-2
3.074922500E0,-1.053764191E-2,-1.803484133E-2,-2.455421269E-2,3.223672998E-2
3.084920500E0,2.148029488E-4,-8.651668187E-3,-2.365549564E-2,2.518888598E-2
3.094919500E0,3.493839260E-3,-2.548625886E-2,-4.640935063E-3,2.613990402E-2
3.104917500E0,-1.047419049E-2,-2.212513313E-3,-4.335710406E-3,1.154998988E-2
3.114915500E0,-1.116780731E-2,1.404848378E-3,-1.316442132E-2,1.732037839E-2
3.124914500E0,-2.393273589E-2,1.934238838E-2,-3.277364373E-2,4.495570663E-2
3.134912500E0,-3.386202984E-2,4.366357125E-2,-3.845889151E-2,6.732184531E-2
3.144911500E0,-3.188468423E-2,2.801357165E-2,-2.019452870E-2,4.700225818E-2
3.154909500E0,-3.828420594E-2,3.374521343E-2,-2.513484120E-2,5.688743356E-2
3.164907500E0,-2.340844165E-2,5.020799428E-2,-4.923706412E-2,7.411535815E-2
3.174906500E0,-7.822231511E-3,7.023337400E-2,-4.176022947E-2,8.208429140E-2
3.184904500E0,-1.660107664E-2,5.533256717E-2,-2.918988526E-2,6.472509665E-2
3.194902500E0,-9.665913424E-3,1.713559438E-2,-2.140782595E-2,2.907496326E-2
3.204901500E0,-6.881990097E-3,1.401594037E-2,-1.931101441E-2,2.483392136E-2
3.214899500E0,-1.289205984E-2,3.650014736E-3,-3.143346190E-2,3.417002110E-2
3.224897500E0,-2.193631374E-2,-1.998285949E-4,-2.874198854E-2,3.615720810E-2
3.234896500E0,-2.991085608E-2,-3.193076760E-2,-2.979039431E-2,5.293109506E-2
3.244894500E0,-3.673397203E-2,-5.431255694E-2,-2.484715819E-2,7.011861246E-2
3.254892500E0,-4.507494293E-2,-7.072998533E-2,-9.575400352E-3,8.441664289E-2
3.264891500E0,-2.782760278E-2,-6.580224434E-2,3.900092840E-3,7.155083201E-2
3.274889500E0,-2.151024358E-2,-4.635100638E-2,-7.472741604E-3,5.164250419E-2
3.284887500E0,-7.992193624E-3,-3.945792485E-2,-1.360880971E-2,4.249709042E-2
3.294886500E0,2.546261419E-3,-5.516650625E-2,-1.121028185E-2,5.635155080E-2
3.304884500E0,5.833054427E-4,-1.082675932E-2,-1.763988018E-2,2.070565950E-2
3.314882500E0,4.835729571E-3,2.840732681E-2,-3.155742288E-2,4.273442916E-2
3.324881500E0,-1.746571538E-2,3.701790003E-2,-3.679828227E-2,5.504080045E-2
3.334879500E0,-2.971095440E-2,5.818809148E-2,-3.679886699E-2,7.498500792E-2
3.344877500E0,-5.199816504E-2,4.494096860E-2,-2.617447615E-2,7.354320518E-2
3.354876500E0,-6.702207402E-2,5.866898842E-2,-1.824389756E-2,9.092221075E-2
3.364874500E0,-5.000420054E-2,5.235982446E-2,-3.022367299E-2,7.845662304E-2
3.374872500E0,-3.335754303E-2,2.426439179E-2,-3.996104121E-2,5.743144784E-2
3.384871500E0,-6.353876889E-3,6.620290652E-3,-3.607556641E-2,3.722427288E-2
3.394869500E0,1.813143915E-2,-1.306432430E-3,-1.841639042E-2,2.587700306E-2
3.404867500E0,2.031360176E-2,-9.658741448E-3,-7.940518856E-3,2.385341784E-2
3.414866500E0,2.807524150E-2,-2.213185742E-2,-6.892697811E-3,3.640807028E-2
3.424864292E0,7.500726013E-3,-3.419113671E-2,-2.260825932E-2,4.167047048E-2
3.434863292E0,-6.467833640E-3,-2.473383185E-2,-1.601610839E-2,3.016804664E-2
3.444861292E0,-3.785984427E-2,-5.469375886E-3,-3.427462399E-2,5.136177304E-2
3.454859292E0,-7.137512508E-2,1.421889357E-2,-3.592061520E-2,8.115957128E-2
3.464858292E0,-7.214983547E-2,2.327889841E-2,-1.915898681E-2,7.819573291E-2
3.474856292E0,-5.762735263E-2,1.692882221E-2,-1.482210696E-2,6.186430027E-2
3.484854292E0,-3.750322807E-2,1.828051575E-2,-3.533238530E-2,5.467217594E-2
3.494853292E0,-1.030632058E-2,1.997041589E-2,-4.611348152E-2,5.129805974E-2
3.504851292E0,1.073660256E-2,1.687422384E-2,-3.354430676E-2,3.905425176E-2
3.514849292E0,1.339338549E-2,-1.468922898E-2,-1.512089968E-3,1.993596346E-2
3.524848292E0,1.369905783E-2,-3.879453996E-2,3.732277751E-3,4.131114152E-2
3.534846292E0,4.431833150E-3,-3.232647792E-2,-2.395370364E-2,4.047742874E-2
3.544844292E0,-1.438407741E-2,-3.529810600E-2,-4.490486205E-2,5.890080310E-2
3.554843292E0,-3.134714238E-2,-4.132799232E-2,-1.615994990E-2,5.433038069E-2
3.564841292E0,-4.970946433E-2,-2.957443105E-2,-1.331060171E-2,5.935360085E-2
3.574839292E0,-5.556755215E-2,-2.024932807E-2,-2.633001208E-2,6.473837869E-2
3.584838292E0,-4.393791530E-2,5.308650546E-3,-3.590775132E-2,5.699200625E-2
3.594836292E0,-2.334646116E-2,1.683709402E-2,-3.366358995E-2,4.429201138E-2
3.604834292E0,-8.455503238E-3,3.943576025E-2,-1.121320546E-2,4.186180476E-2
3.614833292E0,-7.580686687E-3,5.686377022E-2,-2.873029411E-2,6.415905995E-2
3.624831292E0,1.916233068E-3,7.555335352E-2,-3.367645383E-2,8.274107033E-2
3.634829292E0,-2.095605545E-3,6.012235042E-2,-4.236366212E-2,7.357831509E-2
3.644828292E0,-6.772044171E-3,5.681918520E-2,-4.176607668E-2,7.084268171E-2
3.654826292E0,-2.775704334E-2,3.555266088E-2,-3.652872562E-2,5.804130379E-2
3.664824292E0,-3.684190798E-2,1.372942680E-2,-2.500269413E-2,4.659354094E-2
3.674823292E0,-4.837682907E-2,9.016333446E-3,-1.362752080E-2,5.106193477E-2
3.684821292E0,-3.385996504E-2,-1.454078279E-2,-1.437830329E-2,3.955587443E-2
3.694820292E0,-2.351145314E-2,-4.966179125E-2,-2.874608159E-2,6.201144367E-2
3.704818292E0,-9.525635066E-3,-5.987769926E-2,-1.227798343E-2,6.186134067E-2
3.714816292E0,-4.488176554E-3,-6.071721325E-2,-4.493000507E-3,6.104842968E-2
3.724815292E0,-1.738870572E-3,-4.245504314E-2,-2.006179690E-2,4.698861622E-2
3.734813292E0,7.199356863E-3,-3.520866187E-2,-3.502774537E-2,5.018389737E-2
3.744811292E0,-1.249652311E-2,-3.633023093E-2,-2.813680172E-2,4.762067177E-2
3.754810292E0,-3.833985499E-2,-1.455209350E-2,-1.465487659E-2,4.354851678E-2
3.764808292E0,-4.970096759E-2,8.074018098E-3,-2.228666246E-2,5.506424676E-2
3.774806292E0,-5.046476014E-2,2.931192761E-2,-2.572891831E-2,6.377976446E-2
3.784805292E0,-4.657646223E-2,3.213156464E-2,-3.171822131E-2,6.486794156E-2
3.794803292E0,-4.351469566E-2,2.531303510E-2,-2.662822008E-2,5.695033441E-2
3.804801292E0,-1.905751021E-2,1.838172739E-2,-1.914436877E-2,3.267389559E-2
3.814800292E0,3.384907460E-3,4.656483175E-2,-3.082359731E-2,5.594493101E-2
3.824798292E0,1.571687713E-2,3.458618922E-2,-3.232282341E-2,4.987975165E-2
3.834796292E0,9.774708180E-3,3.330535663E-2,-2.378939688E-2,4.208000837E-2
3.844795292E0,-2.186593702E-3,5.547545850E-3,-1.704755723E-2,1.806033401E-2
3.854793292E0,-1.424007146E-2,5.569692180E-3,-2.063774765E-2,2.568497097E-2
3.864791292E0,-3.493504873E-2,1.894110493E-2,-2.303393662E-2,4.593239948E-2
3.874790292E0,-5.290178826E-2,1.217958575E-2,-3.052129626E-2,6.227753235E-2
3.884788292E0,-6.021605205E-2,1.289639957E-3,-2.453667104E-2,6.503602326E-2
3.894786292E0,-4.646831615E-2,-8.837390374E-3,-2.693519890E-2,5.443260801E-2
3.904785292E0,-3.076848730E-2,-5.481764674E-6,-2.124702752E-2,3.739165708E-2
3.914783292E0,-1.744029826E-2,4.405657724E-3,-1.631080806E-2,2.428201563E-2
3.924782292E0,6.193279456E-3,3.902395181E-3,-2.499450803E-2,2.604440113E-2
3.934780292E0,6.223538797E-3,-2.002501426E-2,-1.421750486E-2,2.533517467E-2
3.944778292E0,-1.693088701E-3,-3.250414191E-2,-2.005185664E-2,3.822908245E-2
3.954776292E0,-1.628661521E-2,-3.249403719E-2,-1.038465500E-3,3.636199525E-2
3.964775292E0,-1.334486274E-2,-4.488322735E-3,-1.600616813E-2,2.131731270E-2
3.974773292E0,-3.693345345E-2,-1.545247335E-2,-3.217196524E-2,5.136043481E-2
3.984772292E0,-3.864611205E-2,-2.577951500E-2,-1.854736805E-2,5.002109787E-2
3.994770292E0,-3.402865721E-2,-1.162441090E-2,-3.381386340E-2,4.936044771E-2
4.004768292E0,-3.457988519E-2,-1.157620791E-3,-2.513016343E-2,4.276252635E-2
4.014767292E0,-1.763812602E-2,2.167952048E-2,-2.543071032E-2,3.778658657E-2
4.024765292E0,-8.864479428E-3,2.405157141E-2,-2.094297230E-2,3.310083340E-2
4.034763292E0,-5.920589073E-3,5.359137598E-3,-8.819355369E-3,1.189767876E-2
4.044762292E0,-8.639535215E-4,1.939912464E-2,-2.842857778E-2,3.442755419E-2
4.054760292E0,-3.907347042E-3,1.803158881E-2,-2.767838001E-2,3.326406884E-2
4.064758292E0,-1.471160372E-2,3.558171423E-2,-3.830510974E-2,5.431179525E-2
4.074757292E0,3.819931168E-3,3.173621977E-2,-2.543129504E-2,4.084764726E-2
4.084755292E0,-3.749692404E-2,2.150934823E-3,-1.824214339E-2,4.175430072E-2
4.094753292E0,-5.524604665E-2,1.684637647E-3,-5.581576645E-2,7.855166109E-2
4.104752292E0,-2.455112463E-2,4.671172477E-2,-2.677556992E-2,5.917494483E-2
4.114750292E0,-3.096180174E-2,9.206185229E-3,6.449478865E-3,3.293907696E-2
4.124748292E0,1.413381658E-5,1.381068483E-2,-1.017123163E-2,1.715194356E-2
4.134747292E0,6.049194926E-2,1.913044509E-3,-2.229426384E-2,6.449782838E-2
4.144745292E0,1.897775053E-2,-3.249284947E-2,-6.675122917E-2,7.662680260E-2
4.154743292E0,7.850499144E-3,6.811554903E-2,-4.624562860E-2,8.270439239E-2
4.164742292E0,7.592773978E-3,-6.995846350E-3,2.784736454E-2,2.969962617E-2
4.174740292E0,-7.628805617E-2,-4.343722919E-2,-9.569553137E-3,8.830762561E-2
4.184738292E0,-5.753301146E-2,-2.569246458E-2,-6.854223132E-2,9.310310209E-2
4.194737292E0,-6.813721114E-2,-2.888020210E-2,-7.288203478E-2,1.038678805E-1
4.204735292E0,-8.113254743E-2,4.972561726E-2,-2.902265489E-2,9.948588725E-2
4.214734292E0,-3.756809562E-2,-4.841041401E-2,3.938450575E-2,7.284277099E-2
4.224732292E0,-3.371949482E-2,-7.205514712E-2,-1.390467882E-2,8.076068753E-2
4.234730292E0,1.138325893E-2,-2.994525416E-2,-5.056905985E-2,5.986256463E-2
4.244729292E0,6.104053686E-2,4.923538305E-4,-4.024229228E-2,7.311382661E-2
4.254727292E0,3.037192731E-2,3.374958057E-2,-2.182882547E-2,5.037842573E-2
4.264725292E0,1.805675011E-2,-2.661531966E-2,-1.778255224E-2,3.675106297E-2
4.274724292E0,-4.237952270E-4,1.038224302E-2,-4.547438085E-2,4.664643487E-2
4.284722292E0,-1.612879520E-2,4.244214272E-2,-6.251258254E-3,4.583177657E-2
4.294720292E0,-5.549764138E-2,4.554864049E-2,-7.748730183E-3,7.221294668E-2
4.304719292E0,-7.119961725E-2,5.059433078E-2,-6.762889624E-2,1.104664628E-1
4.314717292E0,-6.673924237E-2,3.189391186E-2,-4.008558691E-2,8.413205313E-2
4.324715292E0,-5.605298982E-2,1.504654868E-2,1.724051535E-2,6.054396472E-2
4.334714292E0,-1.392997717E-2,3.647589969E-2,-9.853727818E-3,4.026948564E-2
4.344712292E0,1.715844420E-2,2.333353333E-2,-6.823876083E-2,7.413092785E-2
4.354710292E0,2.678563809E-2,2.699306807E-2,-7.542674303E-2,8.447064399E-2
4.364709292E0,1.721437647E-2,-1.036757017E-2,-4.471950531E-3,2.058687956E-2
4.374707292E0,-1.372140516E-3,-4.227112994E-2,5.391132832E-2,6.852125595E-2
4.384705292E0,-9.510733802E-3,-1.186515173E-2,1.559978664E-2,2.178506888E-2
4.394704292E0,-1.897893825E-2,1.479721975E-2,-4.396462977E-2,5.012032003E-2
4.404702292E0,-3.314113210E-2,-4.921729323E-3,-5.413235307E-2,6.366215285E-2
4.414700292E0,-6.373728186E-2,-3.571199751E-2,-3.527625203E-3,7.314528012E-2
4.424699292E0,-4.962906512E-2,-1.924190763E-2,2.941851139E-2,6.081729956E-2
4.434697292E0,-4.216048965E-2,-9.138887431E-3,2.824614465E-2,5.156423992E-2
4.444695292E0,-1.442692654E-2,3.429205600E-2,5.761495471E-2,6.858253656E-2
4.454694292E0,-1.439995626E-3,6.167807523E-3,7.113254786E-2,7.141396783E-2
4.464692292E0,1.164411784E-2,-3.851210117E-2,1.162543416E-1,1.230196706E-1
4.474691292E0,-5.819439551E-2,-2.280715602E-2,1.173881167E-1,1.329914433E-1
4.484689292E0,-8.601723829E-2,6.542431321E-3,1.848421812E-1,2.039813733E-1
4.494687292E0,-4.265611427E-2,-5.689706281E-3,2.680199933E-1,2.714528203E-1
4.504686292E0,-9.681393927E-2,-1.085241398E-2,1.974780142E-1,2.202005446E-1
4.514684292E0,-1.806057273E-1,1.477682758E-2,1.595675915E-1,2.414510295E-1
4.524682292E0,-9.410992180E-2,1.433459170E-1,2.887296617E-1,3.358117729E-1
4.534681292E0,2.187739391E-2,7.025824293E-2,3.565345591E-1,3.640490804E-1
4.544679292E0,7.509482218E-2,1.177919035E-1,4.247815061E-1,4.471615958E-1
4.554677292E0,8.165963737E-2,1.009223026E-1,2.431716657E-1,2.756557029E-1
4.564676292E0,8.321046514E-2,5.495518422E-2,-1.556863852E0,1.560054200E0
4.574674292E0,8.104920633E-1,2.413587182E-1,-1.112108842E0,1.397117566E0
4.584672292E0,2.264656041E-1,-5.163696608E-1,-2.367350507E-1,6.115290514E-1
4.594671292E0,-3.831054400E-1,-2.364301184E-1,2.723048329E-2,4.510105079E-1
4.604669292E0,-4.319798671E-1,-9.116814192E-3,5.077371240E-2,4.350490682E-1
4.614667292E0,-1.374438837E-1,3.453601280E-2,-1.026408541E-1,1.749820056E-1
4.624666292E0,1.684524357E-2,9.042444918E-2,-1.742172056E-1,1.970075582E-1
4.634664292E0,-9.724210164E-2,9.408307029E-2,-6.932458878E-2,1.520314081E-1
4.644662292E0,-2.166820611E-1,6.810714366E-2,8.623473644E-3,2.272973008E-1
4.654661292E0,-6.468800258E-2,-2.094919411E-1,-9.977688789E-2,2.408876053E-1
4.664659292E0,3.300234295E-2,-2.176447869E-1,2.819235027E-2,2.219306570E-1
4.674657292E0,-1.087900785E-1,7.487820111E-2,5.272083521E-2,1.422023651E-1
4.684656292E0,-1.160297354E-1,-1.180121608E-2,-3.381561756E-2,1.214317265E-1
4.694654292E0,2.050315205E-2,-2.471868025E-1,-1.178038538E-1,2.745895892E-1
4.704652292E0,1.704942103E-1,2.279835230E-1,-9.657261372E-2,3.006177511E-1
4.714651292E0,1.881535508E-1,2.010198189E-1,1.285650694E-1,3.038744862E-1
4.724649292E0,8.013336791E-2,-2.226553757E-1,1.485023206E-1,2.793737858E-1
4.734648292E0,3.425657071E-2,6.330414936E-3,-6.974032581E-2,7.795703839E-2
4.744646292E0,-3.962310869E-3,2.263852962E-1,-1.204982507E-1,2.564874864E-1
4.754644292E0,-6.422004260E-2,-1.375776753E-2,-6.061574578E-2,8.937426182E-2
4.764643292E0,-9.338286621E-2,-1.485179985E-2,5.407505035E-3,9.471101716E-2
4.774641292E0,-9.584439782E-2,-8.805005936E-2,1.423797011E-2,1.309262439E-1
4.784639292E0,-8.063138623E-2,9.120571028E-2,-6.436264157E-2,1.377042180E-1
4.794638292E0,-6.165243885E-2,1.165476708E-1,-6.901293218E-2,1.488192447E-1
4.804636292E0,-1.840838704E-2,-3.140047995E-2,-3.115571916E-2,4.791176986E-2
4.814634292E0,-3.968066722E-4,-6.687544595E-2,-1.154123425E-2,6.786518117E-2
4.824633292E0,-7.947645150E-3,2.124512717E-2,2.079854608E-2,3.077499002E-2
4.834631292E0,3.273375476E-2,9.100352453E-2,6.424335837E-3,9.692477634E-2
4.844629292E0,1.094832659E-2,4.093949966E-2,-6.917548478E-2,8.112432546E-2
4.854628292E0,2.725847684E-2,-3.527036827E-2,-7.142140031E-2,8.419049744E-2
4.864626292E0,6.574481372E-3,-4.130246557E-2,-1.033495367E-2,4.308049135E-2
4.874624292E0,-3.468235765E-2,-4.523607027E-2,3.488214970E-2,6.682763166E-2
4.884623292E0,-6.086898504E-2,1.835247304E-2,-1.017707884E-2,6.438493256E-2
4.894621292E0,-4.937953519E-2,-5.187485274E-3,-8.307957888E-2,9.678566487E-2
4.904619292E0,-7.564853523E-2,-5.097006921E-2,-5.164319336E-2,1.048220791E-1
4.914618292E0,-1.058077427E-2,-2.749198174E-2,3.308413088E-2,4.429809884E-2
4.924616292E0,-3.124202041E-2,1.116799917E-2,-4.790623784E-3,3.352220340E-2
4.934614292E0,-2.246547762E-2,3.508552317E-2,-6.137939215E-2,7.418302637E-2
4.944613292E0,-2.626971267E-3,-1.624795049E-2,-6.317741096E-2,6.528615572E-2
4.954611292E0,-8.819848727E-3,-3.779780896E-2,6.582795382E-3,3.936746485E-2
4.964609292E0,4.022592008E-3,-2.138801850E-4,1.467124879E-2,1.521422139E-2
4.974608292E0,3.557482548E-3,3.147821138E-2,-1.271886349E-2,3.413653412E-2
4.984606292E0,-5.568815097E-3,1.800131120E-2,-5.268867552E-2,5.595672824E-2
4.994605292E0,-1.454507684E-2,1.105152994E-2,-3.382614255E-2,3.844351043E-2
5.004603292E0,-3.672667215E-2,2.117134262E-2,3.446933627E-3,4.253181805E-2
5.014601292E0,-4.252098877E-2,5.072313398E-2,-3.591827631E-2,7.530599830E-2
5.024600292E0,-4.575040597E-2,6.460168306E-3,-7.214587033E-2,8.567298306E-2
5.034598292E0,-3.939084632E-2,2.827751862E-2,-4.400789917E-2,6.548245584E-2
5.044596292E0,-3.515894227E-2,-1.387847599E-2,1.406781614E-2,4.033195716E-2
5.054595292E0,-2.552724419E-2,2.428292016E-2,2.753804684E-2,4.471738399E-2
5.064593292E0,-1.432365010E-2,2.983761057E-3,-3.024413824E-2,3.359728680E-2
5.074591292E0,4.270824585E-3,-1.674112659E-3,-4.730455935E-2,4.752645507E-2
5.084590292E0,2.849987727E-2,-2.802561326E-2,-2.708722651E-2,4.828453006E-2
5.094588292E0,-1.753927153E-3,-2.827731762E-3,-5.227995515E-3,6.197117433E-3
5.104586292E0,-1.323919259E-2,1.766334213E-2,-2.049858391E-2,3.012410693E-2
5.114585292E0,-5.709404089E-3,1.643327069E-2,-2.843384027E-2,3.333366096E-2
5.124583292E0,-1.586974528E-2,-4.462335516E-2,-2.903259516E-2,5.555163564E-2
5.134581292E0,-3.351147098E-2,-3.256922873E-2,-2.618324697E-2,5.356618121E-2
5.144580292E0,-3.878724921E-2,-2.781831119E-3,-1.211309195E-2,4.072979600E-2
5.154578292E0,-3.805830242E-2,2.293862700E-3,-1.121262074E-2,3.974190550E-2
5.164576292E0,-2.891546812E-2,-4.591202667E-2,-1.255631089E-2,5.569272334E-2
5.174575292E0,-2.233382391E-2,-1.607648090E-2,-1.434322000E-2,3.103193336E-2
5.184573292E0,-1.200153803E-2,5.524485894E-3,-4.038087130E-2,4.248731136E-2
5.194571292E0,-1.963696014E-2,2.254766755E-2,-2.630896211E-2,3.982673728E-2
5.204570292E0,-1.072724702E-2,2.272728670E-2,-2.047636449E-2,3.241735480E-2
5.214568292E0,-4.845057707E-3,9.041257203E-3,-4.607372046E-2,4.720176514E-2
5.224566292E0,-2.025024170E-2,7.380958591E-3,-4.277706027E-2,4.790018501E-2
5.234565292E0,-2.753227271E-2,1.735956101E-2,-1.328604341E-2,3.515536017E-2
5.244563292E0,-2.695672397E-2,4.794508528E-2,-1.104305148E-2,5.610120458E-2
5.254562292E0,-1.399397677E-2,1.752841763E-2,-1.239083469E-2,2.562439452E-2
5.264560292E0,-1.265317367E-2,2.725973764E-2,-3.214623749E-2,4.400655276E-2
5.274558292E0,3.745287806E-3,1.950669514E-2,-2.765148282E-2,3.404618684E-2
5.284557292E0,-1.475325599E-3,3.374029811E-2,-2.390926480E-2,4.137918856E-2
5.294555292E0,-5.062976126E-3,1.065179966E-2,-3.917985320E-2,4.091644486E-2
5.304553292E0,-2.121696917E-2,8.511609100E-3,-3.588904023E-2,4.255150384E-2
5.314552292E0,-3.236031868E-2,1.429015651E-2,-8.942146897E-3,3.648781700E-2
5.324550292E0,-3.723569054E-2,3.479221221E-3,-1.283288419E-2,3.953839333E-2
5.334548292E0,-5.585229328E-2,1.188521499E-2,-3.094989717E-2,6.495100565E-2
5.344547292E0,-3.930474607E-2,-1.682768365E-2,-3.020262301E-2,5.234722951E-2
5.354545292E0,-2.944431223E-2,-1.150229545E-2,-3.020437717E-2,4.372155903E-2
5.364543292E0,-1.398341523E-2,-3.948752638E-3,-1.838247657E-2,2.343168781E-2
5.374542292E0,-6.939201448E-3,-1.116471011E-3,-1.434322000E-2,1.597269495E-2
5.384540292E0,-9.627221301E-3,-9.468177035E-3,-3.545225322E-2,3.793668442E-2
5.394538292E0,7.002771646E-4,-2.558372464E-2,-1.763754129E-2,3.108215272E-2
5.404537292E0,2.041043714E-3,-4.031951208E-2,-1.403741062E-2,4.274199118E-2
5.414535292E0,-1.181015136E-2,-9.324134532E-3,-2.795670748E-2,3.174896302E-2
5.424533000E0,-1.926619185E-2,5.730819516E-3,-1.942269623E-2,2.795119979E-2
5.434532000E0,-3.649450114E-2,-1.823236758E-2,-8.941562176E-3,4.176385249E-2
5.444530000E0,-3.576993976E-2,-1.576226614E-3,-1.836727381E-2,4.024089745E-2
5.454528000E0,-2.104116898E-2,1.710434832E-2,-5.458668172E-2,6.095076164E-2
5.464527000E0,-4.209686464E-2,4.315226879E-3,-3.602294147E-2,5.557355043E-2
5.474525000E0,-2.801477764E-2,3.303397274E-2,-2.345318198E-3,4.337708656E-2
5.484523000E0,-1.483381966E-2,2.065402849E-2,-2.531844378E-4,2.543020253E-2
5.494522000E0,-1.479208516E-2,2.437315000E-2,-3.483595669E-2,4.501555401E-2
5.504520000E0,-2.053310076E-2,2.810836963E-2,-5.713782191E-2,6.690604878E-2
5.514519000E0,-1.766016271E-2,2.474857779E-2,-2.420747280E-2,3.886354576E-2
5.524517000E0,-8.650352564E-3,3.142121930E-2,-5.799853206E-3,3.310226456E-2
5.534515000E0,-1.329364479E-2,2.166884931E-2,-2.945008636E-2,3.890459624E-2
5.544514000E0,-3.884615991E-3,-5.137911849E-3,-5.758864224E-2,5.794773589E-2
5.554512000E0,-2.178413082E-2,-3.986923993E-3,-4.112405241E-2,4.670793942E-2
5.564510000E0,5.166691113E-3,4.926909590E-2,4.830969572E-3,4.977425816E-2
5.574509000E0,-6.252628695E-3,-4.809661953E-2,2.294915199E-2,5.365672141E-2
5.584507000E0,3.260845989E-3,-1.543681378E-2,-1.536706746E-2,2.202442050E-2
5.594505000E0,-2.093924470E-3,5.874569658E-3,-6.042161822E-2,6.074262949E-2
5.604504000E0,-1.586658413E-2,-4.267614098E-2,-4.515278399E-2,6.412312690E-2
5.614502000E0,-2.257187868E-2,-1.835404448E-3,-1.940223098E-2,2.982121700E-2
5.624500000E0,-3.970405608E-2,-2.958188625E-2,-2.239951372E-2,5.434370505E-2
5.634499000E0,-4.052979257E-2,3.692871172E-2,-4.679877520E-2,7.208688643E-2
5.644497000E0,-5.483094916E-2,1.342685167E-2,-4.859971762E-2,7.448923334E-2
5.654495000E0,-5.682932647E-2,1.760194637E-4,6.420242786E-4,5.683322554E-2
5.664494000E0,-5.292658411E-2,-7.255353089E-3,3.632290363E-3,5.354490627E-2
5.674492000E0,-2.841838170E-2,2.954267336E-2,-1.971973479E-2,4.548892071E-2
5.684490000E0,-1.531053219E-2,4.221956480E-2,-4.561646819E-2,6.401379709E-2
5.694489000E0,3.946614750E-3,-2.961066552E-4,-4.381844938E-2,4.399681753E-2
5.704487000E0,6.081433184E-3,-1.260617668E-2,-3.288941860E-2,3.574371799E-2
5.714485000E0,1.529534770E-2,-7.717867848E-3,-3.363201499E-2,3.774421251E-2
5.724484000E0,1.331491403E-2,-2.909702417E-3,-3.048328936E-2,3.339137964E-2
5.734482000E0,2.123264702E-2,4.698853562E-2,-2.493837476E-3,5.162331842E-2
5.744480000E0,-2.836540958E-2,-1.715251476E-2,3.163811445E-2,4.582330749E-2
5.754479000E0,-5.277293025E-2,-2.485779282E-2,1.488057911E-2,6.020235598E-2
5.764477000E0,-6.325157924E-2,-3.384211276E-2,-4.858393013E-2,8.663976650E-2
5.774476000E0,-6.059285028E-2,-1.657612547E-2,-7.223299384E-2,9.572808804E-2
5.784474000E0,-3.459541686E-2,6.863242462E-3,-4.724082470E-2,5.895457983E-2
5.794472000E0,-2.310527265E-2,-1.728199404E-2,-1.340766549E-2,3.181644914E-2
5.804471000E0,-1.487221029E-3,-1.613345470E-2,-5.018665195E-3,1.696134391E-2
5.814469000E0,-2.587246746E-3,-9.180603661E-3,-3.345192075E-2,3.478517401E-2
5.824467000E0,2.020286098E-3,5.897812340E-3,-3.434654474E-2,3.490774817E-2
5.834466000E0,7.086734008E-3,2.403677065E-2,-3.353378177E-3,2.528306325E-2
5.844464000E0,6.669443808E-3,-2.243211195E-3,1.941100180E-2,2.064704502E-2
5.854462000E0,-7.853705976E-3,-1.791327406E-2,6.099230647E-3,2.048820879E-2
5.864461000E0,-3.924155960E-2,3.723104931E-2,-4.763375759E-2,7.207652805E-2
5.874459000E0,-4.021989014E-2,2.695789341E-2,-5.915745020E-2,7.644587297E-2
5.884457000E0,-3.997741342E-2,-3.076810358E-2,-4.388803124E-2,6.686575407E-2
5.894456000E0,-4.249807499E-2,-6.050844938E-3,-2.082895160E-2,4.771314627E-2
5.904454000E0,-3.683976095E-2,-4.016525522E-3,-1.798077285E-2,4.118990965E-2
5.914452000E0,-1.749046555E-2,2.639327165E-2,-1.543547988E-2,3.522463928E-2
5.924451000E0,-1.284295237E-2,3.639601210E-2,1.165291607E-2,4.031626936E-2
5.934449000E0,3.459048327E-3,1.995325796E-3,1.449875593E-2,1.503862573E-2
5.944447000E0,-1.974202730E-3,1.967182416E-2,-2.576224744E-2,3.247416721E-2
5.954446000E0,-1.787340336E-2,1.179794529E-2,-5.449897349E-2,5.855585515E-2
5.964444000E0,-3.969245302E-2,1.277358977E-2,-4.251919806E-2,5.955281375E-2
5.974442000E0,-1.963864122E-2,9.353114795E-3,-1.046651602E-3,2.177733833E-2
5.984441000E0,-2.054565400E-3,-3.208098622E-2,2.696560442E-2,4.195896493E-2
5.994439000E0,-3.379105926E-3,-7.731097173E-3,4.525569499E-2,4.603548793E-2
6.004437000E0,5.320874881E-3,1.278680082E-2,7.028645575E-2,7.163797768E-2
6.014436000E0,-1.970860681E-2,1.843537560E-2,7.467888415E-2,7.940546576E-2
6.024434000E0,5.215316193E-2,2.136031732E-2,1.063444805E-1,1.203551577E-1
6.034433000E0,1.973651812E-1,1.879575046E-1,2.293558645E-1,3.562094200E-1
6.044431000E0,9.966854995E-2,2.929933783E-2,3.271166325E-1,3.432164948E-1
6.054429000E0,-8.904942160E-2,-2.786427762E-1,4.558904475E-1,5.416712068E-1
6.064428000E0,-2.780106373E-1,-2.842908758E-1,4.867649156E-1,6.285310649E-1
6.074426000E0,-3.391703752E-1,-7.873274049E-2,4.800447106E-1,5.930247145E-1
6.084424000E0,-3.712933700E-1,2.875867869E-1,5.195075691E-1,7.003235259E-1
6.094423000E0,-1.119191428E-1,1.832543333E-1,7.629768580E-1,7.926170141E-1
6.104421000E0,3.041960405E-1,1.980371360E-1,8.702393514E-1,9.429053330E-1
6.114419000E0,8.117570353E-1,4.446485176E-1,1.155282928E0,1.480317680E0
6.124418000E0,1.531381942E-1,4.348706574E-1,7.655040246E-1,8.936219597E-1
6.134416000E0,-3.048357259E-1,-3.350882147E-1,9.280256295E-1,1.032686061E0
6.144414000E0,-4.307409152E-1,-4.057984108E-2,7.150887465E-1,8.357848856E-1
6.154413000E0,-4.766663722E-1,-3.251689980E-1,6.678403205E-1,8.825850674E-1
6.164411000E0,-2.145763692E-1,-1.544521915E-2,5.767319298E-1,6.155495852E-1
6.174409000E0,1.298581264E-1,-1.311269173E-2,7.866510648E-1,7.974051501E-1
6.184408000E0,2.867499224E-1,3.229852457E-1,6.248960298E-1,7.596315127E-1
6.194406000E0,1.469402918E-1,5.964068603E-3,6.640454775E-1,6.801348511E-1
6.204404000E0,1.050540731E-1,1.398885315E-1,6.318898845E-1,6.556599619E-1
6.214403000E0,5.243969377E-2,-5.856007307E-1,7.560414755E-1,9.577457126E-1
6.224401000E0,-2.672263982E-1,4.444985731E-2,5.998079664E-1,6.581453747E-1
6.234399000E0,-4.442236808E-1,1.606827287E-1,5.067390043E-1,6.927756032E-1
6.244398000E0,-1.341218429E-1,-2.316509332E-1,5.925884092E-1,6.502398375E-1
6.254396000E0,2.743435195E-1,3.892127836E-2,7.929789215E-1,8.399969063E-1
6.264394000E0,3.192054959E-1,4.197144186E-1,6.088389909E-1,8.054422752E-1
6.274393000E0,-5.297772897E-2,-1.240270819E-1,5.961955565E-1,6.112597635E-1
6.284391000E0,-3.085960885E-1,1.723046910E-1,4.086700881E-1,5.403070361E-1
6.294390000E0,-3.173075628E-1,5.558924166E-2,3.959576565E-1,5.104475673E-1
6.304388000E0,-2.605884746E-1,-2.519645076E-1,4.107756704E-1,5.478404125E-1
6.314386000E0,-7.700550953E-2,-6.650440358E-3,2.522471291E-1,2.638232192E-1
6.324385000E0,2.302029616E-1,1.844894479E-1,2.688292480E-1,3.991226935E-1
6.334383000E0,1.649943376E-1,4.187866482E-1,1.129436481E-1,4.640707444E-1
6.344381000E0,6.977895398E-2,-9.330968466E-3,1.444928849E-1,1.607307163E-1
6.354380000E0,1.230942866E-1,-8.494655829E-2,7.874152958E-2,1.690217431E-1
6.364378000E0,1.585220363E-2,-5.275696004E-2,-4.325536251E-2,7.004009979E-2
6.374376000E0,-2.198359396E-2,-1.085159171E-1,-8.877769053E-2,1.419170920E-1
6.384375000E0,4.486628870E-2,9.067812698E-2,-2.389312649E-1,2.594680248E-1
6.394373000E0,-1.210131894E-1,-1.251544799E-1,-2.233917046E-1,2.832166830E-1
6.404371000E0,-5.739272397E-2,2.536147563E-2,-2.840337628E-1,2.908819479E-1
6.414370000E0,-1.010534264E-1,-3.123473697E-1,-2.091759539E-1,3.892650177E-1
6.424368292E0,-1.141476263E-1,-9.332485087E-2,-2.989897710E-1,3.333678022E-1
6.434366292E0,8.658885844E-2,1.784314401E-3,-2.587012857E-1,2.728134334E-1
6.444365292E0,2.315743895E-1,1.820897323E-1,-2.453713882E-1,3.833933837E-1
6.454363292E0,-2.358750349E-2,2.506688559E-2,-1.942813414E-1,1.973067629E-1
6.464361292E0,1.676144018E-1,-4.350248046E-2,-1.776273018E-1,2.480695706E-1
6.474360292E0,-1.504757194E-2,5.345710929E-2,-8.808947325E-2,1.041337950E-1
6.484358292E0,-1.509164533E-2,8.492464950E-2,-2.955709040E-2,9.117881028E-2
6.494356292E0,-1.155326490E-1,3.853585549E-2,-3.495640934E-2,1.267073625E-1
6.504355292E0,-2.318540143E-1,-9.641148638E-2,7.158102930E-2,2.611040069E-1
6.514353292E0,-1.592981994E-1,1.574276385E-1,2.742344141E-4,2.239630615E-1
6.524352292E0,-1.082305547E-1,3.358284356E-2,1.141084135E-1,1.608178796E-1
6.534350292E0,-6.667322366E-2,1.050865252E-2,1.502781200E-1,1.647399888E-1
6.544348292E0,-4.718836421E-2,-2.567035479E-2,2.425559539E-1,2.484332900E-1
6.554347292E0,2.406461801E-2,1.005702637E-1,2.383173072E-1,2.597857246E-1
6.564345292E0,1.716760788E-2,1.366963902E-2,2.463619065E-1,2.473373704E-1
6.574343292E0,-1.896781209E-1,-7.699845633E-2,1.708942330E-1,2.666671909E-1
6.584342292E0,-5.889160288E-2,-1.128795845E-2,8.122718096E-2,1.009628339E-1
6.594340292E0,4.369542031E-2,-7.259891991E-2,1.011509836E-1,1.319523187E-1
6.604338292E0,6.697969085E-2,1.184663616E-1,-9.400393188E-2,1.654004142E-1
6.614337292E0,2.391039770E-2,-2.065608598E-1,-1.146106893E-1,2.374335823E-1
6.624335292E0,-1.743776752E-2,3.934960518E-2,-3.303986746E-1,3.331902630E-1
6.634333292E0,1.328377761E-2,-7.984000213E-2,-3.738990355E-1,3.825589803E-1
6.644332292E0,-2.927777622E-2,7.094097845E-3,-5.727873981E-1,5.735790424E-1
6.654330292E0,-5.600949202E-2,-1.050108220E-1,-6.131717777E-1,6.246150534E-1
6.664328292E0,1.597764468E-2,8.549634274E-2,-7.085059512E-1,7.138246231E-1
6.674327292E0,-2.811640956E-2,-8.518927256E-2,-6.824612832E-1,6.883321493E-1
6.684325292E0,2.484854691E-2,7.867311716E-2,-7.116640323E-1,7.164304604E-1
6.694323292E0,6.173998263E-2,6.857567009E-2,-6.438848627E-1,6.504630384E-1
6.704322292E0,3.009496115E-2,9.488324348E-2,-6.820999253E-1,6.893249195E-1
6.714320292E0,6.660954382E-2,5.817212127E-2,-7.328946877E-1,7.382109795E-1
6.724318292E0,4.736562621E-2,2.207353145E-2,-8.172109526E-1,8.188800183E-1
6.734317292E0,5.950612698E-2,-5.677458191E-2,-8.558668953E-1,8.598095573E-1
6.744315292E0,-4.762995690E-2,-4.309379663E-2,-8.916775829E-1,8.939880312E-1
6.754313292E0,-3.181539472E-2,-3.341533910E-2,-9.009851807E-1,9.021657831E-1
6.764312292E0,-2.293568512E-2,-5.504757022E-2,-8.746616006E-1,8.766921901E-1
6.774310292E0,7.266316619E-3,-7.150941918E-2,-8.454728848E-1,8.485227135E-1
6.784309292E0,-9.175553128E-2,-1.587454730E-1,-8.673186672E-1,8.864879430E-1
6.794307292E0,-1.087073769E-1,-9.083978422E-2,-9.307802528E-1,9.414993570E-1
6.804305292E0,-9.331973456E-3,1.968377441E-2,-9.401901770E-1,9.404425052E-1
6.814304292E0,1.099815217E-1,-7.594127974E-2,-8.259461081E-1,8.366898987E-1
6.824302292E0,9.424697505E-2,3.519366011E-2,-8.131769586E-1,8.193765020E-1
6.834300292E0,5.180072101E-2,-5.892681409E-2,-7.135883510E-1,7.178885838E-1
6.844299292E0,-1.692487534E-2,2.155692995E-2,-6.548735350E-1,6.554467938E-1
6.854297292E0,-1.236136655E-1,4.642360322E-3,-5.469321799E-1,5.607465553E-1
6.864295292E0,-2.202614890E-1,-6.402244326E-2,-4.684935361E-1,5.216322365E-1
6.874294292E0,-1.954150252E-1,-1.763611604E-2,-3.857244444E-1,4.327602242E-1
6.884292292E0,-7.028024308E-2,-4.941792581E-2,-2.412859386E-1,2.561256491E-1
6.894290292E0,1.060873127E-2,3.976472095E-2,-1.706422180E-1,1.755350243E-1
6.904289292E0,3.736352529E-2,1.629774319E-2,-8.816665649E-2,9.713397332E-2
6.914287292E0,7.607432216E-2,1.107717364E-1,-7.199618161E-2,1.524504190E-1
6.924285292E0,8.942115834E-2,9.745013461E-2,-4.339511096E-2,1.391970113E-1
6.934284292E0,1.007152381E-1,6.048506051E-2,-4.006862998E-2,1.241269384E-1
6.944282292E0,6.259296348E-2,-9.808729839E-2,1.058053672E-2,1.168372584E-1
6.954280292E0,-1.039886008E-1,-2.658838592E-2,-3.456815422E-2,1.127631529E-1
6.964279292E0,-1.023156393E-1,-5.983742656E-2,1.847427785E-2,1.199596041E-1
6.974277292E0,-1.153458305E-1,1.173324220E-2,-8.872565031E-3,1.162800584E-1
6.984275292E0,-9.575771285E-2,-6.332022920E-3,9.895827770E-3,9.647570416E-2
6.994274292E0,5.748965984E-2,-2.340620326E-2,4.380733967E-2,7.597364246E-2
7.004272292E0,7.616162840E-2,-4.142770562E-3,3.746077180E-2,8.497685339E-2
7.014271292E0,7.981257504E-2,7.374766024E-2,6.111509800E-3,1.088398598E-1
7.024269292E0,5.278932072E-2,9.786576200E-2,-5.249454796E-2,1.229638049E-1
7.034267292E0,2.697978392E-2,4.431191783E-2,-3.925118923E-2,6.505467438E-2
7.044266292E0,2.047397079E-2,7.195199858E-2,-5.580699563E-2,9.333110061E-2
7.054264292E0,-1.708687976E-1,-1.136485117E-1,-1.155006355E-1,2.354836024E-1
7.064262292E0,-1.490707614E-1,-2.043554362E-2,-1.406372309E-1,2.059576025E-1
7.074261292E0,-6.055809589E-2,2.032715086E-2,-1.358477765E-1,1.501169358E-1
7.084259292E0,2.802131921E-3,9.264182299E-4,-1.382334405E-1,1.382649423E-1
7.094257292E0,8.989860177E-2,7.353588140E-2,-1.419581169E-1,1.834158974E-1
7.104256292E0,-3.088174056E-2,-4.525498236E-2,-1.477714187E-1,1.576010391E-1
7.114254292E0,-7.384406621E-2,-2.836853418E-2,-1.712456506E-1,1.886340179E-1
7.124252292E0,-3.583581230E-2,-9.163003542E-2,-1.605698043E-1,1.883160399E-1
7.134251292E0,2.604620285E-2,-4.121548824E-2,-2.061704850E-1,2.118570038E-1
7.144249292E0,5.987066433E-2,2.660285778E-2,-2.686930078E-1,2.765648946E-1
7.154247292E0,-3.127757879E-2,2.485397385E-2,-3.376515609E-1,3.400067404E-1
7.164246292E0,-8.648903551E-2,-5.267604919E-2,-3.954045099E-1,4.081664438E-1
7.174244292E0,-5.119436475E-2,-6.914509753E-2,-4.064440531E-1,4.154499678E-1
7.184242292E0,7.114055123E-2,-2.872923430E-2,-3.612140858E-1,3.692722068E-1
7.194241292E0,-9.632692102E-2,9.391985988E-2,-4.872859025E-1,5.055169301E-1
7.204239292E0,-8.915717483E-2,-1.149663096E-2,-4.838863313E-1,4.921657810E-1
7.214237292E0,-1.980017055E-2,-7.431321390E-2,-4.319841063E-1,4.387764449E-1
7.224236292E0,6.041418130E-2,-3.575177684E-2,-2.938728726E-1,3.021412387E-1
7.234234292E0,1.728847714E-1,1.800681672E-1,-3.020005023E-1,3.918137216E-1
7.244233292E0,1.456720307E-1,6.694378529E-2,-2.955878609E-1,3.362647684E-1
7.254231292E0,8.633101450E-2,-1.255452018E-1,-2.294646227E-1,2.754426526E-1
7.264229292E0,-1.896281272E-2,1.442994151E-2,-3.079319179E-1,3.088525175E-1
7.274228292E0,4.847118851E-2,-8.271666778E-2,-1.600271827E-1,1.865481237E-1
7.284226292E0,1.471922520E-1,-8.324019458E-2,2.174053252E-2,1.704908789E-1
7.294224292E0,-1.892445864E-2,-8.110636286E-3,-7.418830276E-2,7.699234911E-2
7.304223292E0,-2.272913589E-1,1.879496109E-2,-2.481201643E-1,3.370136916E-1
7.314221292E0,-2.116054537E-1,1.184262899E-1,-2.260153502E-1,3.314884503E-1
7.324219292E0,-1.137721437E-1,2.590039157E-1,-9.987746000E-2,3.000043934E-1
7.334218292E0,-5.691919087E-2,-5.531341754E-2,8.794972479E-2,1.184673902E-1
7.344216292E0,-9.283710172E-2,-6.044540908E-2,1.678875947E-1,2.011432807E-1
7.354214292E0,-1.611577601E-1,2.591094945E-2,5.547604322E-2,1.723971935E-1
7.364213292E0,-1.746846174E-1,-2.123478491E-2,-7.146466970E-2,1.899284883E-1
7.374211292E0,-1.039941556E-1,3.927757479E-3,-9.302276909E-2,1.395831195E-1
7.384209292E0,-3.314603828E-3,-6.145377969E-2,4.887219787E-2,7.858781942E-2
7.394208292E0,6.651014116E-2,1.309659362E-2,8.270769596E-2,1.069377511E-1
7.404206292E0,3.950431885E-2,-4.296181401E-2,1.422779596E-1,1.537833751E-1
7.414204292E0,-6.166806187E-2,-5.415241633E-2,9.527979434E-2,1.257524284E-1
7.424203000E0,8.148038367E-2,-1.219951197E-1,1.590653157E-1,2.163877002E-1
7.434201000E0,6.176174523E-2,3.460046008E-2,3.455996811E-2,7.877878146E-2
7.444199000E0,5.907949951E-2,-1.850718123E-1,1.712713784E-1,2.589900539E-1
7.454198000E0,1.269680852E-2,9.295231014E-2,3.463539720E-2,1.000047581E-1
7.464196000E0,3.848869404E-2,1.460247092E-1,-4.877162576E-3,1.510906416E-1
7.474195000E0,3.822887667E-2,1.119970022E-1,-6.942223728E-2,1.372013941E-1
7.484193000E0,2.610385275E-2,5.162095567E-2,9.891149998E-3,5.868533923E-2
7.494191000E0,-6.549996156E-3,-7.366589058E-2,1.330797046E-1,1.522490515E-1
7.504190000E0,1.333498826E-1,2.299384299E-1,9.489797115E-2,2.822401418E-1
7.514188000E0,-6.776716461E-2,1.158444152E-1,3.549259901E-2,1.388237794E-1
7.524186000E0,-2.358634135E-1,-1.914122041E-1,3.489384413E-2,3.057576852E-1
7.534185000E0,-7.193641210E-2,1.686040431E-1,-4.135150909E-3,1.833555840E-1
7.544183000E0,-6.995334718E-3,-4.760616604E-2,1.834821188E-1,1.896865037E-1
7.554181000E0,-8.114117207E-2,-1.309895078E-2,1.002990443E-1,1.296740938E-1
7.564180000E0,-8.962155338E-3,2.710233608E-1,6.196060538E-2,2.781602038E-1
7.574178000E0,-1.942237281E-1,3.886220321E-2,-1.709608912E-2,1.988099687E-1
7.584176000E0,-7.858332586E-2,-1.792294389E-1,1.060854489E-1,2.226042527E-1
7.594175000E0,3.017346002E-3,8.785244174E-2,5.636072695E-2,1.044207232E-1
7.604173000E0,-9.036605012E-2,-5.459640272E-2,4.841026783E-2,1.161479412E-1
7.614171000E0,-5.825745407E-2,-2.185425355E-1,1.256654352E-1,2.587403571E-1
7.624170000E0,3.969068058E-2,-1.312235791E-1,1.399022359E-1,1.958765260E-1
7.634168000E0,4.690886730E-2,-2.050616702E-2,6.177115560E-2,8.022855091E-2
7.644166000E0,6.266903210E-2,2.954802722E-2,9.770112634E-2,1.197748036E-1
7.654165000E0,-3.323027473E-3,-1.414558411E-2,1.325861996E-1,1.333800600E-1
7.664163000E0,-7.983824797E-3,-1.646329248E-1,1.316962534E-1,2.109778296E-1
7.674161000E0,1.896641241E-2,-4.528781813E-2,4.639297843E-2,6.755012745E-2
7.684160000E0,3.293937575E-2,-1.449532069E-2,5.554562509E-2,6.618484164E-2
7.694158000E0,3.263654480E-2,7.179032307E-2,2.696794331E-2,8.334425301E-2
7.704157000E0,1.618476402E-2,6.137244858E-2,3.236667752E-2,7.124693569E-2
7.714155000E0,-6.932935791E-2,-3.972243827E-2,2.742811918E-2,8.447919088E-2
7.724153000E0,-2.580257496E-2,1.154574209E-1,9.626972795E-2,1.525255698E-1
7.734152000E0,1.805002581E-2,1.971008505E-1,2.025194836E-1,2.831760759E-1
7.744150000E0,-1.146162990E-1,8.768137414E-2,2.373595333E-1,2.777849301E-1
7.754148000E0,-7.418468479E-2,9.436002731E-2,2.416741937E-1,2.698399491E-1
7.764147000E0,-2.101304753E-2,1.093410324E-1,2.578282964E-1,2.808423756E-1
7.774145000E0,-6.312982924E-2,2.800293703E-2,2.414929301E-1,2.511739937E-1
7.784143000E0,-1.087375632E-1,5.302644359E-2,1.450682509E-1,1.888927176E-1
7.794142000E0,-3.681617109E-2,-1.936272573E-2,1.597242969E-1,1.650521028E-1
7.804140000E0,2.397296291E-2,-6.155429699E-2,2.387581873E-1,2.477278879E-1
7.814138000E0,-1.894031921E-2,-8.787433226E-3,2.517670727E-1,2.526313788E-1
7.824137000E0,-8.302448714E-2,4.515011620E-2,2.279320675E-1,2.467481020E-1
7.834135000E0,-5.586135646E-2,-1.901189279E-2,2.307387310E-1,2.381644499E-1
7.844133000E0,7.112165742E-2,-3.930830922E-2,2.091543192E-1,2.243857450E-1
7.854132000E0,3.690923318E-2,-5.120635154E-2,1.571871901E-1,1.693877051E-1
7.864130000E0,-3.815240605E-2,-1.288875251E-1,1.444455224E-1,1.973122124E-1
7.874128000E0,4.035181794E-3,-5.008597020E-2,9.279121935E-2,1.055229714E-1
7.884127000E0,2.470097780E-2,1.949697414E-2,-1.140382469E-2,3.347114463E-2
7.894125000E0,6.755580604E-3,1.458100067E-2,-1.203871536E-1,1.214549719E-1
7.904123000E0,1.037794897E-2,-1.893401518E-4,-2.179958940E-1,2.182428635E-1
7.914122000E0,2.971299179E-4,1.433249401E-2,-2.895623052E-1,2.899169489E-1
7.924120000E0,-5.805567032E-2,-3.358467082E-2,-3.638184357E-1,3.699489763E-1
7.934119000E0,-1.026620868E-1,-1.297770876E-1,-4.289306903E-1,4.597424644E-1
7.944117000E0,5.280673446E-2,6.455612959E-2,-4.398521197E-1,4.476895490E-1
7.954115000E0,4.693474123E-2,1.866233527E-1,-4.173976421E-1,4.596215154E-1
7.964114000E0,-1.334701342E-1,6.342525981E-2,-4.055698943E-1,4.316526144E-1
7.974112000E0,-1.736729943E-1,-9.349507794E-2,-3.283135575E-1,3.830057840E-1
7.984110000E0,-2.857433790E-2,8.688757807E-2,-2.857926053E-1,3.000722534E-1
7.994109000E0,-1.107554007E-3,1.347762194E-1,-2.748436940E-1,3.061125808E-1
8.004107000E0,-3.211363927E-3,-3.984749559E-3,-2.258802795E-1,2.259382477E-1
8.014105000E0,-5.432998896E-2,8.199819116E-2,-2.354398924E-1,2.551615057E-1
8.024104000E0,-3.318711497E-2,8.280680627E-3,-1.840808737E-1,1.872317343E-1
8.034102000E0,-3.645603742E-2,2.916194653E-2,-2.172936434E-1,2.222520849E-1
8.044100000E0,7.612060653E-2,-3.729047164E-2,-1.094838506E-1,1.384616898E-1
8.054099000E0,-1.389585318E-2,-7.993209578E-2,-7.472039938E-2,1.102967486E-1
8.064097000E0,-1.050379567E-1,-9.010807827E-2,-6.465207875E-2,1.527492370E-1
8.074095000E0,2.670425216E-2,-1.139793910E-1,7.131030321E-2,1.370750816E-1
8.084094000E0,2.050430322E-2,2.004469380E-2,5.010888398E-2,5.773314865E-2
8.094092000E0,3.377298770E-2,-1.327024496E-1,1.224827957E-1,1.837187799E-1
8.104090000E0,-2.917636357E-2,-1.166953678E-1,9.497106135E-2,1.532598172E-1
8.114089000E0,-8.404860869E-3,6.264193391E-2,1.993900537E-2,6.627380709E-2
8.124087000E0,-8.587220907E-3,9.388225498E-2,8.319067597E-2,1.257310890E-1
8.134086000E0,-6.253012419E-2,-1.511955299E-1,1.503289908E-1,2.221911568E-1
8.144084000E0,5.372045327E-2,-1.692639196E-2,2.035942018E-1,2.112415415E-1
8.154082000E0,7.110566894E-2,-5.472701490E-2,2.639222646E-1,2.787580027E-1
8.164081000E0,-3.749358930E-2,4.187501762E-3,1.750235367E-1,1.790434104E-1
8.174079000E0,-6.800463466E-2,7.804249495E-2,1.163356179E-1,1.557216663E-1
8.184077000E0,-1.265899531E-1,5.222999800E-2,8.970038116E-2,1.637044510E-1
8.194076000E0,1.501877440E-2,4.488487188E-2,1.582724333E-1,1.651979977E-1
8.204074000E0,5.219517052E-3,1.182059595E-1,1.263939983E-1,1.731338644E-1
8.214072000E0,-1.441768794E-1,8.837200340E-2,5.841193020E-2,1.789092986E-1
8.224071000E0,-7.856463304E-2,1.225785621E-1,6.077011228E-2,1.577685393E-1
8.234069000E0,-4.950000610E-2,7.612656338E-2,5.249513268E-2,1.048868114E-1
8.244067000E0,-1.499350347E-2,1.174736871E-1,1.258905530E-3,1.184333447E-1
8.254066000E0,2.173733482E-2,8.275372451E-2,-9.388289452E-3,8.607456433E-2
8.264064000E0,7.678472232E-3,-1.213719344E-2,4.104336083E-2,4.348365059E-2
8.274062000E0,-5.253368776E-2,-1.108997539E-3,-6.412641406E-3,5.293524530E-2
8.284061000E0,-3.130306900E-2,-2.146956889E-2,-3.740990102E-2,5.329470153E-2
8.294059000E0,-9.408228457E-2,-5.087309679E-2,-1.055170995E-1,1.502444892E-1
8.304057000E0,1.059082417E-2,-4.142364912E-2,-5.594674408E-2,7.041393638E-2
8.314056000E0,4.842240080E-2,-5.440803101E-2,-2.027989805E-2,7.560580006E-2
8.324054000E0,-1.808070542E-2,-8.474974466E-2,-3.056222677E-2,9.188841513E-2
8.334053000E0,3.453329019E-3,-4.712152323E-2,-2.767194808E-2,5.475490976E-2
8.344051000E0,6.284422930E-2,7.467903033E-2,-3.408049643E-2,1.033819857E-1
8.354049000E0,-1.043897929E-2,2.163641553E-2,-4.874355912E-2,5.434189288E-2
8.364048000E0,-1.077743806E-1,-2.097304892E-3,-1.137119722E-1,1.566848060E-1
8.374046000E0,-4.305443756E-2,-5.987987369E-2,-6.476317585E-2,9.815066384E-2
8.384044000E0,9.810129516E-3,-6.412524462E-2,-2.164346874E-2,6.838658770E-2
8.394043000E0,-1.718293855E-2,-3.682430238E-2,-1.908940494E-2,4.489641415E-2
8.404041000E0,-2.534241736E-2,1.028311444E-1,-8.807836354E-2,1.377471615E-1
8.414039000E0,-5.593537856E-2,6.169086602E-3,-5.617420077E-2,7.951330100E-2
8.424037875E0,-2.401312597E-2,6.434504511E-2,-5.017144918E-2,8.505345003E-2
8.434035875E0,-1.405925545E-1,5.888893509E-2,-1.245655739E-1,1.968521152E-1
8.444033875E0,-5.670748511E-2,9.411404226E-3,-4.970776498E-2,7.599457413E-2
8.454032875E0,1.641275061E-2,5.539219050E-2,-3.680822253E-2,6.850195907E-2
8.464030875E0,-9.351598173E-3,2.577182226E-2,-5.325351655E-2,5.989637916E-2
8.474028875E0,-8.346120106E-2,3.436817944E-2,-1.015953720E-1,1.358990929E-1
8.484027875E0,-7.881511314E-2,5.946453866E-3,-5.788918912E-2,9.797112120E-2
8.494025875E0,-3.259183187E-3,9.451019112E-3,-2.691064060E-2,2.870760552E-2
8.504023875E0,2.008763429E-2,8.638987038E-3,-5.103332877E-2,5.552067897E-2
8.514022875E0,-9.403601848E-3,4.798261710E-3,-1.309975111E-1,1.314222164E-1
8.524020875E0,2.133619756E-2,-4.965552377E-2,-1.178535551E-1,1.296547909E-1
8.534018875E0,2.322163224E-2,-1.199887207E-1,-9.332331598E-2,1.537718394E-1
8.544017875E0,6.897192858E-2,-4.619263820E-2,-7.671897769E-2,1.130340139E-1
8.554015875E0,7.709023934E-2,3.147643894E-2,-9.678135931E-2,1.276726389E-1
8.564014875E0,3.000531603E-2,-1.669716284E-2,-6.129402280E-2,7.025718090E-2
8.574012875E0,-7.198234929E-2,-1.116530762E-1,-3.792270184E-2,1.381520878E-1
8.584010875E0,-6.559200039E-2,-7.703216918E-2,-1.456482947E-2,1.022174147E-1
8.594009875E0,-5.503161829E-3,9.220795959E-2,-3.416645050E-2,9.848826804E-2
8.604007875E0,1.197581029E-2,5.664298302E-2,5.759799778E-2,8.166625316E-2
8.614005875E0,-1.259034169E-1,-6.078838482E-3,2.842039168E-2,1.292143232E-1
8.624004875E0,-1.382659108E-1,3.761714827E-2,1.075127542E-2,1.436944740E-1
8.634002875E0,-8.757150130E-2,1.184215390E-1,3.104286790E-3,1.473162087E-1
8.644000875E0,-4.388439501E-2,8.488987684E-2,1.940690875E-2,9.751286799E-2
8.653999875E0,-4.624389270E-2,3.261156622E-2,3.959617496E-2,6.906423774E-2
8.663997875E0,-6.244868344E-2,5.746342046E-2,-1.282762170E-2,8.582791290E-2
8.673995875E0,-8.797044586E-3,6.569109242E-2,-1.269605935E-2,6.748257212E-2
8.683994875E0,-3.514103517E-3,7.064605951E-3,6.151855588E-3,1.000514407E-2
8.693992875E0,-1.083536569E-2,-3.583720101E-2,-2.528862298E-2,4.517991343E-2
8.703990875E0,5.721683241E-3,2.091094052E-2,-4.939026117E-2,5.393888200E-2
8.713989875E0,7.787723802E-3,-6.137703499E-2,-2.078685164E-3,6.190403862E-2
8.723987875E0,-1.061763000E-3,-5.810109587E-2,-6.852936745E-3,5.851348071E-2
8.733985875E0,3.952145850E-2,-1.361341439E-2,7.083317041E-3,4.239627476E-2
8.743984875E0,-7.458123565E-4,1.283034431E-2,-5.773540735E-3,1.408927762E-2
8.753982875E0,-4.344495848E-2,-9.295318723E-3,-1.311413527E-2,4.632329771E-2
8.763981875E0,-2.308731074E-2,-2.549294662E-3,-2.150079668E-2,3.165133612E-2
8.773979875E0,-5.940405652E-4,-3.700388499E-2,-1.739546657E-3,3.704951296E-2
8.783977875E0,-3.460321924E-2,-4.340015419E-2,1.669029236E-2,5.796138390E-2
8.793976875E0,-3.590979785E-2,-1.073254606E-2,2.614056230E-2,4.569496825E-2
8.803974875E0,-7.311773239E-2,2.475190340E-2,-4.569599032E-2,8.970497780E-2
8.813972875E0,-2.712084800E-2,3.039810274E-2,-3.011783838E-2,5.066230586E-2
8.823971875E0,-3.636487568E-2,5.135456018E-2,-5.795175433E-2,8.554589917E-2
8.833969875E0,-6.604130410E-2,6.571071714E-2,-7.501276016E-2,1.196088056E-1
8.843967875E0,-1.198366748E-1,-1.013022803E-2,-1.193217909E-1,1.694141079E-1
8.853966875E0,-1.335747080E-2,-6.911445446E-3,-6.242838264E-2,6.421443033E-2
8.863964875E0,6.412570143E-2,8.516877076E-2,-6.810719848E-2,1.265085593E-1
8.873962875E0,7.147746049E-3,3.939314866E-2,-1.083717102E-1,1.155306799E-1
8.883961875E0,-5.231914977E-2,-8.296248838E-3,-1.152480358E-1,1.268393903E-1
8.893959875E0,-7.190613449E-3,-6.241793074E-3,-8.321581900E-2,8.375880512E-2
8.903957875E0,-7.976186872E-3,2.461895233E-2,-8.786552489E-2,9.159728618E-2
8.913956875E0,-2.241621483E-3,2.620585011E-2,-6.932166517E-2,7.414354125E-2
8.923954875E0,4.142131023E-3,-2.259884896E-2,-4.298756003E-2,4.874213312E-2
8.933952875E0,-2.078118715E-2,-1.666167755E-2,-4.989019811E-2,5.655529247E-2
8.943951875E0,-2.695007276E-2,-2.805945402E-2,-5.230100513E-2,6.518461873E-2
8.953949875E0,1.575278269E-2,4.006110169E-3,-2.237612486E-2,2.765664558E-2
8.963947875E0,2.363967162E-2,4.579411391E-3,-9.055582881E-3,2.572564215E-2
8.973946875E0,-6.252171881E-3,-1.644246178E-2,-1.040102720E-2,2.043588925E-2
8.983944875E0,-7.429130511E-2,-3.827263942E-2,-2.236676931E-2,8.651164842E-2
8.993943875E0,-4.544207498E-2,-7.328567538E-2,-1.254227757E-3,8.624004570E-2
9.003941875E0,-1.071071036E-2,4.152504349E-2,-4.586146653E-2,6.278791815E-2
9.013939875E0,1.143276840E-3,4.884478904E-2,-1.352753341E-2,5.069629828E-2
9.023938875E0,-9.490370873E-2,-4.476176972E-2,-4.779572546E-2,1.153029112E-1
9.033936875E0,-5.601407843E-2,-4.338743649E-2,-4.060774326E-2,8.166416252E-2
9.043934875E0,-2.001743115E-2,7.961956210E-2,-8.447180092E-2,1.177941313E-1
9.053933875E0,-4.425103370E-2,3.063447643E-2,-5.454048872E-2,7.662434365E-2
9.063931875E0,-4.712450165E-2,-2.479493525E-3,-1.831991136E-2,5.062100055E-2
9.073929875E0,-1.243905595E-2,9.276205637E-3,1.235516667E-2,1.983502577E-2
9.083928875E0,2.923461646E-3,7.963922337E-2,-1.848655701E-2,8.180895621E-2
9.093926875E0,-5.392137822E-3,5.697864974E-2,-2.552660465E-2,6.266776860E-2
9.103924875E0,-2.677531410E-2,-4.272156654E-2,-5.246589661E-2,7.276482666E-2
9.113923875E0,-1.229302173E-2,-2.257547837E-2,-8.808713436E-2,9.176117832E-2
9.123921875E0,3.365668293E-2,3.327016370E-2,-6.846680224E-2,8.323087833E-2
9.133919875E0,-1.187715679E-4,4.462982364E-2,-4.122579396E-2,6.075690374E-2
9.143918875E0,-5.040977804E-2,-1.552686090E-2,1.400525093E-2,5.457450123E-2
9.153916875E0,-3.073298374E-2,-1.700739417E-2,5.756232977E-2,6.743285219E-2
9.163915875E0,5.404636245E-3,-2.885266537E-2,8.226272285E-2,8.734324223E-2
9.173913875E0,-1.900018008E-2,2.057050467E-3,3.510843694E-2,3.997299894E-2
9.183911875E0,-4.130440246E-2,3.683965132E-3,-1.100270569E-2,4.290320261E-2
9.193910875E0,-5.054958131E-2,1.460482808E-2,-9.957808256E-3,5.355108887E-2
9.203908875E0,-3.224883785E-2,-3.782371944E-2,5.486383975E-2,7.403149469E-2
9.213906875E0,-2.722840022E-2,-2.070267001E-2,7.627809763E-2,8.359625890E-2
9.223905875E0,-7.520984787E-2,2.848971773E-2,4.245195508E-2,9.094148516E-2
9.233903875E0,-4.550487773E-2,4.290357940E-2,3.795895457E-2,7.315936888E-2
9.243901875E0,-3.606708795E-3,4.583601287E-2,3.751105785E-2,5.933824976E-2
9.253900875E0,3.129685633E-3,1.937951820E-2,1.536063552E-2,2.492608636E-2
9.263898875E0,-3.686627442E-2,-1.152904646E-2,-7.831175923E-3,3.941279511E-2
9.273896875E0,-1.747135246E-2,3.933111336E-3,3.408342004E-3,1.823003886E-2
9.283895875E0,5.890338868E-3,6.291611351E-2,8.493665457E-3,6.375951524E-2
9.293893875E0,3.493053541E-3,4.080601869E-2,2.705389738E-2,4.908407021E-2
9.303891875E0,-5.304319952E-3,-9.672774766E-3,3.977568448E-2,4.127715418E-2
9.313890875E0,-1.026334355E-2,-1.574730093E-2,6.027719200E-2,6.313995235E-2
9.323888875E0,-2.073859384E-2,1.890340867E-2,5.233784258E-2,5.938583922E-2
9.333886875E0,-4.151652848E-2,1.843126427E-2,2.763277173E-2,5.316863468E-2
9.343885875E0,-3.181970704E-2,4.021276385E-3,1.490455270E-2,3.536679391E-2
9.353883875E0,-1.743776752E-2,1.147954613E-2,-1.054954648E-2,2.339120874E-2
9.363881875E0,-2.531707333E-2,1.836142659E-2,-2.867182195E-2,4.242840514E-2
9.373880875E0,-5.802886449E-2,7.741640434E-3,-5.353008986E-2,7.932687206E-2
9.383878875E0,-2.957854237E-2,6.040393040E-3,-4.470488727E-2,5.394352105E-2
9.393877875E0,-1.861079207E-2,3.342633918E-3,-7.434734702E-3,2.031772780E-2
9.403875875E0,-1.618977070E-2,-1.486475509E-2,-3.386122584E-3,2.223815292E-2
9.413873875E0,-2.686386287E-2,1.712154279E-2,-5.263020337E-2,6.152034348E-2
9.423873375E0,-1.759639151E-2,3.587687071E-3,-6.594372869E-2,6.834529864E-2
9.433871375E0,-1.150331872E-2,-1.519307625E-2,-7.282180846E-2,7.527397754E-2
9.443869375E0,-1.002019074E-2,-2.163455173E-2,-5.186129451E-2,5.707934757E-2
9.453868375E0,-1.483568346E-2,4.452672992E-3,-5.111460507E-2,5.340998644E-2
9.463866375E0,-1.772071794E-2,-1.097642977E-2,-3.240059137E-2,3.852666837E-2
9.473864375E0,-2.200256087E-2,-1.638344144E-2,-1.592898488E-2,3.172163927E-2
9.483863375E0,-3.047826441E-2,8.417359293E-3,-9.939097166E-3,3.314456504E-2
9.493861375E0,-2.809715029E-2,1.602794901E-2,5.030359626E-3,3.273605843E-2
9.503859375E0,-2.656903530E-2,1.839126566E-2,3.138025224E-2,4.504300745E-2
9.513858375E0,-3.296375133E-2,2.654900858E-2,1.192013383E-2,4.397213150E-2
9.523856375E0,-4.469339384E-2,2.913614569E-2,-1.053609788E-2,5.438220111E-2
9.533854375E0,-3.622253252E-2,2.940166410E-2,5.408674479E-4,4.665642776E-2
9.543853375E0,-2.839731345E-2,2.284596691E-2,-1.592079878E-2,3.977206870E-2
9.553851375E0,-1.236457704E-2,4.021095486E-2,-4.750511885E-2,6.345502323E-2
9.563850375E0,-1.781573519E-2,3.776594164E-2,-7.909353197E-2,8.943966440E-2
9.573848375E0,-1.897412343E-2,-7.787376624E-3,-7.040515423E-2,7.333175531E-2
9.583846375E0,-1.663914749E-2,-1.565401956E-2,-8.581490636E-2,8.880375956E-2
9.593845375E0,-1.749910846E-2,1.090523992E-2,-8.506704748E-2,8.753025546E-2
9.603843375E0,-8.872437123E-3,2.560097393E-2,-9.195565224E-2,9.586434157E-2
9.613841375E0,-9.873096719E-3,-1.723083090E-3,-7.204822183E-2,7.274196397E-2
9.623840375E0,-1.175120411E-2,-3.032038959E-2,-7.204997599E-2,7.904818697E-2
9.633838375E0,-1.551799871E-2,-2.091382759E-2,-7.414971113E-2,7.858992384E-2
9.643836375E0,-2.161905661E-2,4.569270127E-3,-6.607061327E-2,6.966769535E-2
9.653835375E0,-2.560872149E-2,8.589961790E-3,-5.050532520E-2,5.727461858E-2
9.663833375E0,-2.990313593E-2,-8.275399860E-3,-3.104579151E-2,4.389215137E-2
9.673831375E0,-3.541088417E-2,-1.888394840E-2,-2.415601730E-2,4.684065966E-2
9.683830375E0,-3.237162938E-2,-1.271181028E-2,-2.070849895E-2,4.047659124E-2
9.693828375E0,-2.588953402E-2,1.468071397E-2,-2.534767985E-2,3.909342922E-2
9.703826375E0,-2.567691464E-2,3.101728633E-2,-1.411985636E-2,4.267020436E-2
9.713825375E0,-1.533956727E-2,2.426285690E-2,9.381857514E-3,3.019946687E-2
9.723823375E0,-1.952067364E-2,6.535670478E-3,2.764972866E-2,3.447142560E-2
9.733821375E0,-1.965104828E-2,-2.102110572E-2,4.323372781E-2,5.193463011E-2
9.743820375E0,-2.930584285E-2,4.111634139E-3,2.527751327E-2,3.891902668E-2
9.753818375E0,-2.561462352E-2,4.998037314E-2,-7.507824898E-3,5.666139843E-2
9.763817375E0,-3.495100066E-3,3.761590574E-2,4.314660430E-3,3.802352408E-2
9.773815375E0,-1.681688458E-2,-1.993518641E-2,7.755746841E-3,2.720975695E-2
9.783813375E0,-3.365065299E-2,-1.268674035E-2,-9.611068368E-3,3.722489036E-2
9.793812375E0,-4.029765811E-2,3.611375604E-2,-2.099325836E-2,5.804154995E-2
9.803810375E0,-2.277428370E-2,4.602984807E-2,1.147808433E-3,5.136859328E-2
9.813808375E0,-7.040796820E-3,2.146973334E-2,7.573313713E-3,2.383017730E-2
9.823807375E0,-2.393020514E-2,-1.062945234E-2,-1.110386252E-3,2.620826077E-2
9.833805375E0,-3.076477798E-2,-1.387714209E-2,-2.610781789E-3,3.385059554E-2
9.843803375E0,-1.794356994E-2,2.464840768E-2,-1.189791441E-2,3.272729856E-2
9.853802375E0,-5.422652978E-3,4.006576119E-2,-1.534601748E-2,4.324546956E-2
9.863800375E0,-1.003374897E-2,-6.450922396E-3,-1.160029113E-2,1.663902859E-2
9.873798375E0,-2.311064478E-2,-2.157664603E-2,-2.491615534E-2,4.025504133E-2
9.883797375E0,-2.616519369E-2,6.095046233E-3,-4.557027519E-2,5.290006550E-2
9.893795375E0,-2.656971138E-2,2.525768755E-2,-4.586906791E-2,5.871858082E-2
9.903793375E0,-2.501500983E-2,1.335898742E-2,-4.841436088E-2,5.610849847E-2
9.913792375E0,-2.735652734E-2,-1.639312590E-2,-4.706306934E-2,5.685109199E-2
9.923790375E0,-2.365361357E-2,-2.070742087E-2,-4.376407027E-2,5.388491961E-2
9.933788375E0,-3.664780783E-2,4.175240882E-3,-7.699496627E-2,8.537399654E-2
9.943787375E0,-3.280198446E-2,3.293228600E-2,-1.233996391E-1,1.318634771E-1
9.953785375E0,-2.035307961E-2,1.363194276E-2,-1.226506108E-1,1.250729789E-1
9.963784375E0,-9.687703438E-3,-1.683296442E-2,-1.254911882E-1,1.269851905E-1
9.973782375E0,-1.877403902E-2,2.338652372E-2,-1.447946012E-1,1.478677469E-1
9.983780375E0,-1.766043680E-2,4.167208269E-2,-1.400074857E-1,1.471412572E-1
9.993779375E0,-2.679446373E-2,2.345791457E-2,-1.602166325E-1,1.641267387E-1
1.000377738E1,-1.209065326E-2,4.165117890E-3,-1.367149186E-1,1.373116931E-1
1.001377538E1,-5.113024637E-3,1.478824792E-2,-1.096154130E-1,1.107265734E-1
1.002377438E1,-1.562821873E-2,2.052549938E-2,-1.061673099E-1,1.092567391E-1
1.003377237E1,-2.633127289E-2,2.066168468E-2,-1.046762699E-1,1.098970547E-1
1.004377038E1,-2.656333426E-2,1.216999266E-2,-7.714056194E-2,8.248870071E-2
1.005376937E1,-1.194463732E-2,1.923752222E-3,-4.450783610E-2,4.612290817E-2
1.006376738E1,-2.928318489E-2,-5.214053560E-3,-3.253332317E-2,4.408070313E-2
1.007376538E1,-3.880672775E-2,-3.542608693E-3,-4.002828419E-2,5.586390365E-2
1.008376438E1,-2.145363523E-2,3.753766268E-3,-6.023976982E-2,6.405606211E-2
1.009376238E1,-2.793746648E-2,-1.928157734E-2,-5.814178884E-2,6.732569248E-2
1.010376038E1,-3.204425840E-2,-4.841383098E-2,-4.317116261E-2,7.234972569E-2
1.011375938E1,-2.505285228E-2,-2.821318097E-3,-3.373960376E-2,4.211847700E-2
1.012375737E1,-1.859586339E-2,1.432560526E-2,-1.637337327E-2,2.862021058E-2
1.013375538E1,-1.975235129E-2,1.787238009E-2,7.578576207E-3,2.769498454E-2
1.014375438E1,-3.017506801E-2,-1.037807688E-3,6.088705659E-3,3.080071607E-2
1.015375238E1,-2.775952840E-2,1.414478011E-2,2.315965176E-2,3.882055758E-2
1.016375138E1,-1.711571384E-3,4.188707750E-3,5.669226408E-2,5.687255538E-2
1.017374938E1,-2.335315805E-2,4.892125966E-2,6.387206018E-2,8.377529295E-2
1.018374738E1,-2.698471751E-2,2.704163650E-2,1.021800935E-1,1.090880222E-1
1.019374638E1,-2.765091637E-2,2.351580201E-2,1.247725654E-1,1.299452161E-1
1.020374438E1,-1.819163807E-2,1.606659545E-2,1.500658661E-1,1.520159049E-1
1.021374237E1,-2.324810917E-2,3.250300901E-2,1.323961651E-1,1.382955701E-1
1.022374137E1,-3.527944973E-2,2.286533581E-2,1.403249896E-1,1.464874256E-1
1.023373938E1,-3.439010650E-2,7.177749574E-3,1.684652996E-1,1.720893857E-1
1.024373738E1,-1.631093597E-2,-3.521412537E-3,2.280460882E-1,2.286557791E-1
1.025373638E1,-4.324427107E-2,-2.117240243E-4,2.771398956E-1,2.804935534E-1
1.026373438E1,-7.095086390E-2,1.206518132E-2,2.549754399E-1,2.649378581E-1
1.027373238E1,-3.121941727E-2,-6.567355078E-3,2.837121660E-1,2.855002194E-1
1.028373138E1,-1.277004490E-2,4.520756509E-2,2.902896988E-1,2.940661613E-1
1.029372938E1,-8.172324412E-3,2.390011026E-2,3.019554788E-1,3.030100878E-1
1.030372737E1,-3.559826916E-2,3.288415611E-2,3.227546096E-1,3.263727049E-1
1.031372637E1,-5.127547659E-2,-4.919408709E-3,4.028281349E-1,4.061082138E-1
1.032372438E1,-1.788745495E-2,1.945977123E-2,4.848446900E-1,4.855646374E-1
1.033372338E1,-1.085436914E-2,4.526227310E-2,5.954465282E-1,5.972629728E-1
1.034372138E1,-3.888215683E-2,2.668409754E-2,7.585855991E-1,7.600499814E-1
1.035371938E1,-6.011829391E-2,3.309902301E-2,9.296570027E-1,9.321866215E-1
1.036371838E1,-2.777546206E-2,7.111347131E-2,1.075122864E0,1.077830124E0
1.037371638E1,-3.494420327E-2,1.261632160E-1,1.182564867E0,1.189789023E0
1.038371437E1,-8.525587600E-2,1.417920560E-2,1.291358162E0,1.294247084E0
1.039371338E1,-1.069530478E-1,-1.311912367E-2,1.354794604E0,1.359073024E0
1.040371137E1,-1.020286324E-1,3.814628474E-2,1.426765058E0,1.430917018E0
1.041370938E1,-5.491324872E-2,5.479475124E-2,1.558909208E0,1.560838188E0
1.042370850E1,-3.200305380E-2,1.383777571E-1,1.676529459E0,1.682534881E0
1.043370650E1,-9.090167334E-2,7.383005116E-2,1.793242223E0,1.797061952E0
1.044370450E1,-1.139594922E-1,3.710007168E-2,1.865643616E0,1.869489044E0
1.045370350E1,-9.075569395E-2,2.002114048E-2,1.904215359E0,1.906481989E0
1.046370150E1,-2.701923436E-2,7.004768835E-2,1.919273109E0,1.920740999E0
1.047369950E1,-8.001494352E-3,1.388968802E-1,1.935379849E0,1.940374069E0
1.048369850E1,-3.252064202E-2,1.145587039E-1,1.959116036E0,1.962732007E0
1.049369650E1,-8.101293532E-2,9.347274888E-2,1.967731909E0,1.971615864E0
1.050369550E1,-8.420608152E-2,7.072808499E-2,2.004193976E0,2.007208664E0
1.051369350E1,-5.940977583E-2,5.292631002E-2,2.025393641E0,2.026955874E0
1.052369150E1,-3.645892449E-2,8.749119345E-2,2.048848577E0,2.051039847E0
1.053369050E1,-1.777736284E-2,1.308661132E-1,2.083371708E0,2.087553508E0
1.054368850E1,-4.863430755E-2,1.650383013E-1,2.096936663E0,2.103983438E0
1.055368650E1,-9.991811642E-2,6.466110539E-2,2.121725349E0,2.125060740E0
1.056368550E1,-1.021859590E-1,8.823199913E-2,2.116123132E0,2.120425421E0
1.057368350E1,-1.001046609E-1,9.387783302E-2,2.198544899E0,2.202824020E0
1.058368150E1,-1.024431269E-1,8.174334392E-2,2.343990296E0,2.347651395E0
1.059368050E1,-6.199636476E-2,1.114876549E-1,2.467588155E0,2.470883314E0
1.060367850E1,-5.070168201E-2,1.106759334E-1,2.555409241E0,2.558307295E0
1.061367650E1,-1.136336926E-1,6.408999687E-2,2.590548084E0,2.593831050E0
1.062367550E1,-1.183562329E-1,1.199106786E-2,2.677028403E0,2.679670326E0
1.063367350E1,-1.106911727E-1,8.935327582E-2,2.685382320E0,2.689147588E0
1.064367150E1,-7.051098883E-2,6.450522227E-2,2.711853835E0,2.713537165E0
1.065367050E1,6.164443547E-2,1.406275099E-1,2.757048719E0,2.761321019E0
1.066366850E1,8.926902110E-2,2.121478926E-1,2.766466829E0,2.776024928E0
1.067366750E1,-1.390291735E-1,5.919702854E-2,2.812108440E0,2.816165350E0
1.068366550E1,-2.103290979E-1,8.529130647E-2,2.784252890E0,2.793488337E0
1.069366350E1,-2.309815367E-1,3.530481203E-2,2.769723728E0,2.779562633E0
1.070366250E1,-5.968351688E-2,6.444793783E-2,2.769557667E0,2.770950258E0
1.071366050E1,-4.192221561E-2,1.513065905E-1,2.723136038E0,2.727658526E0
1.072365850E1,-2.145047408E-2,2.066512541E-1,2.640644689E0,2.648805247E0
1.073365750E1,-2.334725602E-2,8.430294430E-2,2.593475785E0,2.594950621E0
1.074365550E1,-1.165601144E-1,5.670792365E-2,2.558437514E0,2.561719064E0
1.075365350E1,-9.677538419E-2,8.316440005E-2,2.490784644E0,2.494050909E0
1.076365250E1,-6.021415170E-2,8.336830342E-2,2.406502878E0,2.408699259E0
1.077365050E1,-2.265065163E-2,1.408383385E-1,2.270872033E0,2.275347947E0
1.078364850E1,-2.202445138E-2,9.030211447E-2,2.189433183E0,2.191405305E0
1.079364750E1,-1.047413750E-1,5.386582967E-2,2.118646790E0,2.121918119E0
1.080364550E1,-8.716362147E-2,2.598033031E-2,2.023767530E0,2.025810330E0
1.081364350E1,-5.607938452E-2,5.864304140E-2,1.878571225E0,1.880322779E0
1.082364250E1,-7.147972628E-2,7.381579857E-2,1.726783939E0,1.729838402E0
1.083364050E1,-6.319871675E-3,9.505394563E-2,1.604956031E0,1.607780786E0
1.084363950E1,-4.717387408E-3,1.276565218E-1,1.520839157E0,1.526194673E0
1.085363750E1,-6.347885320E-2,6.089739885E-2,1.449916524E0,1.452582522E0
1.086363550E1,-6.835851911E-2,-5.871803194E-2,1.413566723E0,1.416436223E0
1.087363450E1,-3.373096084E-2,1.278988706E-1,1.238313975E0,1.245358342E0
1.088363250E1,-5.592655292E-2,6.925241221E-3,1.164561290E0,1.165923984E0
1.089363050E1,-1.813727723E-2,7.138765091E-2,9.824246156E-1,9.851818527E-1
1.090362950E1,3.760647710E-2,1.015511341E-1,7.796425921E-1,7.871273412E-1
1.091362750E1,-1.383661358E-2,-2.562518505E-2,6.172934800E-1,6.179800502E-1
1.092362550E1,-3.974449323E-2,4.540684551E-2,3.938625991E-1,3.984584713E-1
1.093362450E1,-4.729655597E-2,3.378000436E-2,2.469244087E-1,2.536724591E-1
1.094362250E1,-9.043234292E-2,-5.402960652E-2,1.582344264E-1,1.900929791E-1
1.095362050E1,-8.690234229E-2,1.746305672E-2,8.215337992E-4,8.864338872E-2
1.096361950E1,-3.478393475E-2,-3.268189726E-2,-7.469467163E-2,8.864153933E-2
1.097361750E1,-9.849360678E-3,7.026514996E-2,-1.988819307E-1,2.111592375E-1
1.098361550E1,4.389711270E-2,3.164458293E-2,-3.655696768E-1,3.695531419E-1
1.099361450E1,1.068033408E-1,8.750661548E-2,-5.271855479E-1,5.449669378E-1
1.100361250E1,6.976252696E-2,6.885350419E-2,-6.813082123E-1,6.883229586E-1
1.101361150E1,-4.671682281E-2,-2.264288580E-2,-9.546006399E-1,9.560112675E-1
1.102360950E1,-9.914294008E-2,-4.542208482E-2,-1.188394541E0,1.193387646E0
1.103360750E1,-1.321561369E-1,-1.773097432E-1,-1.294213357E0,1.312970755E0
1.104360650E1,-1.045581561E-1,-3.477481674E-2,-1.472790247E0,1.476906499E0
1.105360450E1,-6.816663908E-2,-1.185483870E-1,-1.379546453E0,1.386307623E0
1.106360250E1,2.488458037E-2,-1.069321622E-1,-1.465488244E0,1.469595020E0
1.107360150E1,1.302947672E-1,1.545048712E-1,-1.615628954E0,1.628221545E0
1.108359950E1,8.771011686E-2,-2.211520565E-1,-1.524176747E0,1.542632832E0
1.109359750E1,8.623338427E-2,1.423990883E-1,-1.780460209E0,1.788226007E0
1.110359650E1,-8.928526539E-2,-2.118839273E-1,-1.675371126E0,1.691075122E0
1.111359450E1,3.313894853E-2,-1.408270278E-1,-1.746782586E0,1.752763488E0
1.112359250E1,-4.965638258E-2,-1.107009851E-1,-1.778028937E0,1.782163675E0
1.113359150E1,-4.585492495E-2,-1.867765315E-1,-1.750768633E0,1.761300358E0
1.114358950E1,1.148862393E-1,8.724794928E-2,-1.843251704E0,1.848888287E0
1.115358750E1,2.841920396E-2,-2.176858453E-1,-1.747565528E0,1.761300671E0
1.116358650E1,1.523040889E-1,1.106344182E-1,-1.972825418E0,1.981786225E0
1.117358450E1,5.888803974E-3,-2.037360699E-1,-1.938652536E0,1.949337508E0
1.118358350E1,1.658111388E-2,-1.744626425E-2,-2.074271101E0,2.074410737E0
1.119358150E1,-3.544757545E-2,-9.533245582E-3,-2.180814387E0,2.181123290E0
1.120357950E1,-5.880652590E-2,-2.013862566E-1,-2.222744186E0,2.232623199E0
1.121357850E1,5.237407705E-2,1.228466753E-1,-2.485934964E0,2.489519430E0
1.122357650E1,7.931532416E-2,-1.053820105E-1,-2.482648244E0,2.486149350E0
1.123357450E1,1.407240438E-1,1.749925464E-2,-2.647349691E0,2.651145010E0
1.124357350E1,6.486714665E-2,2.394144824E-1,-2.883923358E0,2.894570949E0
1.125357150E1,-7.487818284E-2,-3.581502179E-1,-2.886537064E0,2.909634778E0
1.126356950E1,-2.215199377E-2,2.652109178E-1,-3.191393346E0,3.202470770E0
1.127356850E1,-2.408225102E-2,-3.453228886E-1,-3.038926029E0,3.058577980E0
1.128356650E1,4.636527725E-2,9.071057903E-2,-3.303656378E0,3.305226712E0
1.129356450E1,9.407292902E-2,-1.745956119E-1,-3.386344194E0,3.392146863E0
1.130356350E1,1.125181170E-1,-8.098393679E-2,-3.694610572E0,3.697210571E0
1.131356150E1,1.221474031E-1,-2.047762530E-2,-3.976081501E0,3.978009983E0
1.132355950E1,7.668374822E-2,-2.192582347E-1,-4.254242320E0,4.260578868E0
1.133355850E1,2.800779752E-2,-1.455188885E-1,-4.550203233E0,4.552615693E0
1.134355650E1,-2.026491456E-2,-2.568585905E-1,-4.893922450E0,4.900700353E0
1.135355550E1,7.533583710E-2,-8.449709013E-2,-5.207705092E0,5.208935359E0
1.136355350E1,5.092588618E-2,-2.138202145E-1,-5.508022181E0,5.512406088E0
1.137355150E1,1.340356696E-1,-8.205357525E-2,-5.775545161E0,5.777682949E0
1.138355050E1,9.523044018E-2,-3.449632848E-1,-5.862832396E0,5.873744309E0
1.139354850E1,1.853620900E-1,-8.864612818E-2,-6.103552324E0,6.107009760E0
1.140354650E1,1.100913946E-1,-2.624990523E-1,-6.135599159E0,6.142198540E0
1.141354550E1,1.310341476E-1,-1.737552756E-1,-6.242197993E0,6.245990444E0
1.142354304E1,1.230864842E-1,-1.826489089E-1,-6.167355972E0,6.171287596E0
1.143354104E1,9.132323932E-2,-2.845623511E-1,-6.050294130E0,6.057670734E0
1.144354004E1,4.225271121E-2,-3.119319250E-1,-5.923944570E0,5.932301922E0
1.145353804E1,-1.190140447E-2,-2.169689036E-1,-5.674093630E0,5.678252872E0
1.146353604E1,1.518542005E-2,-3.275618248E-1,-5.383370653E0,5.393348397E0
1.147353504E1,6.117338743E-3,-1.869286687E-1,-5.180820179E0,5.184194969E0
1.148353304E1,4.050057476E-2,-2.193692770E-1,-4.918998234E0,4.924053899E0
1.149353204E1,4.178107845E-2,-2.128698775E-1,-4.678701645E0,4.683728037E0
1.150353004E1,1.485779690E-1,-2.285927481E-1,-4.442311580E0,4.450669863E0
1.151352804E1,1.099550265E-1,-2.469502643E-1,-4.322490436E0,4.330935016E0
1.152352704E1,2.876671130E-2,-2.183382119E-1,-4.038478308E0,4.044478476E0
1.153352504E1,4.737666283E-2,-1.325529436E-1,-3.806253215E0,3.808855257E0
1.154352304E1,1.390440473E-2,-1.399617861E-1,-3.561896319E0,3.564672218E0
1.155352204E1,-3.810500706E-2,-1.066249276E-1,-3.230133489E0,3.232117452E0
1.156352004E1,-2.460696554E-2,-1.221528666E-1,-2.935317460E0,2.937961099E0
1.157351804E1,3.822337663E-2,-1.874346904E-1,-2.630650628E0,2.637596541E0
1.158351704E1,-4.940847890E-2,7.463978089E-2,-2.536315743E0,2.537894766E0
1.159351504E1,6.551715603E-2,1.758866223E-2,-2.187820521E0,2.188871968E0
1.160351304E1,1.334441324E-1,1.225412313E-1,-1.967903232E0,1.976225397E0
1.161351204E1,1.835027668E-1,1.585721579E-1,-1.708788548E0,1.725913294E0
1.162351004E1,6.216151206E-2,1.931928640E-1,-1.554010411E0,1.567206398E0
1.163350904E1,9.332581932E-2,4.665692540E-2,-1.340850749E0,1.344904200E0
1.164350704E1,-2.961033661E-2,-4.089010896E-2,-1.197893343E0,1.198956727E0
1.165350504E1,-4.899104252E-2,9.913771413E-4,-1.184862238E0,1.185875048E0
1.166350404E1,-1.076021252E-1,-1.728404787E-1,-9.417437822E-1,9.635005966E-1
1.167350204E1,-1.060971616E-1,-4.803129517E-2,-6.936832595E-1,7.033918378E-1
1.168350004E1,-6.424847469E-3,-3.163654301E-2,-5.616022593E-1,5.625293300E-1
1.169349904E1,-1.460166693E-2,-7.844750600E-2,-4.548110515E-1,4.617578504E-1
1.170349704E1,6.261923941E-2,8.793925462E-2,-4.229682845E-1,4.365279502E-1
1.171349504E1,8.529918194E-2,-1.266486445E-1,-2.855674875E-1,3.238280709E-1
1.172349404E1,3.167063959E-2,7.524589961E-2,-2.826918268E-1,2.942441907E-1
1.173349204E1,-6.321117863E-2,-2.660668588E-1,-4.884647012E-2,2.778006553E-1
1.174349004E1,-1.686370433E-1,1.192153351E-1,-1.822296453E-1,2.754240224E-1
1.175348904E1,-6.275690845E-1,-7.350067750E-1,7.003093243E-2,9.690109631E-1
1.176348704E1,-3.921675279E-1,9.793407210E-1,-3.881498694E-2,1.055656299E0
1.177348504E1,5.069350322E-1,1.322570160E0,-1.237153888E-1,1.421787766E0
1.178348404E1,1.359549706E0,-9.092744129E-1,9.441493267E-1,1.888537347E0
1.179348204E1,-8.821956649E-1,-5.318625530E-2,3.435683584E-1,9.482284460E-1
1.180348104E1,-3.269655550E-1,-4.449254929E-1,5.728224814E-1,7.956071666E-1
1.181347904E1,1.669194420E-1,-4.436414809E-1,7.999464637E-1,9.298355814E-1
1.182347704E1,6.287724414E-1,5.379996809E-1,5.651825094E-1,1.002112623E0
1.183347604E1,7.270077109E-2,5.821243782E-1,3.090575069E-1,6.630767199E-1
1.184347404E1,-4.916470117E-1,-6.500248776E-1,5.217271721E-1,9.677026237E-1
1.185347204E1,-2.340363231E-1,-5.225393138E-1,7.766353691E-1,9.648745159E-1
1.186347104E1,3.911734281E-1,5.926805028E-1,9.511437660E-1,1.186996754E0
1.187346904E1,6.665496938E-2,2.960040182E-1,1.012983919E0,1.057448667E0
1.188346704E1,-5.320538301E-1,-5.538671239E-1,1.031377505E0,1.285919759E0
1.189346604E1,-3.093314124E-1,-2.988786008E-3,8.821419436E-1,9.348097476E-1
1.190346404E1,3.644256690E-1,3.462836226E-1,1.345010458E0,1.435887025E0
1.191346204E1,-1.392465072E-1,2.074512628E-1,1.247119297E0,1.271901002E0
1.192346104E1,-5.370221361E-1,-1.723539356E-1,1.127514501E0,1.260709167E0
1.193345904E1,-1.436532430E-1,2.896966450E-3,1.305340608E0,1.313224562E0
1.194345804E1,2.637335822E-1,6.165695947E-1,1.457239577E0,1.604138601E0
1.195345604E1,-3.327055839E-1,2.617049273E-2,1.361692564E0,1.401993060E0
1.196345404E1,-5.146589117E-1,-7.064070566E-2,1.203600225E0,1.310922350E0
1.197345304E1,1.996585689E-1,2.574894503E-2,1.553565438E0,1.566554219E0
1.198345104E1,1.248439562E-1,2.413843180E-1,1.714172080E0,1.735580111E0
1.199344904E1,-1.738251864E-1,2.923694804E-1,1.649618819E0,1.684321037E0
1.200344804E1,-1.605548939E-1,-1.336978832E-1,1.629306176E0,1.642647745E0
1.201344604E1,6.962849781E-2,-1.395871988E-1,1.881869640E0,1.888323610E0
1.202344404E1,-1.906095458E-1,1.237415551E-1,1.792242349E0,1.806592541E0
1.203344304E1,1.096702306E-1,2.137945964E-1,1.598570287E0,1.616527962E0
1.204344104E1,2.545753259E-1,1.410714415E-1,1.753370644E0,1.777362755E0
1.205343904E1,-2.373784819E-1,3.712824795E-2,1.809351887E0,1.825234588E0
1.206343804E1,-1.224167405E-1,-6.131607777E-2,1.574509580E0,1.580451181E0
1.207343604E1,2.308091717E-1,1.052478169E-1,1.478432225E0,1.500037273E0
1.208343404E1,8.570205510E-2,1.962962006E-1,1.596844189E0,1.611145060E0
1.209343304E1,-9.687990317E-2,8.695242735E-2,1.453768085E0,1.459584901E0
1.210343104E1,-5.875075808E-2,-1.373614562E-1,1.259932886E0,1.268759511E0
1.211343004E1,-4.222923098E-2,1.956262741E-2,1.365766904E0,1.366559637E0
1.212342804E1,6.998923447E-2,1.436941004E-1,1.513778644E0,1.522193243E0
1.213342604E1,-6.632277444E-2,1.810507918E-1,1.261697575E0,1.276345906E0
1.214342504E1,-1.638861806E-1,-1.247439688E-1,1.288461451E0,1.304819010E0
1.215342304E1,-2.871889935E-1,-6.146697247E-2,1.182200001E0,1.218134865E0
1.216342104E1,2.478925249E-2,1.242773245E-1,1.215857744E0,1.222444033E0
1.217342004E1,-2.395805251E-2,1.190321893E-1,1.271239647E0,1.277025015E0
1.218341804E1,-2.228973590E-1,-6.083070405E-2,1.157942827E0,1.180768901E0
1.219341604E1,-1.708041493E-1,-1.138714916E-1,1.174560614E0,1.192364629E0
1.220341504E1,-2.393946384E-1,6.418830318E-2,9.733836508E-1,1.004442961E0
1.221341304E1,-1.092423423E-1,8.303704038E-2,9.361058968E-1,9.461095547E-1
1.222341104E1,-5.595507637E-2,1.079860680E-1,9.648396993E-1,9.724749903E-1
1.223341004E1,-6.943502806E-2,9.260474799E-2,9.377413630E-1,9.448575165E-1
1.224340804E1,-9.579478785E-2,-5.512515547E-2,1.117801691E0,1.123252441E0
1.225340704E1,-9.315270519E-2,6.916357107E-2,1.147568112E0,1.153418223E0
1.226340504E1,1.776152054E-2,1.922899077E-1,1.105015585E0,1.121762151E0
1.227340304E1,-2.130791165E-2,9.092557384E-2,1.159311075E0,1.163066488E0
1.228340204E1,3.275937287E-2,7.044875253E-2,1.214664327E0,1.217146511E0
1.229340004E1,4.201081920E-2,-4.767673463E-3,1.212247673E0,1.212984773E0
1.230339804E1,-3.594303561E-2,-3.070199350E-2,1.140974792E0,1.141953585E0
1.231339704E1,1.789534869E-2,4.392543515E-2,1.090368894E0,1.091400024E0
1.232339504E1,3.335045328E-2,7.817533638E-2,9.839302737E-1,9.875942585E-1
1.233339304E1,1.201429227E-2,4.202373790E-2,9.051904982E-1,9.062450970E-1
1.234339204E1,-3.955398364E-2,3.749485010E-2,8.739008778E-1,8.755987241E-1
1.235339004E1,-9.428489059E-3,-6.669882350E-3,9.054939687E-1,9.055676182E-1
1.236338904E1,-6.931055546E-2,5.182770956E-3,9.020727628E-1,9.047464195E-1
1.237338704E1,-3.340165297E-2,5.900651895E-2,9.339763409E-1,9.364343250E-1
1.238338504E1,-6.398118384E-2,1.561135682E-1,8.829476899E-1,8.989225001E-1
1.239338404E1,-8.412617566E-2,1.175536295E-1,8.036319637E-1,8.165294865E-1
1.240338204E1,-5.456506530E-2,-2.032126710E-3,8.132289988E-1,8.150600471E-1
1.241338004E1,-1.353002761E-1,4.826838149E-2,7.949734068E-1,8.078482029E-1
1.242337904E1,-1.238070256E-1,6.868693164E-2,8.452740794E-1,8.570497906E-1
1.243337738E1,-8.676928159E-2,1.955406672E-1,7.328654516E-1,7.634506080E-1
1.244337538E1,-7.208968224E-2,-5.443675546E-2,6.634221643E-1,6.695440618E-1
1.245337438E1,-1.593774109E-1,-6.715349933E-2,5.523759377E-1,5.788176985E-1
1.246337238E1,-3.982891241E-2,1.183462378E-1,5.386180240E-1,5.529028396E-1
1.247337037E1,-6.106886845E-2,5.452757003E-2,4.941663212E-1,5.009022016E-1
1.248336937E1,-5.016900066E-2,1.078911787E-2,4.375886625E-1,4.405873026E-1
1.249336738E1,-3.132059237E-2,1.102368258E-2,4.348925114E-1,4.361582253E-1
1.250336638E1,-9.855902251E-2,2.832372990E-3,3.211279142E-1,3.359241589E-1
1.251336438E1,2.953008357E-3,9.853654727E-4,3.567485672E-1,3.567621496E-1
1.252336238E1,3.067381723E-2,7.150877964E-2,3.374317056E-1,3.462867953E-1
1.253336138E1,3.873219403E-2,-2.534842903E-2,3.740972561E-1,3.769502390E-1
1.254335938E1,-4.149032565E-2,-6.163259486E-2,3.682652432E-1,3.756851251E-1
1.255335737E1,1.369971564E-2,-4.039717041E-2,3.546540946E-1,3.572102188E-1
1.256335638E1,-1.243494462E-2,1.343830856E-2,2.567687809E-1,2.574207118E-1
1.257335437E1,2.099919694E-2,-5.570075903E-3,2.693478960E-1,2.702226509E-1
1.258335238E1,-1.239726663E-2,1.174354792E-2,2.442124701E-1,2.448087696E-1
1.259335138E1,-2.466852576E-2,-5.642490014E-2,3.150251752E-1,3.209877981E-1
1.260334938E1,-7.699279184E-2,-4.350613497E-2,3.252168721E-1,3.370262418E-1
1.261334738E1,-2.276525706E-2,1.340223854E-2,3.279188704E-1,3.289812495E-1
1.262334638E1,-2.224571368E-2,1.126290314E-1,2.610097665E-1,2.851425410E-1
1.263334438E1,-4.533633174E-2,4.380136454E-2,2.119019258E-1,2.210800051E-1
1.264334338E1,-8.883005966E-2,2.746713107E-2,1.675765228E-1,1.916431940E-1
1.265334138E1,-5.468873391E-2,3.043470265E-2,1.711468327E-1,1.822316303E-1
1.266333937E1,-5.624694379E-2,9.293336151E-2,1.495565736E-1,1.848445214E-1
1.267333837E1,-2.329262109E-2,1.436293425E-1,1.251046872E-1,1.918935043E-1
1.268333638E1,-4.779071879E-2,8.671793573E-2,1.175647026E-1,1.537056033E-1
1.269333438E1,-5.488759406E-2,-3.802663609E-3,1.184143031E-1,1.305720315E-1
1.270333338E1,-2.404364113E-2,2.027839970E-2,1.087932944E-1,1.132488017E-1
1.271333138E1,-1.437426506E-2,3.346748896E-2,9.947751045E-2,1.059361477E-1
1.272332938E1,-1.640739676E-2,2.715191133E-3,8.942497730E-2,9.095824040E-2
1.273332838E1,7.391794212E-3,4.487845821E-2,6.920355141E-2,8.281211361E-2
1.274332637E1,-5.453330761E-2,-9.572378073E-2,6.726344526E-2,1.290786384E-1
1.275332538E1,-7.858486075E-2,-1.157962305E-1,2.881800234E-2,1.428804556E-1
1.276332337E1,9.082918614E-3,-3.559700835E-2,2.795729220E-2,4.616553478E-2
1.277332138E1,2.608265659E-2,2.176722871E-2,4.356760383E-2,5.524720195E-2
1.278332038E1,-2.023772500E-2,6.735261530E-5,8.761643350E-2,8.992335330E-2
1.279331838E1,-6.700236708E-2,4.734806629E-2,1.147434211E-1,1.410574679E-1
1.280331638E1,-3.546593936E-2,2.848034391E-2,1.521872360E-1,1.588392824E-1
1.281331538E1,-1.815618932E-2,3.219237568E-2,1.507172459E-1,1.551827454E-1
1.282331338E1,1.360948579E-2,4.477655221E-2,1.413032287E-1,1.488514702E-1
1.283331137E1,-7.466806680E-2,3.452342302E-2,8.368710458E-2,1.173487043E-1
1.284331037E1,-8.055453189E-2,1.400917953E-2,1.037483168E-1,1.320946742E-1
1.285330838E1,-3.014753127E-2,9.722309818E-2,9.684977174E-2,1.405029635E-1
1.286330638E1,-3.429194637E-2,8.389331030E-2,9.803734124E-2,1.335115927E-1
1.287330538E1,-6.590484470E-2,-1.108865976E-2,1.227330565E-1,1.397490970E-1
1.288330338E1,-3.941834651E-2,-8.794395067E-3,1.793025291E-1,1.837948431E-1
1.289330138E1,-8.510295304E-2,6.356763951E-3,1.692681223E-1,1.895642854E-1
1.290330038E1,-5.702738263E-2,-4.728138976E-2,1.921675730E-1,2.059515193E-1
1.291329838E1,-3.071712317E-2,3.174802383E-2,1.532479209E-1,1.594879429E-1
1.292329738E1,3.571534138E-3,3.769730994E-2,1.328879160E-1,1.381775714E-1
1.293329537E1,-3.693092270E-2,-2.078029180E-2,7.062910259E-2,8.236615634E-2
1.294329338E1,-1.992193881E-2,-7.749550620E-2,4.924174190E-2,9.395310677E-2
1.295329237E1,-9.771629255E-3,-3.771072200E-2,4.148073256E-2,5.690548713E-2
1.296329038E1,1.286217509E-2,2.282716446E-3,6.874688387E-2,6.997699896E-2
1.297328838E1,-1.983890835E-2,9.679151885E-3,6.097944260E-2,6.485183641E-2
1.298328738E1,-2.443586139E-2,-5.722176600E-3,9.556630790E-2,9.880674994E-2
1.299328538E1,-2.516473509E-2,2.221147092E-2,9.946464658E-2,1.049753745E-1
1.300328338E1,1.397100817E-3,7.419049546E-2,1.255110687E-1,1.458053836E-1
1.301328238E1,-1.550608501E-4,7.041107453E-2,1.278932244E-1,1.459945900E-1
1.302328037E1,-3.687860839E-2,5.088543076E-2,1.146978128E-1,1.307858826E-1
1.303327937E1,-5.264710547E-2,2.951062331E-2,1.098785377E-1,1.253630234E-1
1.304327738E1,-6.105929364E-2,2.791742150E-2,1.275166637E-1,1.441114821E-1
1.305327538E1,-4.397650693E-2,2.325587500E-2,1.334773153E-1,1.424463498E-1
1.306327438E1,-2.513471330E-2,3.443810849E-2,1.394344586E-1,1.458070827E-1
1.307327238E1,-4.384545621E-2,3.340295032E-2,1.314775676E-1,1.425641325E-1
1.308327038E1,-6.014807817E-2,5.522183552E-3,1.176845706E-1,1.322797942E-1
1.309326938E1,-6.459272951E-2,-1.110695058E-2,1.145270741E-1,1.319546731E-1
1.310326738E1,-4.358143615E-2,-8.863922115E-3,1.005931592E-1,1.099858826E-1
1.311326537E1,-2.223873356E-2,-1.520778565E-2,9.536107063E-2,9.909375261E-2
1.312326437E1,-2.280172907E-2,-2.494941138E-2,7.711541891E-2,8.419726724E-2
1.313326238E1,-3.265841704E-2,-1.550769299E-2,3.566743076E-2,5.078608434E-2
1.314326138E1,-4.129108177E-2,6.399046630E-4,-8.769654036E-3,4.221693670E-2
1.315325938E1,-2.389139425E-2,1.242255583E-2,-2.641947448E-2,3.772409369E-2
1.316325738E1,7.935767993E-5,3.458227890E-2,-2.071551561E-2,4.031219293E-2
1.317325638E1,-1.658950098E-2,3.332163747E-2,-7.224234939E-3,3.791744502E-2
1.318325438E1,-3.046600353E-2,2.192651052E-2,2.451912940E-2,4.483455075E-2
1.319325238E1,-4.390707124E-2,2.158640357E-2,3.515696883E-2,6.024795583E-2
1.320325138E1,-2.010713110E-2,3.793054076E-2,3.950846672E-2,5.834330798E-2
1.321324937E1,-2.407516127E-2,7.261973234E-2,-5.545499325E-3,7.670718010E-2
1.322324738E1,-3.421770500E-2,2.814882506E-2,-3.338292360E-2,5.547636682E-2
1.323324638E1,-3.972894330E-2,-5.531831458E-3,-2.304270744E-2,4.625966343E-2
1.324324438E1,-4.596198382E-2,-1.088342249E-2,1.692885876E-2,5.017508446E-2
1.325324238E1,-4.427177304E-2,1.930690309E-2,5.481413841E-2,7.305707471E-2
1.326324138E1,-3.052023645E-2,1.193944791E-2,1.163484818E-1,1.208759879E-1
1.327323938E1,-4.831972735E-2,1.873469822E-2,1.284802848E-1,1.385386897E-1
1.328323838E1,-3.136243651E-2,1.513047449E-2,1.624648869E-1,1.661546664E-1
1.329323638E1,-3.067071090E-2,-2.771324404E-3,1.825284380E-1,1.851080858E-1
1.330323437E1,-3.338743692E-2,-1.196851954E-5,1.977990264E-1,2.005970486E-1
1.331323337E1,-1.925371170E-2,2.673027227E-2,2.051290959E-1,2.077574520E-1
1.332323138E1,-1.939300334E-2,4.897964045E-2,2.289167386E-1,2.348999084E-1
1.333322938E1,-5.019434469E-2,2.766061909E-2,1.923804116E-1,2.007356592E-1
1.334322838E1,-3.127818178E-2,-3.724873714E-2,2.384781057E-1,2.433877564E-1
1.335322638E1,-3.404431678E-2,-4.443299174E-3,2.603268117E-1,2.625810490E-1
1.336322438E1,-1.688736180E-2,-7.480196804E-3,3.146608937E-1,3.152024974E-1
1.337322338E1,-3.701609105E-2,2.508137573E-2,3.333649671E-1,3.363502158E-1
1.338322137E1,-5.053172903E-2,5.307755191E-3,3.897941065E-1,3.930916857E-1
1.339322038E1,-4.783808123E-2,8.004308324E-3,5.006999999E-1,5.030437763E-1
1.340321837E1,-5.588123700E-2,3.577023212E-2,6.093716723E-1,6.129731292E-1
1.341321638E1,-3.693726327E-2,-1.920097712E-2,7.512707323E-1,7.524232533E-1
1.342321538E1,-6.106450131E-2,4.662085539E-2,8.234084165E-1,8.269847628E-1
1.343321325E1,-6.383017950E-2,6.239821466E-2,9.157470614E-1,9.200872292E-1
1.344321125E1,-6.840067388E-2,9.613564398E-2,9.823211199E-1,9.893813708E-1
1.345321025E1,-6.024760874E-2,9.611457573E-2,1.076432641E0,1.082393189E0
1.346320825E1,-6.290425463E-2,8.251835581E-2,1.184303244E0,1.188839938E0
1.347320625E1,-7.030140270E-2,7.606114766E-2,1.323599709E0,1.327645952E0
1.348320525E1,-7.145218955E-2,8.533791974E-2,1.497759612E0,1.501889420E0
1.349320325E1,-8.418775415E-2,8.343183707E-2,1.662779147E0,1.666998183E0
1.350320225E1,-7.654420076E-2,7.875189012E-2,1.846657122E0,1.849919837E0
1.351320025E1,-9.515592473E-2,1.070039368E-1,1.968713071E0,1.973913790E0
1.352319825E1,-5.658049090E-2,5.756148923E-2,2.168758013E0,2.170259431E0
1.353319725E1,-3.514790565E-2,1.189996459E-1,2.301293927E0,2.304636637E0
1.354319525E1,-1.138759135E-1,5.186628291E-2,2.402111619E0,2.405368592E0
1.355319325E1,-9.869546363E-2,2.080231022E-2,2.488715900E0,2.490758993E0
1.356319225E1,-7.871326195E-2,6.161244024E-2,2.516051633E0,2.518036475E0
1.357319025E1,-9.864857627E-2,5.398768930E-2,2.580357556E0,2.582806871E0
1.358318825E1,-7.122257670E-2,1.194200607E-1,2.621923074E0,2.625607436E0
1.359318725E1,-4.067911584E-2,8.043853775E-2,2.770071638E0,2.771537845E0
1.360318525E1,-1.369087904E-1,1.025034811E-1,2.800716310E0,2.805933504E0
1.361318425E1,-1.018417956E-1,7.784960993E-2,2.947815884E0,2.950601769E0
1.362318225E1,-1.167888137E-1,2.002530662E-1,2.953302911E0,2.962387382E0
1.363318025E1,-7.888502391E-2,1.368392633E-1,3.043975684E0,3.048070832E0
1.364317925E1,-3.585417621E-2,1.406999240E-1,3.015347716E0,3.018841473E0
1.365317725E1,-7.897826873E-2,2.176154412E-1,2.953926809E0,2.962984583E0
1.366317525E1,-1.353476934E-1,1.727936462E-1,2.907920916E0,2.916192843E0
1.367317425E1,-1.327258750E-1,5.355400862E-2,2.940365362E0,2.943846574E0
1.368317225E1,-1.004494091E-1,8.635279538E-2,3.012478487E0,3.015389449E0
1.369317025E1,-5.900909537E-2,1.581853646E-1,3.059452094E0,3.064107015E0
1.370316925E1,3.772184998E-2,1.667693695E-1,3.114819379E0,3.119508732E0
1.371316725E1,-6.759015843E-5,2.438518248E-1,3.078577752E0,3.088220312E0
1.372316625E1,-8.876352930E-2,2.154075874E-1,3.034247087E0,3.043178400E0
1.373316425E1,-1.173027291E-1,6.202781182E-2,2.983058222E0,2.986007993E0
1.374316225E1,-1.368267101E-1,6.837039627E-4,2.908212107E0,2.911429147E0
1.375316125E1,-1.803639266E-1,-1.588500286E-2,2.819472424E0,2.825280203E0
1.376315925E1,-2.295990904E-1,-1.043803460E-1,2.807087436E0,2.818395088E0
1.377315725E1,-1.399867099E-1,2.885613715E-2,2.707006493E0,2.710777215E0
1.378315625E1,-1.195627693E-2,3.867472686E-2,2.628048032E0,2.628359782E0
1.379315425E1,2.277853572E-1,3.294877150E-1,2.504631436E0,2.536459531E0
1.380315225E1,3.221110504E-2,2.676911971E-1,2.402924967E0,2.418004245E0
1.381315125E1,-1.241963771E-1,-4.337444471E-2,2.341629775E0,2.345322171E0
1.382314925E1,-2.560905039E-1,3.863938775E-2,2.240664732E0,2.255582805E0
1.383314825E1,-2.292468140E-1,-8.187289629E-2,2.176399155E0,2.189970446E0
1.384314625E1,-1.683157571E-3,4.779177859E-2,2.102384514E0,2.102928323E0
1.385314425E1,8.649575980E-2,3.432952204E-1,1.953831323E0,1.985645981E0
1.386314325E1,-8.639869602E-2,1.184898966E-1,1.874972849E0,1.880698746E0
1.387314125E1,-1.297445625E-1,2.756547393E-1,1.622612869E0,1.650966901E0
1.388313925E1,-1.611495557E-1,-3.868788309E-2,1.558102292E0,1.566891408E0
1.389313825E1,-1.025199995E-1,-2.635817008E-2,1.365919517E0,1.370015047E0
1.390313625E1,7.677085346E-2,2.542925034E-1,1.282272758E0,1.309496799E0
1.391313425E1,-4.117684180E-2,-9.842493854E-2,1.239335484E0,1.243919387E0
1.392313325E1,-1.448249336E-1,9.980553925E-2,9.781175566E-1,9.938054948E-1
1.393313125E1,-1.089199780E-1,1.361041587E-1,7.847185600E-1,8.038476983E-1
1.394313025E1,-1.793123597E-2,-3.466421301E-2,6.637513626E-1,6.648977427E-1
1.395312825E1,8.370283725E-2,2.748447172E-1,4.241090763E-1,5.122638891E-1
1.396312625E1,6.945730230E-2,-1.678931678E-1,4.334026408E-1,4.699471052E-1
1.397312525E1,-8.005963817E-2,-5.730870679E-2,1.355489838E-1,1.675331625E-1
1.398312325E1,-1.344536176E-1,-1.407624709E-1,3.395068824E-2,1.975968060E-1
1.399312125E1,-7.166053316E-2,-1.814304953E-1,-1.556663293E-1,2.495681524E-1
1.400312025E1,1.725917162E-2,1.161754956E-1,-4.066551375E-1,4.232765357E-1
1.401311825E1,1.327898655E-1,-7.064087011E-2,-5.148297966E-1,5.363515641E-1
1.402311625E1,6.145944418E-2,8.835321922E-2,-7.993243200E-1,8.065376142E-1
1.403311525E1,4.512881041E-3,-1.005617304E-1,-8.869787604E-1,8.926725878E-1
1.404311325E1,-6.074049247E-2,-1.299745590E-1,-1.056234019E0,1.065932970E0
1.405311225E1,-4.258090446E-2,1.112935273E-2,-1.250031796E0,1.250806334E0
1.406311025E1,8.766037898E-2,-8.330126144E-2,-1.390082551E0,1.395332555E0
1.407310825E1,6.142828949E-2,9.407420810E-2,-1.685690877E0,1.689431006E0
1.408310725E1,2.857994758E-2,9.571563117E-2,-1.935659346E0,1.938235125E0
1.409310525E1,-4.804021217E-2,-8.857742339E-2,-2.145964397E0,2.148328889E0
1.410310325E1,-2.914654277E-4,-5.916302333E-2,-2.344476784E0,2.345223175E0
1.411310225E1,2.535100546E-2,3.794482989E-2,-2.620971147E0,2.621368390E0
1.412310025E1,8.321176250E-2,-1.081875594E-1,-2.797482215E0,2.800809792E0
1.413309825E1,5.801609198E-2,1.744736061E-3,-3.117124352E0,3.117664693E0
1.414309725E1,-3.573803589E-2,-2.839519383E-2,-3.370167872E0,3.370476966E0
1.415309525E1,-6.006186828E-4,-1.276241611E-1,-3.479082204E0,3.481422305E0
1.416309425E1,4.986458000E-2,-3.351638630E-2,-3.652045766E0,3.652539952E0
1.417309225E1,6.784904391E-2,-1.779546545E-1,-3.763632860E0,3.768448442E0
1.418309025E1,1.426300716E-1,-4.216050792E-2,-4.035555285E0,4.038295099E0
1.419308925E1,3.382870071E-3,-2.647207384E-1,-4.225274629E0,4.233560464E0
1.420308725E1,8.224309813E-2,-2.124651406E-1,-4.503460591E0,4.509219740E0
1.421308525E1,-5.492856111E-3,-2.402125177E-1,-4.693166487E0,4.699313130E0
1.422308425E1,9.980301764E-2,-1.619416525E-1,-4.910568888E0,4.914251982E0
1.423308225E1,9.197421715E-2,-1.728537811E-1,-5.054605690E0,5.058396620E0
1.424308125E1,1.528431291E-1,-1.698773291E-1,-5.248789968E0,5.253762029E0
1.425307925E1,1.016667811E-1,-2.276186750E-1,-5.511058640E0,5.516694094E0
1.426307725E1,9.684359562E-2,-2.264624795E-1,-5.708836616E0,5.714147307E0
1.427307625E1,1.061170238E-1,-1.119401380E-1,-5.939525061E0,5.941527528E0
1.428307425E1,7.391295372E-2,-2.802056821E-1,-6.008708732E0,6.015692726E0
1.429307225E1,8.351146884E-2,-1.289326766E-1,-6.231022210E0,6.232915496E0
1.430307125E1,9.807315543E-2,-2.664193180E-1,-6.314570736E0,6.320949389E0
1.431306925E1,7.007427491E-2,-1.141301943E-1,-6.510699797E0,6.512077085E0
1.432306725E1,9.069917696E-2,-1.382677381E-1,-6.567469245E0,6.569550714E0
1.433306625E1,1.224215279E-1,-2.306629730E-1,-6.556885784E0,6.562083787E0
1.434306425E1,1.020785164E-1,-4.791164652E-2,-6.598997431E0,6.599960807E0
1.435306325E1,1.038764073E-1,-1.909427457E-1,-6.465984385E0,6.469637046E0
1.436306125E1,7.345703535E-2,-1.735473705E-1,-6.347188843E0,6.349985893E0
1.437305925E1,7.181577673E-2,-2.443081268E-1,-6.111624990E0,6.116927659E0
1.438305825E1,1.598708245E-1,-3.521459680E-1,-5.856878176E0,5.869632649E0
1.439305625E1,9.330158992E-2,-2.920379432E-1,-5.663644071E0,5.671935782E0
1.440305425E1,8.861729410E-3,-1.764070975E-1,-5.450668012E0,5.453529112E0
1.441305325E1,2.415641930E-2,-1.531218037E-1,-5.270770821E0,5.273049864E0
1.442305125E1,1.118146787E-1,-3.319588214E-1,-5.004341270E0,5.016585565E0
1.443304979E1,6.804735588E-2,-1.482264234E-1,-4.795525505E0,4.798298280E0
1.444304779E1,9.904585803E-2,-1.227291279E-1,-4.540590996E0,4.543329078E0
1.445304579E1,8.445064131E-2,-1.424166665E-1,-4.190763193E0,4.194032732E0
1.446304479E1,5.716082705E-2,-9.941978747E-2,-3.884785414E0,3.886477759E0
1.447304279E1,2.351645982E-2,-1.489479333E-1,-3.537783571E0,3.540995779E0
1.448304079E1,-2.961241968E-2,-2.265760251E-1,-3.202446338E0,3.210588130E0
1.449303979E1,-2.391904062E-2,-2.748574897E-1,-2.877575621E0,2.890771560E0
1.450303779E1,-3.682792034E-2,-1.975929486E-1,-2.573959533E0,2.581795295E0
1.451303579E1,-8.572215490E-2,2.527276240E-3,-2.332192369E0,2.333768609E0
1.452303479E1,-1.037893021E-1,1.121172538E-1,-2.172172787E0,2.177539234E0
1.453303279E1,-7.388178988E-2,8.975680679E-2,-1.999009835E0,2.002387356E0
1.454303179E1,-2.389788100E-2,1.980596295E-2,-1.756998256E0,1.757272392E0
1.455302979E1,-4.884526413E-4,-7.862495072E-3,-1.426511289E0,1.426533040E0
1.456302779E1,1.712518633E-1,-5.415491967E-2,-1.213518857E0,1.226738755E0
1.457302679E1,1.405395184E-1,-8.298445199E-2,-1.096757562E0,1.108834941E0
1.458302479E1,1.014035833E-1,-9.883577853E-2,-9.816299790E-1,9.917906097E-1
1.459302279E1,2.642896524E-1,-1.002933798E-1,-8.197796345E-1,8.671484484E-1
1.460302179E1,7.799204445E-2,1.995659453E-1,-8.247100067E-1,8.520891507E-1
1.461301979E1,-7.852834376E-2,1.121436576E-1,-7.020921403E-1,7.153155068E-1
1.462301879E1,1.027158447E-2,-1.948993556E-1,-5.848730081E-1,6.165774079E-1
1.463301679E1,-1.867899984E-1,2.064708857E-1,-7.293208694E-1,7.806597599E-1
1.464301479E1,-1.998344604E-1,-1.412390738E-1,-3.818664515E-1,4.535463310E-1
1.465301379E1,-1.640776221E-1,1.496072251E-2,-2.193056703E-1,2.742995922E-1
1.466301179E1,-1.663154611E-2,9.260602707E-2,-1.601681006E-1,1.857587280E-1
1.467300979E1,-1.108233746E-2,8.323471282E-2,8.186101913E-6,8.396925442E-2
1.468300879E1,-1.276896682E-2,2.154508020E-1,2.428991854E-2,2.171913781E-1
1.469300679E1,1.061756422E-1,1.360891021E-1,5.385051727E-2,1.808131326E-1
1.470300479E1,1.408641394E-1,8.581508908E-2,1.481064641E-1,2.216809870E-1
1.471300379E1,2.266307697E-2,-3.224163847E-2,3.793463016E-1,3.813879322E-1
1.472300179E1,-3.511957954E-1,-4.851157084E-2,4.609231460E-1,5.814997900E-1
1.473300079E1,-1.744548401E-1,-1.467468038E-1,6.706382132E-1,7.083252986E-1
1.474299879E1,-4.064958375E-1,-1.300463519E-1,8.329171586E-1,9.358963151E-1
1.475299679E1,-1.338482480E-1,8.437292816E-2,8.163420564E-1,8.315338223E-1
1.476299579E1,1.891476323E-1,9.824307187E-2,8.595319301E-1,8.855640388E-1
1.477299379E1,2.347066333E-1,3.772272706E-2,9.096595252E-1,9.402077747E-1
1.478299179E1,7.473731976E-2,8.648552718E-2,8.366032434E-1,8.443757458E-1
1.479299079E1,1.309399892E-2,1.169351402E-1,8.404320002E-1,8.486290277E-1
1.480298879E1,-6.574917720E-1,-1.600627959E-1,1.425307347E0,1.577788504E0
1.481298779E1,-1.179826470E0,9.482434009E-1,1.087408449E0,1.863763177E0
1.482298579E1,7.091930721E-1,-1.931367124E-1,2.181254098E0,2.301765853E0
1.483298379E1,1.445486088E0,2.963651021E-1,2.288788487E0,2.723199413E0
1.484298279E1,-1.872724485E-1,3.938077815E-1,1.474314616E0,1.537452154E0
1.485298079E1,-8.392630687E-1,-1.216417980E0,1.961136834E0,2.455624744E0
1.486297879E1,-2.566707487E-1,3.071624974E-1,1.741451095E0,1.786863338E0
1.487297779E1,4.793189250E-1,3.465340662E-1,1.917576832E0,2.006722052E0
1.488297579E1,4.622522547E-1,-8.457624681E-2,2.046158273E0,2.099427057E0
1.489297379E1,-3.628711136E-1,-4.813444005E-1,1.826318752E0,1.923228552E0
1.490297279E1,-1.962515425E-1,-3.504030226E-1,1.671882677E0,1.719444280E0
1.491297079E1,-4.392083778E-1,-3.941339465E-2,1.562958405E0,1.623975490E0
1.492296979E1,6.334661476E-2,3.692174622E-1,1.779423498E0,1.818428528E0
1.493296779E1,4.528430249E-1,5.382476029E-1,1.980031527E0,2.101262034E0
1.494296579E1,-1.154577498E-1,3.188358787E-2,1.981530753E0,1.985147647E0
1.495296479E1,-3.649875864E-1,-2.496979623E-1,1.924668919E0,1.974820361E0
1.496296279E1,-3.872517371E-1,-1.161580635E-1,1.837241936E0,1.881200291E0
1.497296079E1,1.289350155E-1,7.074273591E-1,1.753513316E0,1.895227336E0
1.498295979E1,7.595613532E-2,7.298639296E-1,1.614690476E0,1.773611013E0
1.499295779E1,-4.394655456E-1,-3.254866115E-1,1.846669986E0,1.925944324E0
1.500295679E1,-4.260959601E-1,-2.621491878E-1,1.966700460E0,2.029332566E0
1.501295479E1,-1.533200061E-1,4.216040560E-1,2.091315150E0,2.138891316E0
1.502295279E1,-1.254573291E-1,4.381365466E-1,2.048212400E0,2.098303412E0
1.503295179E1,-1.103919780E-1,-3.929815699E-1,2.304059660E0,2.339938422E0
1.504294979E1,-2.533496399E-1,6.480352163E-2,1.759989107E0,1.779310876E0
1.505294779E1,1.249180331E-1,2.805464651E-1,1.529805277E0,1.560325293E0
1.506294679E1,3.795554857E-1,5.557711600E-1,1.519513008E0,1.661885595E0
1.507294479E1,-2.102612885E-1,1.736847436E-1,1.165222026E0,1.196711564E0
1.508294379E1,-2.961489196E-1,-3.693712440E-1,1.014468527E0,1.119502430E0
1.509294179E1,-6.413363172E-2,1.275443100E-1,9.231683475E-1,9.341415693E-1
1.510293979E1,3.975774083E-1,2.267981645E-1,1.305913051E0,1.383804213E0
1.511293879E1,8.498809179E-2,2.017884902E-1,1.015643817E0,1.038977350E0
1.512293679E1,-1.788877788E-1,-4.437947145E-2,8.742996579E-1,8.935156780E-1
1.513293479E1,4.183024988E-3,-7.213857958E-2,9.735345089E-1,9.762125345E-1
1.514293379E1,9.681233129E-2,-5.001238665E-2,1.056013579E0,1.061620716E0
1.515293179E1,-7.182308575E-2,3.921855446E-3,8.687687767E-1,8.717414318E-1
1.516292979E1,1.736935509E-2,-1.283496544E-1,9.918269384E-1,1.000247971E0
1.517292879E1,-1.576153890E-1,-1.284526384E-1,1.047977750E0,1.067520518E0
1.518292679E1,-1.871623198E-1,-2.198263831E-1,1.069998949E0,1.108264916E0
1.519292579E1,-2.566374013E-2,-3.043959970E-2,9.469706082E-1,9.478072218E-1
1.520292379E1,-4.171531554E-2,6.327679535E-2,8.640594292E-1,8.673769754E-1
1.521292179E1,-2.572322093E-1,-3.459426569E-2,6.851743913E-1,7.326862352E-1
1.522292079E1,-2.586611044E-1,-1.514749537E-1,6.708025199E-1,7.347286909E-1
1.523291879E1,-5.245597461E-2,-5.087779284E-2,7.513368058E-1,7.548822258E-1
1.524291679E1,-1.160030941E-2,1.462817857E-1,6.991024590E-1,7.143368786E-1
1.525291579E1,-6.216207851E-2,-2.634238260E-2,6.740950871E-1,6.774675133E-1
1.526291379E1,-1.310604966E-1,1.168391180E-1,6.366419166E-1,6.604098449E-1
1.527291279E1,-7.940876998E-2,2.794001733E-1,6.609885532E-1,7.219945131E-1
1.528291079E1,-6.994055640E-3,7.117912458E-2,6.833944988E-1,6.871269356E-1
1.529290879E1,5.258019140E-2,4.380911211E-2,6.631227869E-1,6.666451420E-1
1.530290779E1,1.278480912E-2,3.046271995E-1,5.332742536E-1,6.142821922E-1
1.531290579E1,4.951639658E-2,9.926006712E-2,5.404008400E-1,5.516679276E-1
1.532290379E1,-5.717634045E-2,4.954766091E-3,4.819737071E-1,4.853785512E-1
1.533290279E1,1.259887862E-1,2.030853296E-1,4.786349469E-1,5.349843341E-1
1.534290079E1,1.673300079E-1,2.915281026E-1,3.657602960E-1,4.967580500E-1
1.535289979E1,-3.147045285E-1,-4.256869840E-1,4.018282610E-1,6.646159041E-1
1.536289779E1,-3.063495700E-1,-1.132316966E-1,2.462057859E-1,4.090094927E-1
1.537289579E1,4.905391837E-1,-1.651065493E-2,7.711547738E-1,9.141011857E-1
1.538289479E1,9.992105830E-2,1.549961470E-1,5.175393963E-1,5.494133691E-1
1.539289279E1,-1.533864633E-1,-8.554478327E-2,3.442518979E-1,3.864643403E-1
1.540289079E1,-4.388507109E-1,-4.212449273E-2,3.957676220E-1,5.924495168E-1
1.541288979E1,2.499493195E-1,3.929711180E-1,5.451756763E-1,7.170198603E-1
1.542288779E1,2.414726475E-2,3.921687339E-1,2.364912218E-1,4.585929613E-1
1.543288713E1,-2.491292292E-1,-2.447943046E-1,2.708816206E-1,4.420028018E-1
1.544288512E1,-3.708307456E-1,6.136725917E-3,3.612766510E-1,5.177585536E-1
1.545288313E1,9.429205343E-2,-2.962736662E-2,5.591534454E-1,5.678215808E-1
1.546288213E1,-1.877425098E-1,1.074374896E-1,2.145407742E-1,3.046601516E-1
1.547288013E1,2.905492421E-2,-1.844398197E-2,4.546590239E-1,4.559596441E-1
1.548287813E1,-4.203928784E-3,6.970160628E-2,3.578519368E-1,3.646011459E-1
1.549287713E1,-1.246561144E-1,-2.777832903E-1,3.093475288E-1,4.340490719E-1
1.550287513E1,-3.829224221E-1,-1.871443396E-2,7.868948936E-2,3.913717505E-1
1.551287413E1,5.258803032E-2,-2.488432456E-1,4.882542014E-1,5.505275897E-1
1.552287213E1,3.479857106E-2,3.229704084E-2,2.369262546E-1,2.416362753E-1
1.553287012E1,1.048474471E-1,-3.194481919E-2,2.644584543E-1,2.862721304E-1
1.554286912E1,-4.512011267E-2,1.386784867E-1,1.767332625E-1,2.291335709E-1
1.555286713E1,1.347902345E-1,-7.507488683E-2,3.077214181E-1,3.442341022E-1
1.556286513E1,9.216997096E-2,-1.815724913E-2,2.093665731E-1,2.294762541E-1
1.557286413E1,-1.246750082E-1,4.724581311E-2,1.325581330E-1,1.880097954E-1
1.558286213E1,-6.146805055E-2,-1.682311186E-1,2.120364118E-1,2.775598502E-1
1.559286113E1,-2.749410136E-2,6.012642520E-2,1.916576958E-1,2.027406840E-1
1.560285913E1,1.512485203E-1,2.324981399E-1,2.260609585E-1,3.578198666E-1
1.561285713E1,7.817328986E-2,1.388748618E-1,2.202026331E-1,2.718206948E-1
1.562285613E1,3.169707997E-2,-6.809374988E-3,3.207952076E-1,3.224292755E-1
1.563285412E1,3.847557435E-2,1.560527023E-1,2.342605090E-1,2.840964657E-1
1.564285213E1,-1.148188684E-1,1.174737236E-1,2.233244616E-1,2.772314258E-1
1.565285113E1,-1.883435670E-1,-5.146487156E-2,2.596900499E-1,3.249012993E-1
1.566284913E1,-4.332638791E-2,9.227799827E-2,2.863270408E-1,3.039335111E-1
1.567284813E1,5.645201661E-2,2.680293489E-1,3.737236190E-1,4.633528951E-1
1.568284613E1,-5.873237589E-2,5.598637724E-2,4.264000154E-1,4.340517705E-1
1.569284413E1,-2.298436137E-1,-1.803914268E-1,3.841755170E-1,4.826592809E-1
1.570284313E1,-2.193336821E-1,-1.027625676E-1,2.991499847E-1,3.849131366E-1
1.571284113E1,-9.662370376E-2,7.326182971E-2,2.428652716E-1,2.714534508E-1
1.572283912E1,-3.398114858E-2,1.318235034E-1,2.202681220E-1,2.589405339E-1
1.573283812E1,-6.296124671E-2,6.082381530E-2,2.210270905E-1,2.377322651E-1
1.574283613E1,-7.215202818E-2,-5.809636328E-2,2.523389304E-1,2.688048332E-1
1.575283413E1,-9.001137994E-2,-1.475520933E-1,2.505754101E-1,3.044038517E-1
1.576283313E1,-9.660572357E-2,-4.742539572E-2,1.901286489E-1,2.184736531E-1
1.577283113E1,5.894687735E-3,1.137235936E-1,2.861083549E-1,3.079379708E-1
1.578283013E1,8.427966507E-2,1.353314126E-1,2.792466474E-1,3.215530178E-1
1.579282813E1,1.440103434E-2,-3.453771215E-2,2.292751729E-1,2.323087348E-1
1.580282613E1,-5.798122795E-2,-1.471681139E-1,2.851195908E-1,3.260574452E-1
1.581282513E1,-2.958638130E-2,-3.192386057E-2,3.316692746E-1,3.345130708E-1
1.582282312E1,2.629779758E-2,6.978772480E-2,3.627782160E-1,3.703645970E-1
1.583282113E1,-3.095989225E-2,8.739105988E-2,2.756190348E-1,2.907947121E-1
1.584282013E1,2.132260278E-2,-5.903818527E-2,2.667815530E-1,2.740667031E-1
1.585281813E1,6.156889675E-2,-7.663711667E-2,3.145445341E-1,3.295485406E-1
1.586281713E1,-8.969226815E-3,6.453513443E-2,2.091701066E-1,2.190830074E-1
1.587281513E1,-1.239345863E-1,2.235803504E-2,1.970418119E-1,2.338485387E-1
