"Time (s)","Linear Acceleration x (m/s^2)","Linear Acceleration y (m/s^2)","Linear Acceleration z (m/s^2)","Absolute acceleration (m/s^2)"
5.834833311E-3,1.094196774E-3,4.474990626E-2,-2.264275789E-2,5.016418904E-2
1.583383331E-2,-3.269507177E-3,3.706491073E-2,-1.815151155E-2,4.140017701E-2
2.583183334E-2,1.268531509E-2,3.335854574E-2,-1.261185944E-2,3.785193246E-2
3.582983333E-2,2.490279811E-2,2.909402061E-2,-2.593240142E-2,4.625041440E-2
4.582883333E-2,1.918380093E-2,2.980794509E-2,-2.922496855E-2,4.594159984E-2
5.582683333E-2,1.411587294E-2,4.061973006E-2,-1.919290066E-2,4.709127068E-2
6.582583333E-2,1.091412038E-2,2.158667309E-2,-2.577803493E-2,3.534981702E-2
7.582383332E-2,9.044326991E-3,1.048041229E-2,-1.320652127E-2,1.913246186E-2
8.582183332E-2,-1.373364776E-3,6.163273647E-4,-1.724577785E-2,1.731135014E-2
9.582083332E-2,-2.112818286E-3,7.742308524E-3,-2.517986476E-2,2.642788171E-2
1.058188333E-1,1.834764909E-3,-3.122172760E-3,-5.272434354E-3,6.396318397E-3
1.158168333E-1,2.177466564E-3,-3.322441838E-2,-2.578095853E-2,4.211010758E-2
1.258158333E-1,1.073097462E-2,-2.941348416E-2,-2.967286527E-2,4.313682649E-2
1.358138333E-1,1.881886158E-2,-3.452029841E-2,-2.668259919E-2,4.751590947E-2
1.458118333E-1,1.738664092E-2,-1.892502166E-2,-1.530450225E-2,2.991119384E-2
1.558108333E-1,1.265549429E-2,-9.836067399E-3,-1.784687161E-2,2.398792580E-2
1.658088333E-1,1.793938553E-2,-1.285484323E-2,-2.518278837E-2,3.348494255E-2
1.758068333E-1,8.358594775E-3,-1.201778005E-2,-1.845030427E-2,2.355221585E-2
1.858058333E-1,-7.377285808E-3,-1.503375104E-3,-9.614576697E-3,1.221165704E-2
1.958038333E-1,-1.097219054E-2,1.007686076E-2,-1.095826685E-2,1.849366650E-2
2.058028333E-1,-1.151029883E-2,4.849823188E-2,-1.784160912E-2,5.294231286E-2
2.158008333E-1,-7.810911667E-3,4.829647553E-2,-3.206086814E-2,5.849324026E-2
2.257988333E-1,-2.583482601E-3,4.626104606E-2,-2.831865013E-2,5.430197703E-2
2.357978333E-1,9.003031030E-3,1.601437707E-2,-3.385888696E-2,3.852192968E-2
2.457958333E-1,3.918098610E-2,9.436901284E-3,-1.888884544E-2,4.450835045E-2
2.557938333E-1,4.391834540E-2,7.567460787E-3,-2.338184595E-2,5.032691373E-2
2.657928333E-1,3.976804655E-2,1.372107168E-2,-2.502959132E-2,4.895146347E-2
2.757908333E-1,1.493808283E-2,2.175203966E-2,-2.383266628E-2,3.555690551E-2
2.857887500E-1,-6.769814920E-3,1.434237261E-2,-2.368707061E-2,2.850633894E-2
2.957877500E-1,-1.957466902E-2,-1.665615010E-2,-9.318707585E-3,2.733922666E-2
3.057857500E-1,-1.900323160E-2,-1.883493686E-2,-2.533130765E-2,3.684498344E-2
3.157837500E-1,-1.148647143E-2,-2.271398657E-2,-1.380586088E-2,2.895627750E-2
3.257827500E-1,1.125760775E-2,-2.388604496E-2,-1.365266383E-2,2.972662284E-2
3.357807500E-1,2.759571500E-2,-2.184493729E-2,-3.206145287E-2,4.760946893E-2
3.457797500E-1,2.386530105E-2,-1.675554477E-2,-2.382857323E-2,3.765769213E-2
3.557777500E-1,2.601645514E-2,-2.372756943E-2,-1.529807031E-2,3.839120270E-2
3.657757500E-1,1.526583754E-2,-1.141392484E-2,-1.589740992E-2,2.482037707E-2
3.757747500E-1,-3.045211639E-3,-2.284525428E-5,-1.096002102E-2,1.137523172E-2
3.857727500E-1,-8.073159289E-3,3.155162705E-3,-1.170963407E-2,1.456868157E-2
3.957707500E-1,-1.548680747E-2,-1.196222465E-2,-1.904613554E-2,2.730734889E-2
4.057697500E-1,-1.641744666E-2,-2.198682364E-2,-6.774584055E-3,2.826389848E-2
4.157677500E-1,-2.479054984E-3,-1.583432166E-2,-1.605528474E-2,2.268575818E-2
4.257657500E-1,1.229377091E-3,9.668707981E-4,-1.829593778E-2,1.836266719E-2
4.357647500E-1,1.944305185E-2,1.216724264E-2,-3.191644192E-2,3.930309560E-2
4.457627500E-1,2.541713381E-2,2.458885516E-2,-2.772515774E-2,4.493692091E-2
4.557607500E-1,2.929149890E-2,2.397737344E-2,-2.787426174E-2,4.700936941E-2
4.657597500E-1,2.688752582E-2,3.014080469E-2,-2.248195946E-2,4.622602788E-2
4.757577500E-1,1.285917839E-2,1.978762873E-2,-8.861455321E-3,2.520781843E-2
4.857557500E-1,-1.781555247E-3,2.932695222E-2,-2.053776026E-2,3.584750566E-2
4.957547500E-1,-5.369607769E-3,3.547349963E-2,-1.515305936E-2,3.894633579E-2
5.057527500E-1,-1.096365726E-2,2.042058754E-2,-3.147146881E-2,3.908523410E-2
5.157517500E-1,-7.149938755E-3,1.118141236E-2,-3.536512971E-2,3.777350932E-2
5.257497500E-1,3.853863291E-3,1.462438770E-2,-1.530859530E-2,2.151924878E-2
5.357477500E-1,2.073539615E-2,1.426125277E-2,-1.950280309E-2,3.183864495E-2
5.457467500E-1,2.208560960E-2,9.064210950E-3,-2.459572792E-2,3.427657952E-2
5.557447500E-1,1.933856942E-2,2.655258886E-3,-2.249891639E-2,2.978643828E-2
5.657427500E-1,2.161032233E-2,-1.402313747E-2,-1.486537635E-2,2.974279459E-2
5.757417500E-1,1.331217315E-2,-1.740431733E-2,-1.890931070E-2,2.894280993E-2
5.857397500E-1,-3.982374128E-3,-1.387181107E-2,-1.247444987E-2,1.907611978E-2
5.957377500E-1,-1.337422673E-2,-1.400328663E-2,-3.253332317E-2,3.785999331E-2
6.057367500E-1,-1.676254202E-2,-1.584040299E-2,-1.920868814E-2,3.001457782E-2
6.157347500E-1,-4.546539076E-3,-1.178312854E-2,-2.130316079E-2,2.476565758E-2
6.257327500E-1,1.374881398E-2,-8.383600187E-3,-2.399814248E-2,2.890026783E-2
6.357317500E-1,1.581459872E-2,-5.615851493E-3,-2.938986003E-2,3.384380584E-2
6.457297500E-1,2.500313267E-2,-7.386563695E-3,-3.702164590E-2,4.528046192E-2
6.557287500E-1,1.966499023E-2,1.297751142E-2,-3.313090861E-2,4.065445546E-2
6.657267500E-1,1.579502882E-2,8.914274408E-3,-3.088265419E-2,3.581459973E-2
6.757247500E-1,-4.305889606E-3,1.660345892E-2,-2.923490882E-2,3.389535996E-2
6.857237500E-1,-5.370740667E-3,3.032632588E-2,-1.680665195E-2,3.508553044E-2
6.957217500E-1,-9.956054091E-3,2.305950220E-2,-1.785213411E-2,3.081496953E-2
7.057197500E-1,-1.289925009E-2,1.786416658E-2,-2.264334261E-2,3.159493734E-2
7.157187500E-1,-1.090030633E-2,1.532253269E-2,-1.530625641E-2,2.424619911E-2
7.257167500E-1,1.188048240E-2,1.810367287E-2,-2.398586333E-2,3.231424567E-2
7.357147500E-1,2.992223075E-2,1.541337124E-2,-1.994251370E-2,3.912308473E-2
7.457137500E-1,2.300590653E-2,1.678366052E-2,-1.290655911E-2,3.126567229E-2
7.557117500E-1,3.117432062E-2,2.387713938E-3,-1.380644560E-2,3.417831745E-2
7.657097500E-1,3.815244259E-2,-1.196612127E-3,-2.219135284E-2,4.415310745E-2
7.757087500E-1,4.486404117E-3,2.020705910E-2,-2.189606845E-2,3.013122754E-2
7.857067500E-1,-2.368935468E-2,1.235799663E-2,-4.531007409E-3,2.710047295E-2
7.957057500E-1,-1.171429357E-2,2.996679749E-3,-1.261419833E-2,1.747348742E-2
8.057037500E-1,-3.652039334E-2,1.038480004E-2,-2.084824741E-2,4.331550094E-2
8.157017500E-1,-2.096330965E-2,6.475928950E-3,-2.009629548E-2,2.975330400E-2
8.257007500E-1,-3.176627811E-3,-1.150481021E-2,-3.476520538E-2,3.675691945E-2
8.356987500E-1,1.141939290E-2,-3.388336418E-3,-3.641002715E-2,3.830892108E-2
8.456967500E-1,2.632880609E-2,-1.829437776E-2,-3.535694361E-2,4.772843753E-2
8.556957500E-1,5.605917508E-2,-5.922080569E-3,-2.727258325E-2,6.262184879E-2
8.656937500E-1,2.187397694E-2,-1.310339557E-2,-9.009389877E-3,2.704327918E-2
8.756917500E-1,1.546372924E-2,5.703696201E-3,-3.296016991E-2,3.685148400E-2
8.856907500E-1,1.023416229E-2,8.223064425E-3,-4.194500148E-2,4.395156443E-2
8.956887500E-1,-9.377252832E-3,4.838737689E-3,-1.156169951E-2,1.565308751E-2
9.056867500E-1,1.008715963E-2,-3.327772054E-3,-7.373923659E-3,1.293056868E-2
9.156857500E-1,-3.249334283E-3,-2.258318025E-3,-3.312389195E-2,3.335941234E-2
9.256837500E-1,-2.386681767E-2,1.438367313E-2,-3.476403594E-2,4.455393623E-2
9.356827500E-1,-1.987687871E-4,2.860085594E-2,-2.906943262E-2,4.078088256E-2
9.456807500E-1,2.163292548E-2,2.685370562E-2,-1.077057123E-3,3.450021771E-2
9.556787500E-1,2.142527623E-2,1.269730188E-2,-3.021256328E-3,2.508768476E-2
9.656777500E-1,1.967069127E-2,6.300021977E-3,-2.846599996E-2,3.517015106E-2
9.756757500E-1,-2.339306530E-3,2.375895938E-2,-3.745083153E-2,4.441312068E-2
9.856737500E-1,3.723342475E-3,4.654535322E-2,-2.053425193E-2,5.100969209E-2
9.956727500E-1,6.252665240E-3,2.529723848E-2,-2.277899802E-2,3.461110874E-2
1.005670750E0,-5.850998070E-3,1.176840087E-2,-1.319950461E-2,1.862676460E-2
1.015668750E0,-6.591456570E-4,1.051230474E-2,-1.215051413E-2,1.608036124E-2
1.025667750E0,1.944509838E-3,1.441605666E-2,-2.637269676E-2,3.011848174E-2
1.035665750E0,2.927134428E-3,2.171619348E-2,-3.954764307E-2,4.521257842E-2
1.045663750E0,2.379630391E-2,-7.070742673E-3,-3.610246360E-2,4.381378048E-2
1.055662750E0,1.562419876E-2,-1.885799910E-2,-8.112426996E-3,2.579827879E-2
1.065660750E0,1.690388018E-2,-4.170943978E-3,1.465896964E-3,1.747245812E-2
1.075658750E0,1.392470554E-2,-1.643152566E-2,-2.023545921E-2,2.955277092E-2
1.085657750E0,-7.915375829E-3,-9.261835419E-3,-4.792494893E-2,4.944932254E-2
1.095655750E0,-1.358691920E-2,-1.529544820E-3,-3.565105855E-2,3.818300481E-2
1.105654750E0,-1.953335479E-4,-2.026024135E-2,-8.105995059E-3,2.182252714E-2
1.115652750E0,-1.129627246E-3,-1.140884735E-2,1.025601625E-3,1.151041764E-2
1.125650750E0,1.440662574E-3,-4.331472317E-3,-2.666388810E-2,2.705180381E-2
1.135649750E0,2.851888072E-3,5.923994619E-4,-3.908571303E-2,3.919409606E-2
1.145647750E0,1.069260227E-2,3.687503725E-3,-3.055111706E-2,3.257760244E-2
1.155645750E0,2.368716197E-2,2.919310922E-3,-2.605987072E-2,3.533724495E-2
1.165644750E0,3.419946900E-2,1.502237409E-2,-1.558224499E-2,4.047322278E-2
1.175642750E0,2.730815990E-2,3.467227577E-2,-2.022610366E-2,4.854891938E-2
1.185640750E0,5.621330403E-3,2.590426855E-2,-3.175622821E-2,4.136530568E-2
1.195639750E0,-1.644721264E-2,1.690021083E-2,-3.564696550E-2,4.274147961E-2
1.205637750E0,-1.639064083E-2,1.829099048E-2,-1.932855606E-2,3.125390406E-2
1.215635750E0,2.758095078E-3,3.049338723E-2,-1.828015029E-2,3.565974829E-2
1.225634750E0,7.250127140E-3,3.164363733E-2,-2.546170056E-2,4.125751231E-2
1.235632750E0,-8.906935696E-3,1.868944169E-2,-2.560846567E-2,3.293056708E-2
1.245631750E0,1.141078653E-2,1.109888325E-2,-1.437713385E-2,2.144978406E-2
1.255629750E0,1.064957041E-2,8.607087165E-3,-1.467241824E-2,2.006925899E-2
1.265627750E0,1.596364791E-2,1.540583038E-2,-2.904078126E-2,3.654510419E-2
1.275626750E0,1.272662932E-2,2.074098526E-2,-3.338292360E-2,4.131071473E-2
1.285624750E0,9.250021074E-3,8.252760743E-3,-1.347724736E-2,1.831139389E-2
1.295623208E0,3.822069056E-4,1.163303554E-3,-1.198328376E-2,1.204568167E-2
1.305622208E0,-8.502947912E-4,-1.332751752E-2,-2.889693975E-2,3.183361198E-2
1.315620208E0,-6.612725817E-3,-1.373826729E-3,-2.575523078E-2,2.662606722E-2
1.325618208E0,9.288557880E-3,-7.516647113E-4,-1.527818978E-2,1.789596016E-2
1.335617208E0,8.631641474E-3,-1.228435369E-2,-8.087868690E-3,1.705356855E-2
1.345615208E0,-6.372460071E-3,-2.264479757E-2,-1.108047366E-2,2.600330750E-2
1.355613208E0,-4.569069128E-3,-1.443666695E-2,-3.039090335E-2,3.395439224E-2
1.365612208E0,8.927547131E-3,-1.146783343E-2,-3.756894529E-2,4.028198048E-2
1.375610208E0,1.407682450E-2,2.035470586E-3,-1.496419430E-2,2.064527160E-2
1.385608208E0,1.607644435E-2,4.988208853E-3,-1.795913815E-2,2.461432375E-2
1.395607208E0,9.665356111E-3,-1.113582578E-2,-2.140256345E-2,2.599029524E-2
1.405605208E0,-8.830994982E-3,1.732712723E-3,-2.005653441E-2,2.198302387E-2
1.415604208E0,-8.473931104E-3,2.629877059E-2,-2.140139401E-2,3.494928481E-2
1.425602208E0,1.205385234E-3,3.068063289E-2,-2.948692381E-2,4.257032845E-2
1.435600208E0,3.698071539E-3,1.957576538E-2,-2.904019654E-2,3.521674798E-2
1.445599208E0,8.117324039E-3,1.931873000E-2,-2.125813723E-2,2.984983545E-2
1.455597208E0,1.988643525E-2,1.641053849E-2,-3.308588505E-2,4.194582065E-2
1.465595208E0,1.233183263E-2,2.722013189E-2,-3.757888556E-2,4.801231421E-2
1.475594208E0,2.132411940E-2,3.448931730E-2,-1.811935186E-2,4.441330868E-2
1.485592208E0,2.958212379E-2,1.750302222E-2,-7.342348695E-3,3.514780106E-2
1.495590208E0,6.463366002E-3,-1.052276121E-2,-8.392508626E-3,1.493110192E-2
1.505589208E0,-1.056979246E-2,-1.048159087E-5,-3.443893075E-2,3.602444412E-2
1.515587208E0,-2.021190589E-2,1.450706081E-2,-4.237126350E-2,4.913552609E-2
1.525585208E0,-3.489344213E-3,8.776541073E-3,-2.156336188E-2,2.354106565E-2
1.535584208E0,5.217762887E-3,-1.747670860E-2,-1.437537968E-2,2.322309054E-2
1.545582208E0,1.565957442E-3,-2.336829686E-2,-1.362927496E-2,2.709772420E-2
1.555581208E0,4.635252301E-3,-1.897566061E-2,-7.194414139E-3,2.081636025E-2
1.565579208E0,1.998094087E-2,-2.937547497E-3,-2.096402228E-2,2.910940421E-2
1.575577208E0,2.140987247E-2,2.497217897E-4,-2.740297616E-2,3.477597019E-2
1.585576208E0,7.648980338E-3,-2.132385445E-2,-2.575640023E-2,3.430168832E-2
1.595574208E0,7.757555824E-3,-1.965489693E-2,-2.456181407E-2,3.240026784E-2
1.605572208E0,1.947899396E-2,3.950610157E-3,-1.692885876E-2,2.610794486E-2
1.615571208E0,1.424825756E-2,1.204833860E-2,-9.590603113E-3,2.097987070E-2
1.625569208E0,-5.425302498E-4,9.818723324E-3,-2.515530646E-2,2.700909309E-2
1.635567208E0,-8.436837830E-3,-2.798234158E-3,-3.218775272E-2,3.339254067E-2
1.645566208E0,6.763547435E-3,1.204610478E-2,-1.541735351E-2,2.070142516E-2
1.655564208E0,1.755145932E-2,1.834767878E-2,-1.212420166E-2,2.813693847E-2
1.665562208E0,2.129091818E-2,3.115196872E-2,-2.140490234E-2,4.338108109E-2
1.675561208E0,1.348610954E-2,1.223332989E-2,-3.128435791E-2,3.619724520E-2
1.685559208E0,-7.793370020E-3,2.020218947E-2,-1.781178832E-2,2.803791859E-2
1.695557208E0,-5.541881360E-3,3.298188912E-2,-2.095525146E-2,3.946694848E-2
1.705556208E0,1.509255895E-2,2.437652586E-2,-1.661369383E-2,3.313631198E-2
1.715554208E0,5.936513599E-3,2.289449195E-2,-2.095759034E-2,3.160095803E-2
1.725553208E0,5.945887417E-5,1.578397279E-2,-2.499860108E-2,2.956463070E-2
1.735551208E0,1.147664079E-2,6.724544109E-3,-2.963953614E-2,3.248745727E-2
1.745549208E0,4.176940229E-3,1.755459991E-2,-2.679661989E-2,3.230587633E-2
1.755548208E0,1.033345532E-2,1.191239997E-2,-2.380343020E-2,2.855326358E-2
1.765546208E0,2.411857685E-2,-2.056004363E-3,-2.709658206E-2,3.633397394E-2
1.775544208E0,1.821102524E-2,-1.685035361E-3,-1.153129399E-2,2.162062732E-2
1.785543208E0,6.369116195E-3,7.979159587E-4,1.485192776E-4,6.420620605E-3
1.795541208E0,-7.028353214E-4,-1.149857014E-2,-9.729766846E-3,1.507910659E-2
1.805539208E0,3.385081049E-3,-1.254348128E-2,-4.116556764E-2,4.316713629E-2
1.815538208E0,-1.284012012E-3,-9.666873874E-3,-3.787183106E-2,3.910719531E-2
1.825536208E0,5.105861798E-3,-1.264954315E-3,-1.511797607E-2,1.600697144E-2
1.835534208E0,6.661129799E-3,-7.747045111E-3,-2.230771244E-2,2.453612423E-2
1.845533208E0,7.187598478E-3,-1.157817678E-2,-3.188603640E-2,3.467614550E-2
1.855531208E0,7.332189158E-3,-6.665105791E-3,-2.964070559E-2,3.125309682E-2
1.865530208E0,8.930964097E-3,8.503422998E-3,-2.035883546E-2,2.380236340E-2
1.875528208E0,7.443450708E-3,5.130299048E-3,7.333577871E-3,1.164071695E-2
1.885526208E0,-7.883691229E-4,8.613858857E-3,-2.365198731E-2,2.518405436E-2
1.895525208E0,2.586077303E-3,2.149631990E-2,-2.769182861E-2,3.515134331E-2
1.905523208E0,2.192139421E-3,3.211346111E-2,-2.140314817E-2,3.865455486E-2
1.915521208E0,5.288240109E-3,2.779343083E-2,-2.020388424E-2,3.476546015E-2
1.925520208E0,-4.730178192E-3,2.073516089E-2,-2.783859372E-2,3.503296709E-2
1.935518208E0,8.396382406E-3,2.216110721E-2,-3.128377318E-2,3.924650780E-2
1.945516208E0,1.220313907E-2,4.081234099E-2,-2.679486573E-2,5.032423482E-2
1.955515208E0,6.448199786E-3,3.486672310E-2,-8.684869409E-3,3.650609013E-2
1.965513208E0,4.098167270E-3,2.003636152E-2,-4.195377231E-3,2.087706751E-2
1.975511208E0,3.701342326E-3,4.965605139E-4,-2.335670292E-2,2.365337352E-2
1.985510208E0,3.452945296E-3,1.082891776E-3,-2.231005132E-2,2.260163436E-2
1.995508208E0,-5.938286036E-3,1.678421840E-3,-2.185864627E-2,2.271300856E-2
2.005506208E0,8.998974524E-3,-8.023523623E-3,-1.991152346E-2,2.327718283E-2
2.015505208E0,1.776886610E-2,-1.079765800E-2,-2.544883668E-2,3.286282565E-2
2.025503208E0,9.030385036E-3,-3.041828705E-2,-2.290237427E-2,3.913232408E-2
2.035501208E0,1.834759427E-2,-1.366229118E-2,-2.844202638E-2,3.649988055E-2
2.045500208E0,1.075427212E-2,-1.077794877E-5,-2.155692995E-2,2.409057313E-2
2.055498208E0,3.796323035E-3,-2.801031000E-3,-1.481918335E-2,1.555204290E-2
2.065497208E0,8.750668857E-3,-3.407162282E-3,-1.856198609E-2,2.080217027E-2
2.075495208E0,3.848509435E-3,-1.183881642E-2,-1.691599488E-2,2.100284462E-2
2.085493208E0,-1.763575058E-3,-2.834149424E-3,-1.362108886E-2,1.402414567E-2
2.095492208E0,1.289201416E-3,9.941337837E-3,-2.440043092E-2,2.637940991E-2
2.105490208E0,1.652861685E-3,5.287754173E-3,-1.856374025E-2,1.937278370E-2
2.115488208E0,2.180773895E-3,2.173723432E-2,-3.009152591E-2,3.718552222E-2
2.125487208E0,3.173960019E-3,2.094066768E-2,-2.964129031E-2,3.643064199E-2
2.135485208E0,5.099155772E-3,2.097348746E-2,-1.123308599E-2,2.433250473E-2
2.145483208E0,1.554281283E-2,2.527380851E-2,-1.766853154E-2,3.453290364E-2
2.155482208E0,1.419515753E-2,1.891918701E-2,-2.305732548E-2,3.303147579E-2
2.165480208E0,1.937368926E-2,1.307368669E-2,-5.991057158E-3,2.412786532E-2
2.175478208E0,1.697857836E-2,2.248174248E-2,-3.034704924E-4,2.817433162E-2
2.185477208E0,4.974719714E-3,2.112646524E-2,-2.605285406E-2,3.390909280E-2
2.195475208E0,1.484882142E-3,1.589265905E-2,-3.907460332E-2,4.220907617E-2
2.205473208E0,2.139331754E-3,1.136521251E-2,-3.099258184E-2,3.307997771E-2
2.215472208E0,8.913404178E-3,-1.873855601E-3,-1.422861457E-2,1.689418780E-2
2.225470208E0,1.812728215E-3,5.975126921E-3,-5.698111653E-3,8.453200679E-3
2.235468208E0,8.689017277E-3,2.001586428E-4,-2.919924080E-2,3.046530401E-2
2.245467208E0,-2.108487692E-3,-1.038031755E-2,-3.802678227E-2,3.947445862E-2
2.255465208E0,4.596441407E-3,-1.557894794E-2,-2.260825932E-2,2.783818029E-2
2.265464208E0,8.581337146E-3,-2.105737445E-2,3.289643526E-3,2.297551132E-2
2.275462208E0,1.070902929E-2,-1.708083155E-2,-1.033319950E-2,2.265420770E-2
2.285460208E0,-9.871561825E-4,-9.753806668E-3,-3.607907474E-2,3.738730876E-2
2.295459458E0,-4.876102768E-3,-2.578051657E-3,-2.784268677E-2,2.838376182E-2
2.305457458E0,2.858192101E-3,-1.086292755E-2,-2.140080929E-2,2.416954892E-2
2.315455458E0,8.686440848E-3,-1.451536454E-2,-2.259831905E-2,2.822824979E-2
2.325454458E0,1.037491573E-2,-7.805061025E-3,-2.079913080E-2,2.451859898E-2
2.335452458E0,8.530429825E-3,6.598054102E-3,-3.591652215E-2,3.750065485E-2
2.345450458E0,5.366537981E-3,2.843237847E-2,-2.753336906E-2,3.994103513E-2
2.355449458E0,1.181161316E-2,2.190112538E-2,-1.720484734E-2,3.025194655E-2
2.365447458E0,1.240084805E-2,1.959795053E-2,-4.933880568E-3,2.371083876E-2
2.375445458E0,1.427835245E-3,2.203209844E-2,-2.005127192E-2,2.982458014E-2
2.385444458E0,-1.178579405E-5,3.443236634E-2,-2.513893425E-2,4.263278088E-2
2.395442458E0,4.208679646E-3,2.694329593E-2,-2.484014153E-2,3.688748855E-2
2.405441458E0,5.760037322E-3,1.739695121E-2,-2.603531241E-2,3.183817573E-2
2.415439458E0,3.901719097E-3,1.225298201E-2,-1.704872668E-2,2.135457940E-2
2.425437458E0,1.115703564E-2,6.662158772E-3,-1.195755601E-2,1.765918881E-2
2.435436458E0,7.272090744E-3,1.676878095E-3,-2.078977525E-2,2.208868441E-2
2.445434458E0,5.507766511E-3,-7.690984360E-3,-4.309397936E-2,4.412003841E-2
2.455432458E0,-3.169190884E-4,-8.189767273E-3,-2.168907702E-2,2.318596100E-2
2.465431458E0,1.798395228E-2,-1.790475562E-2,-8.367365599E-3,2.672107072E-2
2.475429458E0,6.928749550E-3,-1.245891821E-2,-1.690020740E-2,2.210993495E-2
2.485427458E0,7.538833413E-3,-2.589342150E-2,-1.375732899E-2,3.027486395E-2
2.495426458E0,2.471773373E-2,-5.446861822E-2,-9.418694973E-3,6.055170143E-2
2.505424458E0,1.556068338E-2,-4.530713678E-2,-6.278155446E-3,4.831445691E-2
2.515422458E0,-3.987855893E-3,-2.034999840E-2,-1.196398795E-2,2.394081112E-2
2.525421458E0,-6.604174264E-3,2.814550402E-2,-2.797892690E-2,4.023188865E-2
2.535419458E0,-9.967163801E-3,3.604710920E-2,-2.483370960E-2,4.489378095E-2
2.545417458E0,-6.201136652E-3,3.494853615E-2,-2.213580430E-2,4.183118581E-2
2.555416458E0,-4.645594563E-3,2.365352221E-2,-5.820903182E-3,2.479825751E-2
2.565414458E0,2.538148407E-3,3.978263718E-2,-2.273572862E-2,4.589132570E-2
2.575413458E0,1.716981886E-2,6.327585432E-2,-2.093887925E-2,6.882639816E-2
2.585411458E0,1.584454743E-2,5.993264938E-2,-2.243635118E-2,6.592694441E-2
2.595409458E0,1.615878046E-3,5.533952444E-2,-2.932554066E-2,6.265031016E-2
2.605408458E0,6.534446217E-3,3.383536562E-2,-3.980316639E-2,5.264810546E-2
2.615406458E0,7.287768591E-3,1.977868660E-2,-1.854736805E-2,2.807691002E-2
2.625404458E0,-4.995422512E-3,2.460019556E-2,-1.734985828E-2,3.051461044E-2
2.635403458E0,2.286352683E-3,2.000545350E-2,-4.624212027E-2,5.043589263E-2
2.645401458E0,1.294924378E-2,1.130895818E-2,-3.651352286E-2,4.035855302E-2
2.655399458E0,1.521282887E-2,-8.460781721E-3,-1.420697987E-2,2.246894004E-2
2.665398458E0,1.172361257E-2,-4.309519448E-2,-4.330447912E-3,4.487083305E-2
2.675396458E0,5.400744192E-3,-6.233479521E-2,-4.928033352E-3,6.276209241E-2
2.685394458E0,8.101098016E-3,-4.242577965E-2,-1.076647818E-2,4.451394861E-2
2.695393458E0,-1.049030688E-2,-3.227654132E-2,-2.288658679E-2,4.093430728E-2
2.705391458E0,-4.886572938E-3,-4.649472912E-2,-1.615234852E-2,4.946247864E-2
2.715389458E0,-2.664996441E-3,-2.995445895E-2,-2.722872913E-2,4.056815879E-2
2.725388458E0,-2.043748051E-3,-2.712614247E-2,-2.139086902E-2,3.460597909E-2
2.735386458E0,5.730892606E-3,-2.215980300E-2,-1.630145252E-2,2.810048671E-2
2.745384458E0,1.282082431E-2,-1.650655046E-2,-1.345853627E-2,2.485904146E-2
2.755383458E0,2.627398845E-2,-5.577359798E-3,-2.813095450E-2,3.889447278E-2
2.765381458E0,2.797318932E-2,3.853557226E-3,-2.244395256E-2,3.607048974E-2
2.775380458E0,1.517712431E-2,3.299398783E-2,-1.870348871E-2,4.085056701E-2
2.785378458E0,9.422148485E-3,4.749437002E-2,-1.915430903E-2,5.207090954E-2
2.795376458E0,-5.497332886E-3,4.371943044E-2,-1.556294918E-2,4.673130272E-2
2.805375458E0,-3.755904157E-3,4.774741741E-2,-3.143170774E-2,5.728765083E-2
2.815373458E0,-1.445185030E-2,5.616175717E-2,-2.963427365E-2,6.512441263E-2
2.825371458E0,4.811765123E-3,5.490050818E-2,-1.675987422E-2,5.760305779E-2
2.835370458E0,1.487126011E-2,5.035723989E-2,-8.075004816E-3,5.312449237E-2
2.845368458E0,1.553493736E-2,4.468095480E-2,-9.121071696E-3,4.817588556E-2
2.855366458E0,1.452444714E-2,4.329780051E-2,-2.229426384E-2,5.082020556E-2
2.865365458E0,3.085685335E-3,3.046620453E-2,-2.573944330E-2,4.000287507E-2
2.875363458E0,4.777193461E-3,2.267116942E-2,-1.466364741E-2,2.741944667E-2
2.885361458E0,8.573900219E-3,1.212759692E-2,-1.586291134E-2,2.173067713E-2
2.895360458E0,3.480920568E-5,8.363321655E-3,-3.741808712E-2,3.834135633E-2
2.905358458E0,5.394970067E-4,-1.080901896E-2,-2.978162348E-2,3.168708010E-2
2.915356458E0,1.525374111E-3,-4.160166486E-2,-2.783450067E-2,5.007778662E-2
2.925355458E0,4.731932357E-3,-4.831164175E-2,-1.855555415E-2,5.196839907E-2
2.935353458E0,1.631948752E-2,-4.790490394E-2,-1.002095819E-2,5.159094008E-2
2.945352458E0,1.249321578E-2,-2.941991838E-2,-1.944900870E-2,3.741491651E-2
2.955350458E0,6.971361134E-3,-3.888966685E-2,-1.840177238E-2,4.358475984E-2
2.965348458E0,-6.191105023E-3,-3.496631306E-2,-2.438932121E-2,4.307913438E-2
2.975347458E0,-1.063902715E-2,-2.233960717E-2,-2.379173577E-2,3.432628203E-2
2.985345458E0,-1.981073208E-3,-1.806839429E-2,-1.675519645E-2,2.472100588E-2
2.995343458E0,9.595536701E-3,-5.717059716E-3,-1.645698845E-2,1.988948379E-2
3.005342458E0,5.070888139E-3,3.376813863E-3,-2.049799919E-2,2.138421729E-2
3.015340458E0,7.971783187E-3,1.636098220E-2,-3.711461663E-2,4.133673709E-2
3.025338458E0,6.461721472E-3,2.914346385E-2,-1.121788323E-2,3.188943765E-2
3.035337458E0,-3.209246138E-2,1.850549879E-2,1.962033212E-2,4.192060347E-2
3.045335458E0,-3.721094951E-2,1.437419882E-2,-6.524849474E-2,7.647639127E-2
3.055333458E0,9.556172149E-2,2.485545028E-1,-1.848538756E-1,3.241640615E-1
3.065332458E0,1.324458847E-1,1.232266072E-1,6.421880007E-2,1.919655266E-1
3.075330458E0,2.750519279E-2,-5.035670542E-2,1.062819153E-1,1.207815339E-1
3.085328458E0,6.265035756E-3,-1.416573416E-1,-8.143183351E-2,1.635151265E-1
3.095327458E0,-6.298785154E-2,-5.994519349E-2,-1.050838208E-1,1.363946665E-1
3.105325458E0,-1.103686440E-1,2.147528272E-1,5.239046752E-2,2.470724093E-1
3.115324458E0,-8.947124340E-2,1.602755066E-1,-3.995928705E-2,1.878565571E-1
3.125322458E0,4.577255230E-2,2.567314593E-2,-1.739295226E-1,1.816747528E-1
3.135320458E0,9.076983690E-2,-1.810744364E-1,1.070344520E-1,2.290927514E-1
3.145319458E0,3.338489704E-2,-1.037141745E-1,1.161666334E-1,1.592666571E-1
3.155317458E0,2.854731280E-2,-4.473370651E-3,-1.282738781E-1,1.314882045E-1
3.165315458E0,3.836489752E-2,-4.447711081E-2,-1.405471838E-1,1.523272451E-1
3.175314458E0,1.054615510E-1,-7.681611456E-2,2.200307250E-2,1.323139803E-1
3.185312458E0,-9.639189821E-3,4.051309146E-2,1.124039501E-1,1.198702322E-1
3.195310458E0,-9.803693924E-2,-5.930570909E-2,-8.743166149E-2,1.441273882E-1
3.205309458E0,-6.540335460E-2,-3.231816847E-2,-5.943636239E-2,9.409964920E-2
3.215307458E0,-2.685056046E-2,-2.911216526E-2,3.726430535E-2,5.437921677E-2
3.225305458E0,-2.292198071E-2,-9.315837082E-3,-6.591566205E-3,2.560567838E-2
3.235304458E0,1.779483140E-2,2.393017774E-2,-9.250587523E-2,9.719385980E-2
3.245302458E0,7.704313271E-2,-5.496856886E-2,-2.089210153E-3,9.466547765E-2
3.255300458E0,6.636856545E-2,-1.677457221E-2,7.290600836E-2,1.000072938E-1
3.265299458E0,3.848328536E-2,4.277709225E-2,-6.496315062E-2,8.678164444E-2
3.275297458E0,-8.179414161E-3,5.962347329E-2,-1.065812927E-1,1.223986656E-1
3.285295458E0,-1.135507353E-2,8.480980653E-2,-1.647453010E-2,8.713811520E-2
3.295293500E0,-3.917046111E-2,5.191349918E-2,8.066877186E-2,1.036184693E-1
3.305291500E0,1.361586291E-2,5.537955503E-2,-7.755454481E-2,9.626522871E-2
3.315290500E0,-1.054408299E-2,4.045872149E-2,-8.383620858E-2,9.368348681E-2
3.325288500E0,-3.218150351E-2,1.359418939E-2,2.948341548E-2,4.571348753E-2
3.335286500E0,6.929906202E-2,2.370636185E-2,-2.126106083E-2,7.626522338E-2
3.345285500E0,2.491706897E-2,6.448373375E-2,-3.158432007E-2,7.600382569E-2
3.355283500E0,2.035803147E-2,2.364227089E-2,-1.871284425E-2,3.638099721E-2
3.365281500E0,4.078281255E-2,4.866200874E-2,2.687380314E-3,6.354880728E-2
3.375280500E0,-7.273150552E-3,-3.882613434E-3,-2.680831432E-2,2.804744414E-2
3.385278500E0,-8.407967202E-3,2.282394963E-3,-5.120932996E-2,5.194515102E-2
3.395276500E0,-1.745006494E-2,-2.125759362E-2,-1.528637588E-2,3.146527197E-2
3.405275500E0,-1.918495210E-2,-4.200027594E-2,5.222733021E-3,4.646894131E-2
3.415273500E0,4.136722349E-4,-8.701454031E-3,-2.890571058E-2,3.018984152E-2
3.425271500E0,3.236143330E-2,-4.635201594E-2,-5.091170669E-2,7.607741863E-2
3.435270500E0,-3.879333397E-2,-3.798379153E-2,2.558741570E-2,6.002005517E-2
3.445268500E0,-6.349436659E-3,-6.740677970E-2,-6.740670204E-3,6.803988485E-2
3.455266500E0,4.589112287E-2,-2.708619411E-2,-5.958020389E-2,7.993408388E-2
3.465265500E0,1.370792001E-2,-1.069148536E-3,-7.189151645E-3,1.551560669E-2
3.475263500E0,2.366698908E-2,-9.538249405E-3,1.046885490E-2,2.758081755E-2
3.485261500E0,2.364427630E-2,-5.015058079E-3,-2.142127454E-2,3.229665017E-2
3.495260500E0,-2.025292777E-2,-2.381053365E-2,-3.280054092E-2,4.531002186E-2
3.505258500E0,-2.273094121E-2,-5.105367297E-3,-1.917652845E-2,3.017448769E-2
3.515257500E0,4.407156073E-3,3.323077266E-2,-2.576692522E-2,4.228051219E-2
3.525255500E0,-6.150923688E-3,6.709327301E-2,-4.402719498E-2,8.048437763E-2
3.535253500E0,3.190385213E-2,8.394213455E-2,-2.740882337E-2,9.389026218E-2
3.545252500E0,3.668877488E-2,6.704929098E-2,1.809303939E-2,7.854318365E-2
3.555250500E0,-8.592428584E-3,2.218444354E-2,-4.358514547E-3,2.418627737E-2
3.565248500E0,-1.639846148E-2,2.952216699E-2,-4.103166640E-2,5.314193758E-2
3.575247500E0,-5.720586888E-4,3.518773980E-2,-3.399571180E-2,4.893069287E-2
3.585245500E0,4.267791342E-3,6.998988771E-2,-4.630994797E-4,7.012141532E-2
3.595243500E0,1.014857367E-2,3.242655667E-2,-3.099725962E-2,4.599244751E-2
3.605242500E0,-8.545413315E-3,-7.678439113E-3,-4.641578257E-2,4.781639246E-2
3.615240500E0,-7.380465232E-3,-1.772546652E-2,-1.288141608E-2,2.312129561E-2
3.625238500E0,3.494897241E-2,2.373075342E-2,-2.994534552E-2,5.178130018E-2
3.635237500E0,4.541963629E-2,6.797996329E-3,-3.997799814E-2,6.088839340E-2
3.645235500E0,1.657590620E-2,-3.428420680E-3,-1.138862193E-2,2.040135888E-2
3.655233500E0,-2.268536948E-3,-4.930036023E-2,1.151316762E-2,5.067765590E-2
3.665232500E0,-8.113121353E-3,-7.806428497E-2,-1.244053602E-2,7.946459754E-2
3.675230500E0,-2.038414294E-2,-3.938840694E-2,-2.890629530E-2,5.293896290E-2
3.685229500E0,6.851566304E-3,-7.908801708E-3,-2.516349256E-2,2.725242123E-2
3.695227500E0,1.830675513E-2,-2.973604718E-2,-7.652251124E-3,3.574810110E-2
3.705225500E0,1.008882243E-2,-9.558314377E-3,-1.229260147E-2,1.855407671E-2
3.715224500E0,2.806992419E-3,-1.723173768E-2,-3.025290906E-2,3.492922124E-2
3.725222500E0,1.616868418E-2,-2.873072808E-2,-2.905247569E-2,4.394231933E-2
3.735220500E0,1.351929249E-2,4.788886179E-3,-1.243468881E-2,1.898225977E-2
3.745219500E0,5.096871704E-3,-1.227879199E-2,-9.592941999E-3,1.639424808E-2
3.755217500E0,1.559611386E-2,2.284689653E-2,-6.004505754E-3,2.830677547E-2
3.765215500E0,-4.785288200E-3,2.484986253E-2,-1.288960218E-2,2.839993830E-2
3.775214500E0,-8.083592914E-3,2.389057655E-2,-3.639014661E-2,4.427580483E-2
3.785212500E0,-1.033093370E-3,3.795114306E-2,-3.489384413E-2,5.156488048E-2
3.795210500E0,1.939468442E-2,2.525134698E-2,-2.276730359E-2,3.914248868E-2
3.805209500E0,1.954749774E-2,3.788361229E-2,-1.543255627E-2,4.533692249E-2
3.815207500E0,3.208423873E-2,2.772349494E-2,-2.007173717E-2,4.691337954E-2
3.825205500E0,1.918570127E-2,1.518624460E-2,-2.291582286E-2,3.352384369E-2
3.835204500E0,3.834786750E-3,2.269327692E-2,-3.488507330E-2,4.179304663E-2
3.845202500E0,7.928641699E-4,2.203108432E-2,-2.246383309E-2,3.147413394E-2
3.855201500E0,4.055354688E-3,1.913522564E-2,-7.497299910E-3,2.094784638E-2
3.865199500E0,-6.473964080E-5,3.968123253E-3,-6.305637360E-3,7.450587620E-3
3.875197500E0,-1.000687005E-2,-1.648486780E-2,-1.409120500E-2,2.388410293E-2
3.885196500E0,3.472825829E-3,6.347306765E-4,-3.220704854E-2,3.239995953E-2
3.895194500E0,1.090874825E-2,1.918262235E-2,-4.253790915E-2,4.792126358E-2
3.905192500E0,2.460771471E-2,1.595315261E-2,-1.440227687E-2,3.267213309E-2
3.915191500E0,2.963569891E-2,-1.673609250E-2,-1.649967313E-2,3.782341411E-2
3.925189500E0,2.235211473E-2,-1.287204455E-2,-1.320769072E-2,2.897843436E-2
3.935187500E0,1.324578898E-2,7.876864719E-3,-4.179882109E-2,4.454926900E-2
3.945186500E0,-7.637304179E-3,2.207227293E-2,-3.700702786E-2,4.376109869E-2
3.955184500E0,-7.578009758E-3,1.412599593E-2,-1.245983183E-2,2.030313775E-2
3.965182500E0,-7.753974404E-3,-2.538465892E-2,1.611492634E-3,2.659138839E-2
3.975181500E0,-1.033782246E-2,-1.520356583E-3,-1.320652127E-2,1.684025717E-2
3.985179500E0,-1.307722472E-2,1.866428952E-2,-3.296426296E-2,4.007508131E-2
3.995178500E0,6.910714544E-3,3.878253490E-2,-3.655854642E-2,5.374356059E-2
4.005176500E0,2.245586626E-2,1.290098141E-2,-2.143589258E-2,3.361842860E-2
4.015174500E0,1.879430328E-2,-7.586442539E-4,-6.016200185E-3,1.974831743E-2
4.025173500E0,2.490133630E-2,4.501395031E-3,-1.006071925E-2,2.723154749E-2
4.035171500E0,1.055780567E-2,2.114755633E-2,-2.517986476E-2,3.453566257E-2
4.045169500E0,-9.308401868E-4,2.582033131E-2,-2.338827789E-2,3.485064583E-2
4.055168500E0,-6.297743618E-3,-3.633922330E-3,-2.863147616E-2,2.954028425E-2
4.065166500E0,-8.157943916E-3,-4.359870713E-3,-1.275920928E-2,1.575937635E-2
4.075164500E0,-6.713151745E-3,1.540168023E-3,-2.875075936E-3,7.463550465E-3
4.085163500E0,5.809738655E-3,8.380007347E-3,-1.978873193E-2,2.226143522E-2
4.095161500E0,7.317260485E-3,1.694983336E-2,-3.924475729E-2,4.337038306E-2
4.105159500E0,1.181574276E-2,-1.289971604E-2,-3.235556781E-2,3.678175117E-2
4.115158500E0,2.679351356E-2,-4.439056517E-3,-2.097980976E-2,3.431836257E-2
4.125156500E0,2.519287482E-2,8.883941977E-4,-7.958060503E-3,2.643484278E-2
4.135154500E0,5.570148993E-3,4.081753953E-3,-1.155351341E-2,1.345997575E-2
4.145153500E0,-8.139543459E-3,4.603894323E-4,-1.948876977E-2,2.112525203E-2
4.155151500E0,-1.679747913E-2,-1.046656398E-2,-2.008810937E-2,2.819993626E-2
4.165150500E0,-1.485052077E-2,-3.803628057E-3,-2.293219507E-2,2.758425500E-2
4.175148500E0,1.220496632E-3,2.830331603E-3,-1.469697654E-2,1.501670765E-2
4.185146500E0,4.619757179E-3,9.852962655E-3,-2.337775290E-2,2.578647630E-2
4.195145500E0,1.802252563E-2,1.596543405E-3,-1.649031758E-2,2.448041983E-2
4.205143500E0,2.671633031E-2,-8.729557211E-3,-2.083187521E-2,3.498477525E-2
4.215141500E0,3.023165809E-2,-6.314530381E-4,-2.367420673E-2,3.840338459E-2
4.225140500E0,2.234582897E-2,9.728318746E-3,-1.962968767E-2,3.129378366E-2
4.235138500E0,1.135682769E-2,2.045095195E-2,-1.259665668E-2,2.656867950E-2
4.245136500E0,-5.379822124E-3,1.445098464E-2,-7.511333227E-3,1.715207188E-2
4.255135500E0,-1.602919154E-2,6.738599696E-3,-1.125296652E-2,2.071166248E-2
4.265133500E0,-2.077117380E-2,1.176509125E-2,-2.143296897E-2,3.208163325E-2
4.275132500E0,-1.425269779E-2,2.116467999E-2,-2.712289453E-2,3.723888399E-2
4.285130500E0,4.362991322E-3,2.289349838E-2,-1.978990138E-2,3.057430551E-2
4.295129125E0,2.382153830E-2,1.089794917E-2,-6.314408183E-3,2.694629350E-2
4.305128125E0,2.318006219E-2,9.776460060E-3,-2.323157251E-2,3.424325358E-2
4.315126125E0,2.611624153E-2,8.392450953E-3,-3.804958642E-2,4.690695397E-2
4.325124125E0,2.463384446E-2,1.518869426E-2,-2.562191427E-2,3.865236366E-2
4.335123125E0,1.290716210E-2,7.166410316E-3,-1.903794944E-2,2.409140489E-2
4.345121125E0,5.086894892E-3,-4.308102298E-3,-7.215464115E-3,9.823398976E-3
4.355119125E0,-9.744366612E-3,-1.961120498E-2,-8.263285160E-3,2.340585233E-2
4.365118125E0,-1.920879778E-2,-1.203324890E-2,-1.814507961E-2,2.903482229E-2
4.375116125E0,-1.758981340E-2,-1.475882912E-3,-2.488048732E-2,3.050603899E-2
4.385114125E0,3.599984497E-3,-9.511006177E-3,-1.634647608E-2,1.925165985E-2
4.395113125E0,1.417715907E-2,-8.421774968E-3,-2.098565698E-2,2.668924749E-2
4.405111125E0,1.963421926E-2,-1.027876444E-2,-1.784394801E-2,2.845280381E-2
4.415110125E0,1.892615799E-2,-5.221271788E-3,-2.218609035E-2,2.962572768E-2
4.425108125E0,1.457820497E-2,7.130515035E-3,-1.739546657E-2,2.379013581E-2
4.435106125E0,8.976992648E-3,8.059004344E-3,-1.484958887E-2,1.913228260E-2
4.445105125E0,-5.508314688E-3,1.083553585E-2,-6.168227792E-3,1.363075207E-2
4.455103125E0,-8.243258446E-3,7.165498401E-3,1.198679209E-4,1.092291378E-2
4.465101125E0,-1.298365099E-2,1.324126652E-2,-3.116624415E-2,3.626625300E-2
4.475100125E0,-5.154576413E-3,1.494523196E-2,-2.802044213E-2,3.217257828E-2
4.485098125E0,4.741598535E-3,1.893351726E-2,-4.133922994E-2,4.571534496E-2
4.495096125E0,2.071940767E-2,1.407774498E-2,-2.457000017E-2,3.508791339E-2
4.505095125E0,3.213346498E-2,4.185007559E-3,-1.723232925E-2,3.670186686E-2
4.515093125E0,3.156257574E-2,1.521318747E-2,-2.097864032E-2,4.083797999E-2
4.525091125E0,2.278884692E-2,9.000805776E-3,-1.693879902E-2,2.978706029E-2
4.535090125E0,9.204412792E-3,8.691562872E-3,-1.469405293E-2,1.939535181E-2
4.545088125E0,-6.220797915E-3,1.434896443E-2,-1.693938375E-2,2.305501743E-2
4.555087125E0,-1.506438268E-2,2.633694994E-3,-1.140090108E-2,1.907491862E-2
4.565085125E0,-6.759198569E-4,5.728607395E-3,-2.622008443E-2,2.684709738E-2
4.575083125E0,-7.494559027E-3,-1.373711384E-3,-3.729880393E-2,3.806909865E-2
4.585082125E0,1.646046024E-3,1.422548539E-2,-1.902976334E-2,2.381608270E-2
4.595080125E0,2.295852581E-2,-6.643884510E-3,-1.469054461E-2,2.805436169E-2
4.605078125E0,2.411910675E-2,8.893493952E-3,-1.438999772E-2,2.946010149E-2
4.615077125E0,3.084112069E-2,-1.695103706E-2,-1.993198872E-2,4.044498185E-2
4.625075125E0,3.035779350E-2,-1.006556376E-2,-1.783927023E-2,3.662172528E-2
4.635073125E0,2.104339823E-3,-7.161539539E-3,-3.469737768E-3,8.231341011E-3
4.645072125E0,1.444284193E-2,-6.582869043E-3,-1.589565575E-2,2.246334169E-2
4.655070125E0,-4.335162230E-4,1.437897024E-2,-1.903736472E-2,2.386134902E-2
4.665069125E0,-1.465109417E-2,4.587076725E-3,-1.544483542E-2,2.177702401E-2
4.675067125E0,-2.217885442E-3,-3.218332620E-3,-3.056339622E-2,3.081230061E-2
4.685065125E0,1.543571742E-2,2.063082121E-3,-2.592246115E-2,3.024056336E-2
4.695064125E0,1.029568596E-2,2.233579963E-2,-2.172649920E-2,3.281660954E-2
4.705062125E0,1.816762794E-2,2.849079581E-2,-6.310899854E-3,3.437463611E-2
4.715060125E0,2.080417402E-2,2.337345428E-2,-3.879861474E-2,4.984440317E-2
4.725059125E0,1.202101657E-2,1.486932437E-2,-1.005954981E-2,2.160546664E-2
4.735057125E0,1.410306389E-2,1.414332174E-2,-1.080799341E-2,2.270996879E-2
4.745055125E0,5.680990275E-3,1.993953985E-2,-2.412912011E-2,3.181310009E-2
4.755054125E0,5.265837964E-3,2.235664175E-2,-2.951849878E-2,3.740174127E-2
4.765052125E0,4.532633666E-3,1.819351557E-2,-2.457935572E-2,3.091429288E-2
4.775051125E0,1.608453909E-2,1.428773083E-2,-1.006013453E-2,2.374990435E-2
4.785049125E0,1.865979904E-2,6.530869937E-3,-2.697554469E-2,3.344428761E-2
4.795047125E0,1.233398879E-2,1.069393730E-2,-1.185932279E-2,2.017749022E-2
4.805046125E0,-1.620520369E-1,4.451000140E-2,1.448238373E-2,1.686764427E-1
4.815044125E0,-1.681414735E-1,-2.700242133E-2,9.530376792E-2,1.951499271E-1
4.825042125E0,-3.112604454E-2,-5.621713670E-2,3.430193049E-1,3.489863043E-1
4.835041125E0,-4.006450038E-2,-3.025147924E-2,4.396942449E-1,4.425509520E-1
4.845039125E0,1.364546444E-1,1.667819045E-1,2.425308108E-1,3.244337650E-1
4.855037125E0,4.466827639E-1,-4.200266051E-2,1.739388782E-1,4.811906570E-1
4.865036125E0,-4.231301062E-2,3.538440496E-2,3.833194846E-1,3.872677036E-1
4.875034125E0,1.839329392E-2,7.456372141E-2,5.067740875E-1,5.125602771E-1
4.885033125E0,4.503488585E-1,-1.441173566E-1,-1.373095804E-1,4.923797596E-1
4.895031125E0,3.356764080E-2,9.422058949E-2,-8.684910339E-1,8.742316524E-1
4.905029125E0,-7.371661518E-2,1.482683589E-1,3.695715111E-1,4.049700575E-1
4.915028125E0,5.637000941E-2,7.668525113E-3,-5.746883279E-1,5.774972368E-1
4.925026125E0,-5.809121773E-1,6.433399022E-2,-7.782492006E-1,9.732777806E-1
4.935024125E0,-7.246703596E-1,-2.030343309E-1,-3.285673267E-1,8.211738901E-1
4.945023125E0,-9.643089183E-2,6.720276669E-2,-1.556610668E-1,1.950525479E-1
4.955021125E0,8.320925550E-1,-3.093457381E-1,4.520400560E-1,9.961992863E-1
4.965019125E0,-2.257354148E-1,1.249482651E-1,-2.093852842E-1,3.322811214E-1
4.975018125E0,-1.458782913E-1,-1.860897943E-1,-1.490537131E-1,2.795118902E-1
4.985016125E0,3.875311244E-1,2.950311786E-2,1.094949603E-1,4.037820609E-1
4.995015125E0,-1.304038909E-1,1.912178572E-1,-1.055907744E-1,2.543990081E-1
5.005013125E0,2.820988643E-1,-2.628439923E-2,2.195395589E-2,2.841700461E-1
5.015011125E0,1.364824004E-1,-3.967410281E-2,-1.252204621E-1,1.894245079E-1
5.025010125E0,7.878995184E-2,1.551675252E-1,-6.894919753E-2,1.871865626E-1
5.035008125E0,1.121437490E-2,1.356940861E-1,-7.915609717E-2,1.574939203E-1
5.045006125E0,1.229491843E-1,-2.391582648E-1,1.703761697E-2,2.694502884E-1
5.055005125E0,5.915956981E-3,1.206642111E-1,-4.664674759E-2,1.295020056E-1
5.065003125E0,1.736319724E-2,-2.105027785E-2,-4.281389773E-2,5.077031273E-2
5.075001125E0,2.000891615E-2,-7.590532850E-2,-3.030319512E-2,8.414427642E-2
5.085000125E0,5.779022500E-3,1.744042252E-1,-6.404396832E-2,1.858813082E-1
5.094998125E0,-3.390102345E-2,-1.293833599E-1,6.570867062E-2,1.490200074E-1
5.104997125E0,-2.302225315E-1,-7.326177489E-2,7.768961549E-2,2.537821468E-1
5.114995125E0,-9.791557297E-2,1.449909671E-1,2.441680312E-2,1.766522580E-1
5.124993125E0,-6.496296789E-2,1.348863846E-1,-6.657522798E-2,1.638498854E-1
5.134992125E0,-6.768228862E-2,-1.479547929E-1,8.597161174E-3,1.629276652E-1
5.144990125E0,-6.845920086E-3,-1.863495637E-3,-3.568438768E-2,3.638289106E-2
5.154988125E0,1.110539742E-2,-5.250689564E-2,-1.232008338E-3,5.368260226E-2
5.164987125E0,-9.032336544E-2,2.152238569E-2,-1.349186540E-2,9.382725544E-2
5.174985125E0,5.907467555E-2,9.619244192E-3,-3.263564944E-2,6.817208201E-2
5.184983125E0,6.947575757E-2,-6.345519025E-2,-4.071299314E-2,1.025231187E-1
5.194982125E0,8.546981100E-2,2.063076982E-2,-4.729052603E-2,9.983542011E-2
5.204980125E0,4.460373044E-2,1.647108344E-2,-8.966120481E-3,4.838574868E-2
5.214979125E0,6.166382264E-2,-3.985255252E-2,-1.839650989E-2,7.569071635E-2
5.224977125E0,7.768152075E-2,-1.264818298E-2,-3.905296862E-2,8.786085338E-2
5.234975125E0,1.672895707E-2,6.343543762E-2,-4.803780019E-2,8.131139526E-2
5.244974125E0,-4.326281771E-3,7.539644714E-2,-4.176081419E-2,8.629777841E-2
5.254972125E0,-6.404760456E-2,-2.375860535E-2,1.332054198E-2,6.959887798E-2
5.264970125E0,-3.225400899E-2,-5.272156611E-2,9.128088355E-3,6.247564826E-2
5.274969125E0,-2.240689583E-2,4.754451903E-2,-2.679661989E-2,5.899668727E-2
5.284967125E0,2.145485949E-2,6.051519195E-2,-4.356584966E-2,7.759112519E-2
5.294965083E0,3.896164242E-3,1.938718353E-2,-3.114051640E-2,3.688868042E-2
5.304964083E0,2.866800299E-2,-5.162752465E-2,7.784398198E-3,5.956385273E-2
5.314962083E0,4.613422086E-2,2.316593980E-2,-7.178626657E-3,5.212062722E-2
5.324960083E0,1.928106571E-2,3.480284455E-2,4.498263001E-3,4.004037779E-2
5.334959083E0,3.996787515E-2,4.755421262E-2,-3.816770017E-2,7.290821296E-2
5.344957083E0,3.897918407E-3,-5.376128328E-2,-2.484949708E-2,5.935458578E-2
5.354956083E0,-9.678165168E-3,-8.034801211E-3,-3.997332036E-2,4.190574248E-2
5.364954083E0,-3.126767507E-2,7.861528911E-3,-4.799979329E-3,3.259617988E-2
5.374952083E0,-9.833025020E-3,2.616672402E-2,-9.740291834E-3,2.960167414E-2
5.384951083E0,-1.002309607E-2,-1.854842557E-2,-2.665394783E-2,3.398440056E-2
5.394949083E0,-4.200310819E-3,-5.296596145E-2,-3.264149666E-2,6.235786228E-2
5.404947083E0,1.898976473E-2,-5.979691632E-3,-3.264091194E-2,3.823345405E-2
5.414946083E0,3.243112480E-2,-2.943120339E-3,-1.512265384E-2,3.590451883E-2
5.424944083E0,5.199371567E-2,2.400000171E-2,-3.296075463E-3,5.736035796E-2
5.434943083E0,2.472747300E-2,-5.051960063E-3,8.676098585E-3,2.668791689E-2
5.444941083E0,1.505206699E-2,3.707857631E-2,-7.047064304E-3,4.063307344E-2
5.454939083E0,-7.402776014E-3,1.467841620E-2,-1.603248060E-2,2.296295776E-2
5.464938083E0,3.890444934E-3,2.123112126E-2,-4.088256240E-2,4.623072550E-2
5.474936083E0,-2.451949485E-2,1.908332932E-2,4.618130922E-3,3.141188021E-2
5.484934083E0,-8.057846893E-3,4.430995353E-2,2.527108133E-2,5.164231240E-2
5.494933083E0,2.251232844E-3,4.583146300E-2,6.859368682E-3,4.639657303E-2
5.504931083E0,2.717219386E-3,-1.305276006E-2,-6.155246973E-2,6.297987263E-2
5.514929083E0,-9.332411997E-3,-1.217918832E-1,2.516056895E-3,1.221748226E-1
5.524928083E0,-1.750967000E-2,-6.424228943E-2,-2.558741570E-3,6.663488165E-2
5.534926083E0,-9.251519423E-3,-9.845298462E-3,1.063374639E-2,1.719293680E-2
5.544924083E0,1.897752212E-2,5.997658116E-2,5.865926743E-3,6.318026377E-2
5.554923083E0,-5.621969942E-3,7.304581620E-3,5.214196086E-2,5.295042531E-2
5.564921083E0,-5.502814651E-2,2.699744891E-2,5.186772645E-2,8.029458389E-2
5.574920083E0,-5.251360623E-2,-1.543928422E-1,1.439613730E-1,2.175309299E-1
5.584918083E0,-6.915531188E-2,-3.867070690E-1,3.273896974E-1,5.113793390E-1
5.594916083E0,1.145326290E-1,-3.196855157E-1,3.952513129E-1,5.210951471E-1
5.604915083E0,2.522656574E-1,1.690909517E-1,2.693753779E-1,4.059468020E-1
5.614913083E0,1.937861188E-1,5.593191408E-1,2.293810076E-1,6.348280143E-1
5.624911083E0,-4.427701727E-2,-1.677525423E-1,5.703695744E-1,5.961734824E-1
5.634910083E0,-5.843484398E-2,1.940362883E-1,4.955421710E-1,5.353753407E-1
5.644908083E0,1.801430298E-2,2.122203798E-1,5.052818781E-1,5.483354640E-1
5.654907083E0,-4.483772870E-3,5.691967509E-2,6.700938374E-1,6.725218989E-1
5.664905083E0,2.593065822E-1,4.535207903E-1,5.533021367E-1,7.609627226E-1
5.674903083E0,3.812503377E-2,-7.299793756E-2,8.570012552E-1,8.609491091E-1
5.684902083E0,-2.171535660E-1,-1.502709572E-1,1.012384579E0,1.046259799E0
5.694900083E0,-1.294450388E-1,7.821944860E-3,1.029604629E0,1.037739319E0
5.704898083E0,3.705506640E-2,-5.655118173E-2,1.133510821E0,1.135525383E0
5.714897083E0,4.777544294E-2,-2.931697084E-1,1.238777075E0,1.273891523E0
5.724895083E0,-2.838006416E-2,-2.547973374E-1,1.173697565E0,1.201371335E0
5.734893083E0,3.030118514E-2,1.126420688E-1,9.955913758E-1,1.002401409E0
5.744892083E0,5.672245033E-2,2.401785673E-1,9.382863235E-1,9.701981269E-1
5.754890083E0,-2.299529018E-2,-3.879707254E-1,1.032170388E0,1.102916940E0
5.764889083E0,2.279978121E-1,2.054679786E-1,5.404476178E-1,6.215172726E-1
5.774887083E0,1.479998804E-1,2.286530840E-1,4.193266386E-1,5.000210268E-1
5.784885083E0,1.103157084E-1,2.557024315E-1,3.336538196E-1,4.346011508E-1
5.794884083E0,7.666024972E-2,2.219439340E-1,3.217898190E-1,3.983523457E-1
5.804882083E0,-2.092841456E-1,-4.585641234E-1,6.918068880E-1,8.559659334E-1
5.814880083E0,-4.414181868E-2,2.588716407E-1,4.319390827E-1,5.055041026E-1
5.824879083E0,-4.630559910E-2,3.069437385E-1,3.484069294E-1,4.666326773E-1
5.834877083E0,-8.281338438E-2,-2.810595080E-2,3.044042927E-1,3.167174995E-1
5.844875083E0,5.709533824E-2,-3.364545262E-1,1.954402596E-1,3.932663486E-1
5.854874083E0,8.950064393E-2,-4.172831463E-1,2.764259505E-1,5.084750688E-1
5.864872083E0,5.333002372E-2,6.531624479E-2,2.204359370E-1,2.360133590E-1
5.874871083E0,1.101008598E-1,2.360032168E-1,2.045332646E-1,3.311398104E-1
5.884869083E0,9.970959010E-2,-1.265811640E-1,3.191515553E-1,3.575227387E-1
5.894867083E0,9.128071910E-2,-1.967636855E-1,2.983079857E-1,3.688302752E-1
5.904866083E0,2.523439005E-4,6.038162875E-2,1.716368294E-1,1.819483607E-1
5.914864083E0,-1.309309077E-1,3.931107934E-1,6.938247621E-2,4.201106122E-1
5.924862083E0,-6.078261070E-2,-6.753641887E-2,1.104065412E-1,1.429870553E-1
5.934861083E0,-9.390434649E-2,-1.115744677E-1,1.061047447E-1,1.803471790E-1
5.944859083E0,-1.258030458E-1,2.788281512E-1,8.550558865E-2,3.176204494E-1
5.954857083E0,5.711699121E-2,9.517121885E-2,2.135227740E-1,2.406488865E-1
5.964856083E0,2.660729436E-1,-2.244770209E-1,3.585740680E-1,4.997600488E-1
5.974854083E0,3.399696165E-1,-2.445723662E-1,3.646838236E-1,5.553280774E-1
5.984853083E0,2.146572800E-1,1.139646199E-2,2.788513756E-1,3.520876551E-1
5.994851083E0,-3.621456569E-2,1.117910705E-1,3.283351922E-1,3.487301774E-1
6.004849083E0,-3.315491874E-2,1.377695599E-2,3.781207252E-1,3.798214527E-1
6.014848083E0,-1.844747202E-2,7.555961644E-3,3.653521603E-1,3.658956174E-1
6.024846083E0,-2.116564524E-1,5.648371491E-2,4.473780710E-1,4.981325148E-1
6.034844083E0,-3.022679394E-1,-7.648375060E-3,4.489112109E-1,5.412445659E-1
6.044843083E0,-1.771815795E-1,1.601931888E-1,2.467466533E-1,3.434225980E-1
6.054841083E0,-2.652360974E-2,1.983176013E-1,-4.748523831E-2,2.056409996E-1
6.064839083E0,4.191636840E-2,-2.293661702E-1,-1.077524900E-1,2.568587571E-1
6.074838083E0,9.261061348E-2,-1.468975706E-1,-3.271517158E-1,3.703834055E-1
6.084836083E0,1.445572042E-1,1.758447050E-1,-5.512193584E-1,5.963731439E-1
6.094835083E0,8.015123846E-2,-2.309100636E-2,-4.763732439E-1,4.836205983E-1
6.104833083E0,1.183616416E-1,-3.949455674E-2,-4.998995161E-1,5.152366683E-1
6.114831083E0,3.773116898E-3,-4.368131390E-2,-4.969267917E-1,4.988572239E-1
6.124830083E0,-7.211942995E-2,5.728454591E-2,-5.699906749E-1,5.773838418E-1
6.134828083E0,7.898437176E-3,1.809186447E-1,-7.092099559E-1,7.319649602E-1
6.144826083E0,-4.995954243E-2,-4.638277321E-2,-6.620381284E-1,6.655387299E-1
6.154825083E0,-1.190951200E-1,3.915629075E-3,-5.943408197E-1,6.061682850E-1
6.164823083E0,-7.653415086E-2,2.659384713E-2,-5.335338700E-1,5.396509051E-1
6.174821083E0,3.339597020E-2,1.248644009E-2,-6.135910231E-1,6.146260209E-1
6.184820083E0,8.048016261E-2,-1.378139850E-1,-6.759930933E-1,6.945764272E-1
6.194818083E0,1.856652682E-1,-8.622230197E-2,-8.083214307E-1,8.338401600E-1
6.204817083E0,6.775059141E-3,7.418939454E-2,-8.152158827E-1,8.186127919E-1
6.214815083E0,-9.491028685E-2,-7.419694110E-3,-7.280999708E-1,7.342973389E-1
6.224813083E0,1.533925664E-3,-1.760546932E-1,-6.043103224E-1,6.294351227E-1
6.234812083E0,-5.835835509E-2,-1.055932047E-1,-4.673340333E-1,4.826559034E-1
6.244810083E0,-5.040245075E-2,1.204684665E-1,-4.679064757E-1,4.857875342E-1
6.254808083E0,-5.612055257E-2,2.077743032E-1,-4.904796517E-1,5.356211032E-1
6.264807083E0,-3.786976626E-2,-1.528652663E-2,-4.105031902E-1,4.125295944E-1
6.274805083E0,2.908149250E-3,-6.161709060E-4,-4.339680666E-1,4.339782481E-1
6.284803083E0,2.664939797E-2,3.602274504E-2,-4.536959875E-1,4.559033643E-1
6.294801958E0,-1.609884650E-3,2.356467194E-1,-4.866052866E-1,5.406631789E-1
6.304799958E0,2.692549618E-2,6.661103304E-2,-3.548628402E-1,3.620630434E-1
6.314798958E0,2.285595651E-1,-2.157373338E-1,-1.942521054E-1,3.694806523E-1
6.324796958E0,6.252234008E-2,-1.330984157E-1,2.731234431E-3,1.470771598E-1
6.334794958E0,-5.161373802E-2,8.882952061E-2,5.242204249E-2,1.153374710E-1
6.344793958E0,-4.551719343E-2,1.387534133E-1,6.380072415E-2,1.593576387E-1
6.354791958E0,3.325048417E-2,-1.259222741E-1,1.364056009E-1,1.885961341E-1
6.364789958E0,9.732527828E-2,-1.022266154E-1,1.010819864E-1,1.736089245E-1
6.374788958E0,-4.487323226E-2,2.461337463E-2,9.840337694E-2,1.109173105E-1
6.384786958E0,-1.435825282E-1,2.345912421E-1,1.069572687E-1,2.951082016E-1
6.394784958E0,-3.182330674E-2,5.466239403E-2,2.086333323E-1,2.180104757E-1
6.404783958E0,1.148833888E-1,-1.265570808E-1,2.775258118E-1,3.259378222E-1
6.414781958E0,1.007872502E-1,-3.858075114E-2,2.821930593E-1,3.021249194E-1
6.424779958E0,-1.411112208E-2,1.012654063E-1,2.982419121E-1,3.152808976E-1
6.434778958E0,-3.387197010E-2,7.205630286E-2,3.407909310E-1,3.499683983E-1
6.444776958E0,5.124797640E-2,-8.784513272E-2,3.794468737E-1,3.928397286E-1
6.454775958E0,1.554401882E-1,-1.538047220E-1,4.129952735E-1,4.673142845E-1
6.464773958E0,3.654897161E-2,-3.189110703E-2,4.504379189E-1,4.530421491E-1
6.474771958E0,-8.951319717E-2,1.115420431E-1,4.613897538E-1,4.830473525E-1
6.484770958E0,5.636788979E-2,-1.134564672E-1,5.355131525E-1,5.502945079E-1
6.494768958E0,-1.217757577E-2,-6.703724938E-2,6.150387937E-1,6.188012636E-1
6.504766958E0,-2.137639716E-2,-6.758880626E-2,6.902298939E-1,6.938605793E-1
6.514765958E0,-5.652444899E-2,1.516833978E-1,6.037530828E-1,6.250765165E-1
6.524763958E0,6.413902212E-3,-4.939252697E-2,7.258078623E-1,7.275148197E-1
6.534762958E0,5.600406507E-2,4.250589108E-2,6.656879604E-1,6.693905188E-1
6.544760958E0,9.421951141E-2,2.801837505E-2,6.479194415E-1,6.553334634E-1
6.554758958E0,-3.102750069E-2,1.611805094E-1,6.481176621E-1,6.685793643E-1
6.564757958E0,9.970820138E-2,-1.113173090E-1,7.267486793E-1,7.419547908E-1
6.574755958E0,9.262068165E-2,1.318553982E-2,6.469944119E-1,6.537233499E-1
6.584753958E0,6.408961315E-2,-1.042285924E-1,6.631888604E-1,6.743816001E-1
6.594752958E0,1.841620769E-2,1.103737511E-1,5.055923653E-1,5.178273472E-1
6.604750958E0,-6.760711536E-2,-5.939622673E-2,5.506878465E-1,5.579925968E-1
6.614748958E0,-3.971238837E-2,6.781760599E-2,4.588169789E-1,4.654990028E-1
6.624747958E0,3.782962147E-2,-4.962767640E-2,5.111033660E-1,5.148986670E-1
6.634745958E0,5.646166451E-2,1.560123383E-1,3.820827985E-1,4.165513583E-1
6.644744958E0,2.164733521E-1,-7.509314111E-2,4.242803997E-1,4.821965881E-1
6.654742958E0,-7.068951163E-2,6.820842840E-2,4.660236722E-1,4.762640652E-1
6.664740958E0,-2.018010800E-1,1.269963620E-1,4.896815068E-1,5.446464265E-1
6.674739958E0,1.123293981E-2,-2.437970300E-2,4.362531585E-1,4.370782162E-1
6.684737958E0,2.983033810E-2,5.517942494E-2,3.790726519E-1,3.842273980E-1
6.694735958E0,3.628888015E-2,-1.429983731E-1,4.732210100E-1,4.956849219E-1
6.704734958E0,-4.983051997E-2,3.732413425E-2,4.778555131E-1,4.818942447E-1
6.714732958E0,6.261198521E-2,-1.674294105E-1,4.860708511E-1,5.178974227E-1
6.724730958E0,2.432540383E-2,1.070129269E-1,3.718419850E-1,3.876982765E-1
6.734729958E0,2.253107607E-2,-8.192521974E-2,4.002664697E-1,4.091853343E-1
6.744727958E0,-7.520970169E-2,1.653827571E-1,3.081897801E-1,3.577553580E-1
6.754726958E0,4.795199230E-2,-1.186892958E-2,3.571163571E-1,3.605167923E-1
6.764724958E0,-1.554657698E-2,3.866623926E-2,3.737090009E-1,3.760255197E-1
6.774722958E0,9.065596238E-3,5.140230635E-2,3.820635027E-1,3.856123730E-1
6.784721958E0,-2.986995298E-2,1.256876181E-1,3.666227603E-1,3.887182010E-1
6.794719958E0,9.511088289E-2,-3.803680934E-2,4.161369824E-1,4.285590590E-1
6.804717958E0,9.163398229E-2,-5.419986100E-2,4.375114793E-1,4.502784762E-1
6.814716958E0,-1.968415814E-2,8.325909753E-2,4.136682880E-1,4.224227691E-1
6.824714958E0,9.627696387E-3,2.556426438E-2,4.494006228E-1,4.502301011E-1
6.834712958E0,1.123642438E-1,-1.300038956E-1,4.768901378E-1,5.069032844E-1
6.844711958E0,7.445544742E-2,-1.094728140E-1,4.624673957E-1,4.810446993E-1
6.854709958E0,-1.596768614E-2,-5.174402129E-3,4.025521463E-1,4.029019384E-1
6.864708958E0,-3.895743974E-2,1.011533773E-1,3.098574060E-1,3.282701630E-1
6.874706958E0,3.280812403E-2,-6.597402000E-3,2.574283469E-1,2.595944000E-1
6.884704958E0,3.601537663E-3,6.211695902E-3,2.065084541E-1,2.066332448E-1
6.894703958E0,5.004845666E-2,-7.831658319E-2,1.915156084E-1,2.128768740E-1
6.904701958E0,2.267760364E-2,-3.107288513E-2,2.106558841E-1,2.141394392E-1
6.914699958E0,7.915077986E-2,3.643956929E-2,1.865261793E-1,2.058754568E-1
6.924698958E0,2.065713482E-2,1.179550956E-1,1.581993431E-1,1.984115772E-1
6.934696958E0,-3.593581796E-2,1.102694880E-1,1.509844637E-1,1.903865837E-1
6.944694958E0,-1.608892450E-2,-2.639215017E-2,1.373405707E-1,1.407758198E-1
6.954693958E0,7.766544091E-2,-1.688452590E-1,1.108211088E-1,2.163838265E-1
6.964691958E0,6.467979820E-2,-1.414251066E-1,7.083258569E-2,1.708853191E-1
6.974690958E0,-4.802575858E-2,9.946179606E-2,2.706676126E-3,1.104827971E-1
6.984688958E0,-3.589415655E-2,1.316631527E-1,-7.111208260E-2,1.538847119E-1
6.994686958E0,3.288441192E-2,-5.875378675E-2,-1.215723842E-1,1.389720713E-1
7.004685958E0,-5.809462739E-2,-1.042250019E-1,-1.185780251E-1,1.682218321E-1
7.014683958E0,-4.843860855E-2,-3.927528159E-2,-1.890732265E-1,1.990917665E-1
7.024681958E0,1.352530416E-2,9.668605884E-2,-3.116677040E-1,3.266004984E-1
7.034680958E0,4.765888235E-2,1.791161126E-1,-4.134706521E-1,4.531135961E-1
7.044678958E0,-4.856613267E-2,1.223808532E-1,-3.362388736E-1,3.610987712E-1
7.054676958E0,8.052717788E-2,-1.163159201E-1,-2.150114751E-1,2.573790086E-1
7.064675958E0,2.287346527E-1,-2.223106457E-1,-2.219445187E-1,3.885883862E-1
7.074673958E0,1.193011247E-1,1.642914337E-2,-3.007351649E-1,3.239510989E-1
7.084672958E0,-1.307845994E-1,2.010839190E-1,-3.449471319E-1,4.201522078E-1
7.094670958E0,-8.338728860E-2,2.949394961E-2,-3.334544295E-1,3.449857816E-1
7.104668958E0,1.480262842E-2,-1.447363757E-1,-2.869222873E-1,3.217019354E-1
7.114667958E0,-6.917727549E-2,-6.700585257E-2,-2.869211179E-1,3.026532795E-1
7.124665958E0,-1.618217663E-1,1.616032449E-1,-3.852630991E-1,4.480285128E-1
7.134663958E0,3.871543810E-2,1.360536168E-1,-4.966391087E-1,5.163912045E-1
7.144662958E0,1.893550074E-1,-2.523048521E-1,-4.993551403E-1,5.906510081E-1
7.154660958E0,1.453164835E-1,2.466242272E-2,-6.299240506E-1,6.469385017E-1
7.164658958E0,-7.813451551E-2,1.511992210E-1,-6.720298505E-1,6.932462238E-1
7.174657958E0,-2.471438985E-2,-1.347047281E-1,-5.954219699E-1,6.109693012E-1
7.184655958E0,9.358834103E-3,3.007597826E-2,-6.155159265E-1,6.163213512E-1
7.194654958E0,-1.049173944E-1,1.649936980E-1,-5.945799708E-1,6.259040835E-1
7.204652958E0,-9.431946225E-2,-9.371653209E-2,-5.360563588E-1,5.523000717E-1
7.214650958E0,3.325008217E-2,-3.510319957E-2,-6.594016188E-1,6.611719122E-1
7.224649958E0,6.823044682E-2,1.818045413E-2,-7.577588028E-1,7.610416059E-1
7.234647958E0,-3.884146387E-2,7.412852411E-2,-7.924982804E-1,7.969047759E-1
7.244645958E0,2.582082924E-2,-6.261294908E-2,-7.981987309E-1,8.010669827E-1
7.254644958E0,8.604990961E-2,-1.082770675E-1,-7.898372126E-1,8.018549324E-1
7.264642958E0,1.401223104E-2,1.544040662E-2,-7.527377987E-1,7.530265217E-1
7.274640958E0,-1.293251344E-1,1.515768689E-1,-7.132264084E-1,7.405352437E-1
7.284639958E0,-6.453602979E-2,1.282606396E-2,-7.018418795E-1,7.049194499E-1
7.294637708E0,-2.241235932E-2,-9.923198221E-2,-6.798236042E-1,6.873932157E-1
7.304635708E0,-5.045893120E-2,5.425716371E-2,-7.639317083E-1,7.675165135E-1
7.314634708E0,-2.212087562E-2,1.110118742E-1,-8.573240215E-1,8.647643882E-1
7.324632708E0,1.203162013E-1,-3.237335386E-2,-9.170486516E-1,9.254740686E-1
7.334631708E0,9.906688973E-2,-9.033040037E-2,-9.145209002E-1,9.242955733E-1
7.344629708E0,-6.487631947E-2,7.369322175E-2,-8.709731770E-1,8.764895337E-1
7.354627708E0,-7.013563413E-2,6.382016614E-2,-8.361033064E-1,8.414634631E-1
7.364626708E0,1.095048275E-2,-4.902246674E-2,-8.111123067E-1,8.126661611E-1
7.374624708E0,-1.854040621E-2,1.485310405E-3,-8.367137557E-1,8.369204633E-1
7.384622708E0,-1.267854876E-1,6.005789400E-2,-8.923850960E-1,9.033452662E-1
7.394621708E0,-5.637518054E-2,-5.624981258E-2,-9.226070148E-1,9.260377455E-1
7.404619708E0,7.912956543E-2,-1.276350241E-1,-9.384582317E-1,9.503978326E-1
7.414618708E0,1.687822552E-2,1.269788477E-1,-9.510238981E-1,9.596118784E-1
7.424616708E0,-4.670165660E-2,9.839127137E-2,-8.483339274E-1,8.552966382E-1
7.434614708E0,1.082783009E-1,-1.569883482E-1,-7.458018315E-1,7.697986125E-1
7.444613708E0,1.194969150E-1,-1.514657261E-1,-7.193127751E-1,7.447363610E-1
7.454611708E0,-8.456784144E-2,1.711260934E-1,-7.329326946E-1,7.573811421E-1
7.464609708E0,-8.592901843E-2,1.336205812E-1,-7.407118303E-1,7.575567777E-1
7.474608708E0,6.493780660E-2,-1.259556490E-1,-7.043322086E-1,7.184466608E-1
7.484606708E0,5.983802956E-3,-6.433627428E-2,-6.960911429E-1,6.990835725E-1
7.494604708E0,-1.065113089E-1,4.242756123E-2,-6.564049208E-1,6.663423872E-1
7.504603708E0,-1.307777289E-2,-8.439416543E-3,-6.649202210E-1,6.651023622E-1
7.514601708E0,7.411577901E-2,1.519308424E-2,-7.009881860E-1,7.050591574E-1
7.524600708E0,-2.036384214E-2,7.045955161E-2,-6.741892272E-1,6.781669032E-1
7.534598708E0,-4.927759264E-3,-8.480871018E-2,-6.005371141E-1,6.065159731E-1
7.544596708E0,7.830103325E-2,-8.213438560E-2,-5.988893688E-1,6.095453922E-1
7.554595708E0,1.843612477E-2,1.432952746E-1,-6.312309033E-1,6.475537658E-1
7.564593708E0,-6.773653982E-2,8.062634300E-2,-5.737562817E-1,5.833396239E-1
7.574591708E0,-1.553075295E-3,-8.801499434E-2,-5.222680396E-1,5.296347387E-1
7.584590708E0,3.648505423E-2,-1.643516875E-2,-5.634412086E-1,5.648603982E-1
7.594588708E0,-6.585927296E-2,4.328021318E-2,-5.426362306E-1,5.483290066E-1
7.604586708E0,-8.146196494E-2,6.098303315E-2,-4.962321424E-1,5.065583098E-1
7.614585708E0,2.614310218E-2,-3.706034488E-2,-4.794670057E-1,4.816072472E-1
7.624583708E0,-1.436944110E-2,-1.281105421E-2,-4.486246973E-1,4.490375519E-1
7.634582708E0,-9.759423193E-2,2.935156077E-3,-3.968154430E-1,4.086511288E-1
7.644580708E0,-1.635751270E-2,-4.163620454E-2,-3.575823802E-1,3.603696718E-1
7.654578708E0,1.758221202E-2,2.928440230E-2,-3.494857407E-1,3.511509552E-1
7.664577708E0,-4.224717462E-2,8.091811907E-2,-2.788174617E-1,2.933798608E-1
7.674575708E0,2.250299117E-2,-7.129185707E-2,-2.255130744E-1,2.375816917E-1
7.684573708E0,1.028319302E-1,-6.902183091E-2,-2.301475775E-1,2.613547904E-1
7.694572708E0,8.217238337E-3,1.125458547E-1,-2.033497882E-1,2.325623116E-1
7.704570708E0,-3.035607588E-2,4.954016003E-2,-8.538922906E-2,1.032813596E-1
7.714568708E0,8.311122693E-2,-7.608397007E-2,2.448580027E-2,1.153074194E-1
7.724567708E0,1.206279310E-1,-4.860896809E-2,1.707199860E-1,2.146141727E-1
7.734565708E0,1.444033859E-2,8.035104878E-2,2.988377434E-1,3.097883331E-1
7.744564708E0,2.186114961E-2,1.853888730E-2,3.859366983E-1,3.869996580E-1
7.754562708E0,6.351686010E-2,-6.619297996E-2,3.675156301E-1,3.787923448E-1
7.764560708E0,-2.885617370E-2,4.956327252E-3,3.091370291E-1,3.105204449E-1
7.774559708E0,-6.392585456E-2,3.396952267E-2,2.239694095E-1,2.353778658E-1
7.784557708E0,1.613277862E-2,1.699794612E-2,1.269711185E-1,1.291156909E-1
7.794555708E0,1.058928927E-2,1.116523545E-2,1.217396146E-1,1.227083098E-1
7.804554708E0,-1.463126846E-2,-4.534778406E-3,1.157625908E-1,1.167716389E-1
7.814552708E0,4.580323191E-2,-3.996063008E-2,7.131030321E-2,9.370137328E-2
7.824550708E0,5.337449910E-2,9.641462469E-3,1.936597824E-2,5.759197918E-2
7.834549708E0,-1.047596293E-2,6.013973218E-2,-2.045239091E-2,6.438038117E-2
7.844547708E0,3.302032314E-2,3.762226459E-4,-4.740279257E-2,5.777116952E-2
7.854546708E0,7.043141188E-2,-1.733587293E-2,-7.720663548E-2,1.059338512E-1
7.864544708E0,2.910287138E-3,1.906741393E-2,-7.272415996E-2,7.523855053E-2
7.874542708E0,-6.441009538E-2,4.417450370E-2,-6.658458352E-2,1.026331035E-1
7.884541708E0,-1.966478923E-2,1.834022587E-2,-7.227275491E-2,7.711302693E-2
7.894539708E0,1.391997295E-2,2.245670223E-2,-6.134313941E-2,6.679109128E-2
7.904537708E0,5.762613751E-3,7.264139901E-3,-4.082993746E-2,4.186955026E-2
7.914536708E0,1.232059501E-2,-7.432335516E-2,7.973847985E-3,7.575843475E-2
7.924534708E0,-4.112200588E-3,3.694492404E-3,5.214839280E-2,5.244057913E-2
7.934532708E0,-8.169108443E-2,1.318944192E-1,5.486910224E-2,1.645605951E-1
7.944531708E0,-6.165371792E-2,-4.922579910E-2,1.068467563E-1,1.328178812E-1
7.954529708E0,3.793194775E-2,-3.273601599E-2,1.032881409E-1,1.147994750E-1
7.964528708E0,4.463055454E-2,9.631582045E-2,9.194337308E-2,1.404357772E-1
7.974526708E0,1.978246445E-2,4.288192643E-2,1.632261944E-1,1.699205580E-1
7.984524708E0,6.636295578E-2,-1.634328295E-2,1.764286226E-1,1.892041323E-1
7.994523708E0,8.968258370E-2,2.847375437E-2,1.270500559E-1,1.580994535E-1
8.004521708E0,6.408774935E-2,7.083299226E-2,9.203517437E-2,1.326462428E-1
8.014519708E0,6.426119238E-2,5.155157480E-2,5.072459579E-2,9.674735308E-2
8.024518708E0,5.847904528E-2,-8.872411998E-3,1.750013173E-2,6.168284236E-2
8.034516708E0,2.435370801E-2,-2.519070039E-2,3.441086411E-3,3.520675440E-2
8.044514708E0,6.858528145E-3,1.038396064E-2,-3.022718132E-2,3.268866068E-2
8.054513708E0,2.012591528E-2,5.322648232E-2,-8.185634136E-2,9.969238440E-2
8.064511708E0,-2.830858195E-2,5.160965410E-2,-1.273394930E-1,1.402864166E-1
8.074510708E0,-6.615388127E-2,1.649983758E-3,-1.331440240E-1,1.486821764E-1
8.084508708E0,-4.130431110E-2,-8.674588359E-2,-1.208297879E-1,1.543720573E-1
8.094506708E0,1.218950775E-2,-6.706403465E-3,-1.570117736E-1,1.576269552E-1
8.104505708E0,-7.892991956E-3,1.308289035E-2,-1.699849910E-1,1.706703211E-1
8.114503708E0,-4.591222767E-2,-4.877177194E-2,-1.340059036E-1,1.498138865E-1
8.124501708E0,-6.723987367E-3,-6.148661090E-2,-1.405360740E-1,1.535454442E-1
8.134500708E0,6.477883542E-2,-8.261798231E-3,-1.704264557E-1,1.825095385E-1
8.144498708E0,4.138816383E-2,-1.981210024E-2,-1.447864151E-1,1.518835258E-1
8.154496708E0,6.245210040E-3,-2.807341882E-2,-9.265322506E-2,9.701412066E-2
8.164495708E0,4.179288251E-2,5.938254059E-2,-9.546690524E-2,1.199452423E-1
8.174493708E0,2.681277283E-3,-2.621656468E-2,-4.842020810E-2,5.512725336E-2
8.184492708E0,-1.452106671E-2,-5.179189537E-2,-1.828131974E-2,5.681081284E-2
8.194490708E0,-1.914011126E-2,8.330939272E-2,-7.420935273E-2,1.131981749E-1
8.204488708E0,-7.487489378E-2,3.422569696E-2,-5.917733073E-2,1.013883846E-1
8.214487708E0,2.333404496E-2,-8.595555474E-3,-7.602608263E-2,7.998953975E-2
8.224485708E0,9.030476399E-2,-2.041977441E-2,-1.027601373E-1,1.383168949E-1
8.234483708E0,6.616669033E-2,-5.194250228E-2,-5.870662987E-2,1.025793490E-1
8.244482708E0,6.016265966E-2,-1.033581476E-2,-4.010429800E-2,7.303923194E-2
8.254480708E0,3.044714626E-2,3.608622844E-2,-4.740630090E-2,6.690741337E-2
8.264478708E0,-2.048838783E-2,8.129792770E-3,-7.548170686E-3,2.329897953E-2
8.274477708E0,-5.692198656E-2,6.095217995E-2,-2.111897349E-2,8.603076099E-2
8.284475708E0,3.671985649E-2,5.596111544E-2,-8.081963003E-2,1.049371569E-1
8.294474958E0,6.077405915E-2,1.018507080E-2,-6.674011946E-2,9.083757745E-2
8.304472958E0,-2.444834154E-2,9.436313365E-2,-6.014621437E-2,1.145412131E-1
8.314470958E0,-3.745645948E-2,2.456917334E-2,1.336615026E-2,4.674702780E-2
8.324469958E0,-4.198790543E-2,2.277006046E-2,8.878412247E-3,4.858277534E-2
8.334467958E0,-1.152957637E-2,-1.102852846E-1,8.641833901E-2,1.405841543E-1
8.344465958E0,2.934023179E-3,-9.154619182E-2,5.452762485E-2,1.065953826E-1
8.354464958E0,4.259769693E-3,6.139149314E-3,5.975386620E-2,6.021926035E-2
8.364462958E0,-1.108924448E-3,-4.442580606E-2,3.324551404E-2,5.549906451E-2
8.374460958E0,-8.213985823E-3,-3.556185197E-3,5.957611084E-2,6.024474250E-2
8.384459958E0,-1.542835359E-2,1.042943188E-2,6.943451643E-2,7.188851936E-2
8.394457958E0,2.500112269E-2,3.021980149E-2,4.964870811E-2,6.327153194E-2
8.404455958E0,-6.677995361E-3,3.875604427E-2,5.530764341E-2,6.786429112E-2
8.414454958E0,-3.618754059E-2,9.459503056E-2,4.135911047E-2,1.093998808E-1
8.424452958E0,-1.671649519E-2,6.788968205E-2,3.190299332E-2,7.685213806E-2
8.434451958E0,1.604549065E-3,4.935962724E-2,1.271535516E-2,5.099634924E-2
8.444449958E0,-5.806646939E-2,-2.533252963E-2,5.955038309E-2,8.694653559E-2
8.454447958E0,2.411008012E-2,1.358801829E-1,-1.472679734E-2,1.387861615E-1
8.464446958E0,3.128472336E-2,-3.173133643E-2,6.726753831E-2,8.068787602E-2
8.474444958E0,4.679111900E-2,-9.030124652E-2,9.267778337E-2,1.375968585E-1
8.484442958E0,5.658801919E-2,9.519458944E-2,5.386279643E-2,1.231479379E-1
8.494441958E0,2.905854218E-2,2.163605693E-2,7.806442201E-2,8.606144210E-2
8.504439958E0,4.417863786E-2,-5.276115359E-2,7.277912378E-2,1.001613310E-1
8.514438958E0,8.903178860E-2,-7.324924449E-2,7.497182965E-2,1.375241304E-1
8.524436958E0,5.940562796E-2,3.057959026E-2,5.650106013E-2,8.750148438E-2
8.534434958E0,1.211954216E-2,1.238903667E-1,2.680772960E-2,1.273356220E-1
8.544433958E0,2.394986641E-2,-7.273139132E-3,5.235479951E-2,5.803033418E-2
8.554431958E0,4.282288782E-2,-1.280372120E-1,7.760775447E-2,1.557250492E-1
8.564429958E0,1.477896547E-2,4.794945242E-4,4.298697531E-2,4.545907810E-2
8.574428958E0,2.439385280E-4,6.119599514E-2,9.121071696E-3,6.187247592E-2
8.584426958E0,7.013059091E-3,2.548700804E-3,-3.481432199E-3,8.234029619E-3
8.594424958E0,1.179116618E-2,-1.045640764E-1,2.388879955E-2,1.079043670E-1
8.604423958E0,-5.262402724E-3,-1.112304596E-1,2.597157776E-2,1.143434776E-1
8.614421958E0,-3.383663099E-2,-1.190818130E-2,-3.226084292E-2,4.824400859E-2
8.624420958E0,-3.866665039E-2,6.960062304E-2,-6.444216371E-2,1.024311917E-1
8.634418958E0,-2.188294876E-2,4.381895644E-2,-7.551912904E-2,9.001168391E-2
8.644416958E0,-1.071319543E-4,-7.133297031E-2,-4.258351743E-2,8.307683243E-2
8.654415958E0,3.806047685E-2,-7.443098048E-2,-5.231153011E-2,9.861575400E-2
8.664413958E0,2.372134991E-2,4.267615012E-2,-8.329183280E-2,9.654784121E-2
8.674411958E0,2.081517410E-3,1.155556998E-1,-1.014059222E-1,1.537550439E-1
8.684410958E0,1.966716466E-2,8.592284231E-2,-1.211677569E-1,1.498371033E-1
8.694408958E0,3.052242916E-2,-2.009389492E-2,-1.023139948E-1,1.086440832E-1
8.704406958E0,1.607522009E-2,-5.165842353E-2,-9.408754706E-2,1.085332757E-1
8.714405958E0,8.255537599E-3,6.272900718E-2,-1.316640937E-1,1.460770886E-1
8.724403958E0,-9.278471433E-3,1.561020016E-1,-1.699961007E-1,2.309818157E-1
8.734402958E0,-8.131393902E-3,9.862791915E-2,-1.322856528E-1,1.652061740E-1
8.744400958E0,-2.307691365E-2,-5.687509007E-2,-6.747394502E-2,9.121432492E-2
8.754398958E0,6.690146606E-3,-6.709928011E-2,-7.061857760E-2,9.764248540E-2
8.764397958E0,1.966281580E-2,3.846968145E-2,-1.063982749E-1,1.148352542E-1
8.774395958E0,-3.444516169E-2,4.856525559E-2,-9.292979836E-2,1.103675706E-1
8.784393958E0,-2.960490966E-2,-7.924746220E-3,-7.751419902E-2,8.335288434E-2
8.794392958E0,3.450500429E-2,-6.033295982E-2,-9.547743022E-2,1.180957283E-1
8.804390958E0,1.931269549E-2,-9.592903627E-2,-9.277894020E-2,1.348454373E-1
8.814388958E0,1.887404468E-2,1.166582791E-2,-1.471188694E-1,1.487826698E-1
8.824387958E0,1.332235096E-2,9.907569710E-2,-1.737710631E-1,2.004740910E-1
8.834385958E0,3.449199423E-3,4.740800939E-2,-1.342614269E-1,1.424273397E-1
8.844384958E0,3.224299064E-2,-8.880173264E-3,-1.211028528E-1,1.256358583E-1
8.854382958E0,6.494045611E-2,-1.683079227E-2,-1.101907790E-1,1.290059928E-1
8.864380958E0,3.245029271E-2,3.535895816E-2,-7.278730989E-2,8.718526194E-2
8.874379958E0,-1.091786625E-2,1.072788473E-1,-7.475022018E-2,1.312080268E-1
8.884377958E0,-2.250099946E-2,5.886324389E-2,-5.470128715E-2,8.344703274E-2
8.894375958E0,-3.038894819E-2,-6.716391012E-2,-1.054077566E-2,7.446869776E-2
8.904374958E0,-1.916931080E-2,-6.358431778E-2,-7.384448647E-3,6.682034141E-2
8.914372958E0,2.421167549E-3,5.643294920E-2,-2.683228791E-2,6.253408257E-2
8.924370958E0,7.019271757E-3,1.890975723E-2,8.658556938E-3,2.195039186E-2
8.934369958E0,-9.697917793E-3,-8.671657442E-2,4.625206053E-2,9.875761739E-2
8.944367958E0,6.946108472E-2,-5.374360916E-2,4.205317497E-3,8.792555095E-2
8.954366958E0,1.086679447E-1,-4.349310664E-2,-3.305606425E-2,1.216267895E-1
8.964364958E0,9.026714081E-2,2.394999660E-2,-3.349928319E-2,9.921673761E-2
8.974362958E0,1.004615603E-2,6.698444171E-2,1.065830469E-2,6.856704851E-2
8.984361958E0,-3.085374702E-3,5.675804982E-2,5.840783715E-2,8.150135703E-2
8.994359958E0,2.366327975E-2,1.962103105E-2,1.076519179E-1,1.119547726E-1
9.004357958E0,4.437671229E-2,1.584047722E-2,1.315997744E-1,1.397809498E-1
9.014356958E0,6.375438496E-3,3.448290821E-2,1.628917336E-1,1.666236300E-1
9.024354958E0,-6.101998938E-2,-1.650637230E-2,2.079661649E-1,2.173610480E-1
9.034352958E0,-6.049792439E-2,-1.366379866E-2,1.921278119E-1,2.018905504E-1
9.044351958E0,2.203102950E-3,-8.177980907E-3,1.319851059E-1,1.322565734E-1
9.054349958E0,3.459516104E-2,-3.628484191E-2,1.131506395E-1,1.237597760E-1
9.064348958E0,5.927815866E-3,-4.997663640E-2,1.272523695E-1,1.368428615E-1
9.074346958E0,-7.414452173E-3,2.847438021E-2,9.000911415E-2,9.469638356E-2
9.084344958E0,4.933588207E-7,9.207848945E-2,5.904986143E-2,1.093861708E-1
9.094343958E0,2.395229666E-2,4.376655534E-2,5.412884474E-2,7.361491502E-2
9.104341958E0,8.277552366E-2,3.666448609E-3,4.007213831E-2,9.203807056E-2
9.114339958E0,5.877261205E-2,5.417171214E-3,4.007798553E-2,7.134290851E-2
9.124338958E0,1.382972483E-2,4.481766544E-2,2.121779144E-2,5.147891897E-2
9.134336958E0,-6.484136408E-2,1.785039593E-2,5.835111916E-2,8.903871202E-2
9.144334958E0,-2.260232074E-2,2.293682716E-2,6.270437121E-2,7.048972345E-2
9.154333958E0,2.858740278E-2,2.156145240E-2,8.592366457E-2,9.308604600E-2
9.164331958E0,-7.842833810E-3,-3.153797860E-2,1.494203335E-1,1.529136691E-1
9.174329958E0,-3.105878329E-2,-1.837769373E-2,1.433158404E-1,1.477897755E-1
9.184328958E0,-2.250428852E-2,-9.689537545E-3,9.963947833E-2,1.026077764E-1
9.194326958E0,3.609954000E-2,-1.656988997E-3,5.520882547E-2,6.598436792E-2
9.204325958E0,9.294112734E-2,-4.988702782E-3,1.945368648E-2,9.508620418E-2
9.214323958E0,5.518030202E-2,-3.060080698E-2,3.653457284E-2,7.291124832E-2
9.224321958E0,-1.475362144E-2,-9.621207349E-3,5.616484523E-2,5.886193011E-2
9.234320958E0,-1.757636480E-2,4.576697461E-2,2.984301925E-2,5.739468932E-2
9.244318958E0,1.838143503E-2,-6.343810998E-3,-1.399297178E-2,2.395671829E-2
9.254316958E0,4.923728339E-2,1.488716180E-2,-4.630351603E-2,6.920948822E-2
9.264315958E0,-4.326738585E-3,6.012060082E-2,-8.804444969E-2,1.067006674E-1
9.274313958E0,-2.207952484E-2,-3.767821056E-2,-3.802268922E-2,5.790404014E-2
9.284311958E0,-1.085239571E-2,-4.744535848E-4,-6.104610085E-2,6.200504841E-2
9.294311333E0,5.743493356E-2,9.157881746E-3,-7.210084677E-2,9.263460744E-2
9.304309333E0,5.985392667E-2,-6.286556250E-3,-6.774642527E-2,9.061783194E-2
9.314308333E0,-2.532853022E-2,-2.390605112E-2,-4.153511167E-2,5.420515865E-2
9.324306333E0,2.240009844E-2,-8.799847139E-3,-8.538805962E-2,8.871483779E-2
9.334304333E0,3.702303462E-2,2.118117782E-2,-1.219091839E-1,1.291557064E-1
9.344303333E0,-2.383244701E-2,2.972630791E-3,-1.150199944E-1,1.175007284E-1
9.354301333E0,-2.104029190E-2,8.541717692E-3,-1.422615874E-1,1.440625353E-1
9.364299333E0,1.072028518E-2,1.632434345E-2,-1.445069182E-1,1.458206368E-1
9.374298333E0,9.392236322E-3,1.780390372E-3,-1.139663261E-1,1.143665484E-1
9.384296333E0,-2.438263346E-2,5.213466554E-3,-6.636238933E-2,7.089188786E-2
9.394294333E0,-1.373394012E-2,2.882727109E-2,-7.055016518E-2,7.744003149E-2
9.404293333E0,-8.651284464E-3,3.629971577E-2,-6.710264683E-2,7.678072218E-2
9.414291333E0,-7.540532760E-3,2.183523000E-2,-5.707116365E-2,6.156910446E-2
9.424290333E0,6.440013684E-3,2.911399479E-3,-6.649921417E-2,6.687372809E-2
9.434288333E0,2.225282170E-2,-5.418909390E-3,-7.174124300E-2,7.530842317E-2
9.444286333E0,1.144208740E-2,1.657167154E-3,-7.219440222E-2,7.311428916E-2
9.454285333E0,8.088087961E-3,2.062623366E-2,-6.965671062E-2,7.309525304E-2
9.464283333E0,1.009477928E-2,1.700269127E-2,-4.586263597E-2,4.994374293E-2
9.474281333E0,8.368206136E-3,1.390515848E-2,-2.611541927E-2,3.074728329E-2
9.484280333E0,2.922584563E-3,3.108351062E-2,-6.219098568E-3,3.183399629E-2
9.494278333E0,7.143616453E-3,-1.091748253E-3,1.517527878E-2,1.680810092E-2
9.504277333E0,2.898621943E-2,1.535175049E-2,2.713634312E-2,4.257062694E-2
9.514275333E0,2.616079001E-2,1.828888000E-3,4.119597316E-2,4.883482333E-2
9.524273333E0,1.164896920E-2,5.539099365E-3,4.597080946E-2,4.774615616E-2
9.534272333E0,1.516285345E-2,8.399045630E-4,3.757654667E-2,4.052917991E-2
9.544270333E0,1.958051624E-2,-2.882672749E-3,1.810414910E-2,2.682287518E-2
9.554268333E0,7.089730706E-3,8.319169467E-3,2.692350447E-2,2.905766603E-2
9.564267333E0,1.360880971E-2,-3.915071762E-3,4.442012787E-2,4.662269028E-2
9.574265333E0,1.563792145E-2,1.991828887E-3,2.928461015E-2,3.325808716E-2
9.584263333E0,1.776230626E-2,-3.118847727E-3,4.169357121E-2,4.542665093E-2
9.594262333E0,3.395715673E-3,4.623350019E-3,2.162066460E-2,2.236871449E-2
9.604260333E0,-5.905961897E-3,1.036665654E-3,1.472153485E-2,1.589586896E-2
9.614259333E0,-1.411371678E-3,1.113845474E-2,1.815443516E-2,2.134574103E-2
9.624257333E0,9.057136048E-3,1.578508856E-2,2.892266750E-2,3.417193921E-2
9.634255333E0,3.173229117E-3,1.276515471E-2,4.612400651E-2,4.796292875E-2
9.644254333E0,8.513929714E-3,2.208137037E-3,4.042764902E-2,4.137339331E-2
9.654252333E0,1.682031982E-2,-4.091086658E-3,1.691482544E-2,2.420271614E-2
9.664250333E0,1.550447702E-2,3.788787893E-3,-1.657100916E-3,1.604648575E-2
9.674249333E0,3.567459360E-3,9.419581192E-3,-4.661400318E-3,1.109882557E-2
9.684247333E0,4.534661919E-3,2.006502658E-2,2.421799779E-2,3.177546014E-2
9.694245333E0,7.309951466E-3,2.367209169E-2,1.627280116E-2,2.964131193E-2
9.704244333E0,-6.241500713E-3,8.764615380E-3,1.088166833E-2,1.530312124E-2
9.714242333E0,7.332846969E-3,2.287959982E-2,-1.217799604E-2,2.693604129E-2
9.724240333E0,2.897233229E-2,2.569252168E-2,-3.224388599E-2,5.039017655E-2
9.734239333E0,1.041703396E-2,1.376985025E-3,-2.012026906E-3,1.069854833E-2
9.744237333E0,2.748452654E-2,1.029231467E-2,-8.762637377E-3,3.062865904E-2
9.754236333E0,3.056235468E-2,2.176924098E-2,-3.542360187E-2,5.160221842E-2
9.764234333E0,-3.628233857E-3,3.599438604E-3,-5.519946992E-2,5.543556186E-2
9.774232333E0,6.176888980E-3,1.564062350E-2,-8.126167953E-2,8.298339365E-2
9.784231333E0,1.427095206E-2,1.530035438E-2,-1.043324536E-1,1.064096884E-1
9.794229333E0,-8.187929168E-5,-2.102643445E-2,-9.117504895E-2,9.356819545E-2
9.804227333E0,3.793417700E-3,-2.201502275E-2,-7.591557026E-2,7.913422175E-2
9.814226333E0,2.017210828E-2,1.417009216E-2,-8.400519311E-2,8.754757526E-2
9.824224333E0,1.066840941E-2,5.832031164E-3,-5.961294830E-2,6.084020999E-2
9.834223333E0,9.001806770E-3,2.831135024E-3,-4.824537635E-2,4.915957882E-2
9.844221333E0,2.312555518E-2,1.138768774E-2,-4.766182423E-2,5.418597810E-2
9.854219333E0,2.452221746E-2,7.587717050E-3,-3.345192075E-2,4.216566851E-2
9.864218333E0,6.032280028E-3,9.826524560E-3,-2.717084169E-2,2.951615872E-2
9.874216333E0,1.002287680E-2,2.032058188E-2,-3.227253735E-2,3.943223015E-2
9.884214333E0,6.093547884E-3,1.479238437E-2,-3.243041217E-2,3.616182511E-2
9.894213333E0,1.180353669E-2,9.637499610E-3,-2.898815632E-2,3.274932189E-2
9.904211333E0,8.918246403E-3,6.192923142E-3,-4.096208453E-2,4.237664198E-2
9.914209333E0,8.610427044E-3,9.612157869E-3,-2.839232504E-2,3.118745187E-2
9.924208333E0,1.799875304E-2,2.370327607E-2,-2.434956014E-2,3.845388780E-2
9.934206333E0,1.247377379E-2,2.008654022E-2,-1.072320879E-2,2.596249867E-2
9.944204333E0,1.215095267E-2,9.691104416E-3,-7.724756598E-3,1.735612342E-2
9.954203333E0,1.682687966E-2,7.616484894E-3,-7.122493386E-3,1.979607621E-2
9.964201333E0,1.394409271E-2,1.592416093E-2,1.308723807E-2,2.488558665E-2
9.974200333E0,3.977842536E-3,2.170139729E-2,1.248672903E-2,2.535137624E-2
9.984198333E0,1.665926557E-3,2.478413617E-2,5.449020267E-3,2.543070072E-2
9.994196333E0,-3.193274103E-3,1.707116765E-2,2.307311296E-3,1.751985873E-2
1.000419533E1,-6.584111005E-3,8.861738546E-3,-7.110798955E-3,1.313180831E-2
1.001419333E1,-9.092968516E-4,-1.641948405E-3,-5.450774431E-3,5.764872698E-3
1.002419133E1,3.409785535E-3,1.460093146E-2,-2.175690472E-2,2.642303427E-2
1.003419033E1,1.248974400E-2,1.849424061E-3,-1.815794349E-2,2.211617024E-2
1.004418833E1,1.293862743E-2,4.861000506E-4,-5.420953631E-3,1.403677710E-2
1.005418733E1,1.545243680E-2,-2.249791597E-3,5.765354633E-4,1.562599624E-2
1.006418533E1,1.100568412E-2,2.930779802E-4,3.279118538E-3,1.148754090E-2
1.007418333E1,8.194982372E-3,1.346812250E-2,-1.737441659E-2,2.346099767E-2
1.008418233E1,9.162404202E-3,2.298404571E-2,-1.377487063E-2,2.831895247E-2
1.009418033E1,1.062380612E-2,4.059249025E-3,-3.188194335E-2,3.384968346E-2
1.010417833E1,1.419910440E-2,3.253785933E-3,-4.998901606E-2,5.206825727E-2
1.011417733E1,1.426183406E-2,3.935831662E-3,-4.325068474E-2,4.571118476E-2
1.012417533E1,7.398536783E-3,6.302713752E-3,-3.396589100E-2,3.532908573E-2
1.013417333E1,-1.743347347E-3,1.502792666E-2,-4.503759384E-2,4.751065879E-2
1.014417233E1,4.960521944E-3,1.085279542E-2,-5.610871196E-2,5.736355554E-2
1.015417033E1,1.032148680E-2,8.858698450E-3,-5.400312960E-2,5.568974443E-2
1.016416933E1,1.241248766E-2,-6.567359646E-4,-4.934874594E-2,5.089007642E-2
1.017416733E1,7.857068125E-3,1.048477486E-2,-3.587032914E-2,3.818827747E-2
1.018416533E1,7.150103208E-3,1.542915301E-2,-2.014482737E-2,2.636279211E-2
1.019416433E1,9.522610959E-3,1.701631574E-2,-3.779406309E-2,4.252794759E-2
1.020416233E1,3.464182913E-3,7.010430128E-3,-4.047676563E-2,4.122517738E-2
1.021416033E1,2.795151807E-3,1.228650529E-2,-2.804090738E-2,3.074188629E-2
1.022415933E1,1.811598971E-2,6.399793520E-3,-3.775839508E-2,4.236558555E-2
1.023415733E1,1.097034501E-2,2.223295030E-2,-6.139693379E-2,6.621356378E-2
1.024415533E1,2.682428453E-3,1.239543480E-2,-5.539827526E-2,5.683142729E-2
1.025415433E1,7.475847937E-4,1.201580661E-2,-4.281097412E-2,4.447154143E-2
1.026415233E1,1.121797459E-2,1.242915679E-2,-3.022718132E-2,3.455444085E-2
1.027415133E1,1.389848443E-2,1.199871493E-2,-1.614708602E-2,2.445128660E-2
1.028414933E1,6.765886322E-3,1.587367387E-2,-2.466764867E-2,3.010388066E-2
1.029414700E1,1.239589619E-2,1.355569369E-2,-2.794969082E-2,3.344548236E-2
1.030414600E1,1.509617692E-2,5.060258084E-3,-3.123348713E-2,3.505754537E-2
1.031414400E1,1.071555259E-2,-1.958216534E-3,-3.422141433E-2,3.591326883E-2
1.032414200E1,1.874334114E-2,9.633493354E-4,-6.340486765E-2,6.612426272E-2
1.033414100E1,3.077042419E-3,-2.515649874E-2,-4.633216739E-2,5.281086398E-2
1.034413900E1,-1.498504328E-2,2.963513931E-2,-6.488128960E-2,7.288603943E-2
1.035413700E1,-1.270457435E-2,1.003904572E-2,-2.594409585E-2,3.058242564E-2
1.036413600E1,-1.527192229E-2,1.668063303E-2,-9.261989594E-4,2.263477354E-2
1.037413400E1,3.611203842E-3,1.578941687E-2,1.585764885E-2,2.266741064E-2
1.038413300E1,2.291978801E-2,-2.165054935E-3,1.766853154E-2,2.902035754E-2
1.039413100E1,3.791144595E-2,1.401121463E-2,4.514050484E-3,4.066901180E-2
1.040412900E1,5.205176756E-2,-1.425090023E-2,1.050920069E-2,5.498106913E-2
1.041412800E1,8.199477419E-3,-2.621912055E-3,-2.803155184E-3,9.053371292E-3
1.042412600E1,4.340497814E-3,-5.366138269E-3,-2.045356035E-3,7.198530580E-3
1.043412400E1,1.352464635E-2,2.303502155E-2,-1.147165239E-2,2.907106956E-2
1.044412300E1,-1.804874673E-2,1.971346045E-2,1.129506648E-2,2.901648339E-2
1.045412100E1,-1.971377794E-2,1.212357354E-2,2.358006656E-2,3.303987916E-2
1.046411900E1,2.324158587E-3,1.363610433E-2,1.745159984E-2,2.226888842E-2
1.047411800E1,2.835479323E-2,8.453093546E-3,1.955776691E-2,3.546766607E-2
1.048411600E1,1.442584846E-2,-5.812680535E-4,4.201633751E-2,4.442764448E-2
1.049411500E1,1.722794384E-2,5.815528769E-3,5.204723597E-2,5.513199793E-2
1.050411300E1,1.089336276E-2,2.567884239E-2,4.815708339E-2,5.565225045E-2
1.051411100E1,-2.048846092E-2,2.009641882E-2,5.145315886E-2,5.891579276E-2
1.052411000E1,-1.284870822E-2,3.369644400E-2,2.480856657E-2,4.377218999E-2
1.053410800E1,1.209825464E-3,2.911735466E-2,-1.800240755E-2,3.425449894E-2
1.054410600E1,2.331138700E-3,2.156032864E-3,-3.761864662E-2,3.775242057E-2
1.055410500E1,1.643615775E-2,2.750968784E-3,-4.300861001E-2,4.612434981E-2
1.056410300E1,1.463101264E-2,-3.867796110E-4,-2.609846234E-2,2.992233056E-2
1.057410100E1,3.306746632E-3,1.121678231E-2,-2.430804491E-2,2.697465155E-2
1.058410000E1,3.604223728E-3,1.056697164E-2,-1.877424002E-2,2.184315468E-2
1.059409800E1,3.861355036E-4,1.672290429E-2,-1.847720146E-2,2.492411688E-2
1.060409700E1,7.071476430E-3,5.626972052E-3,-1.264284968E-2,1.554059978E-2
1.061409500E1,1.105942369E-2,6.349253934E-5,-2.617213726E-3,1.136506451E-2
1.062409300E1,9.041732289E-3,-1.936606960E-3,-1.145586491E-2,1.472209938E-2
1.063409200E1,5.655353889E-3,-1.040393254E-5,-2.523424387E-2,2.586020494E-2
1.064409000E1,5.514509082E-3,9.252846467E-3,-3.497395098E-2,3.659511204E-2
1.065408800E1,1.590117406E-2,-6.848665536E-4,-2.510618985E-2,2.972603484E-2
1.066408700E1,8.859829064E-3,5.422417719E-3,-1.808017552E-2,2.085166496E-2
1.067408500E1,4.155433439E-3,1.489560829E-2,-1.180085063E-2,1.945268230E-2
1.068408300E1,1.719412135E-2,-5.489393463E-4,-1.356554031E-4,1.720341669E-2
1.069408200E1,7.639844064E-3,6.966580579E-3,-4.482475519E-3,1.126911927E-2
1.070408000E1,2.260261310E-2,-8.335776930E-3,7.183889151E-3,2.513904452E-2
1.071407900E1,1.570691859E-2,1.772122043E-3,-3.312447667E-3,1.614992315E-2
1.072407700E1,3.892107736E-3,1.235640921E-2,-1.575181425E-2,2.039482785E-2
1.073407500E1,1.288819520E-2,1.785579775E-2,-2.804149210E-2,3.565473837E-2
1.074407400E1,5.930538476E-4,1.380727700E-2,-4.317350149E-2,4.533148842E-2
1.075407200E1,-4.129303694E-3,6.931645749E-3,-6.668632507E-2,6.717264930E-2
1.076407000E1,2.621069234E-3,4.759101353E-3,-7.957008004E-2,7.975535523E-2
1.077406900E1,8.984045852E-3,1.054083047E-2,-7.673768878E-2,7.797752924E-2
1.078406700E1,1.551379602E-2,4.441974415E-3,-6.896673918E-2,7.082951445E-2
1.079406500E1,-7.072207332E-4,9.469440125E-3,-4.816760838E-2,4.909469375E-2
1.080406400E1,-2.113074102E-3,3.945787917E-3,-5.326930404E-2,5.345702084E-2
1.081406200E1,-1.112149553E-2,1.448016818E-2,-3.486168444E-2,3.935352558E-2
1.082406100E1,-1.063809525E-2,2.422511266E-2,-3.411967278E-2,4.317611868E-2
1.083405900E1,8.289981354E-3,2.155288258E-3,-2.798945189E-2,2.927077852E-2
1.084405700E1,2.988365740E-3,8.168994240E-4,-1.167630494E-2,1.208030428E-2
1.085405600E1,7.133347280E-3,3.751806538E-3,4.449731112E-4,8.072093705E-3
1.086405400E1,1.018217688E-2,1.041089209E-2,1.491039991E-3,1.463853137E-2
1.087405200E1,1.462900266E-2,6.536248347E-3,7.180380821E-3,1.755813572E-2
1.088405100E1,1.199901642E-2,6.777208450E-3,-1.754164696E-6,1.378067315E-2
1.089404900E1,1.383675976E-2,5.827508708E-3,-2.859814703E-2,3.229968718E-2
1.090404700E1,2.016722951E-2,1.120110218E-2,-3.398811042E-2,4.107765191E-2
1.091404600E1,1.382051546E-2,9.069205066E-3,-3.399103403E-2,3.779745392E-2
1.092404400E1,6.192530282E-3,1.088106305E-2,-3.144691050E-2,3.384749835E-2
1.093404300E1,1.051853796E-2,3.082512764E-3,-2.037403822E-2,2.313531844E-2
1.094404100E1,4.494261313E-3,-1.242156455E-3,-1.199439347E-2,1.286883103E-2
1.095403900E1,8.343611285E-3,2.333226339E-3,1.474083066E-3,8.788214569E-3
1.096403800E1,4.262547120E-3,1.199797260E-2,4.764311314E-3,1.359482684E-2
1.097403600E1,7.242379580E-3,1.170831616E-2,-6.008598804E-3,1.502131781E-2
1.098403400E1,3.321090583E-3,2.526979311E-4,-7.055250406E-3,7.801926506E-3
1.099403300E1,8.317518085E-3,1.277730823E-4,-2.486528456E-2,2.621983618E-2
1.100403100E1,1.849987769E-2,1.174795160E-2,-5.285181284E-2,5.721515500E-2
1.101402900E1,5.160094723E-3,-8.424238907E-4,-5.150402963E-2,5.176872921E-2
1.102402800E1,6.955920830E-3,7.805509844E-3,-6.781542242E-2,6.861663309E-2
1.103402600E1,1.762679704E-3,1.386066710E-2,-7.664354861E-2,7.790673062E-2
1.104402500E1,-3.411484882E-3,1.331003298E-2,-6.227050781E-2,6.376841969E-2
1.105402300E1,6.022358034E-3,2.066997814E-2,-7.079808712E-2,7.399922927E-2
1.106402100E1,4.055921137E-3,1.112339359E-2,-5.807337642E-2,5.926801355E-2
1.107402000E1,4.424204361E-3,6.363374046E-3,-5.133446038E-2,5.191621072E-2
1.108401800E1,5.516555607E-3,1.013596789E-2,-5.627594233E-2,5.744694870E-2
1.109401600E1,4.751977343E-3,1.834775187E-2,-5.732317865E-2,6.037522752E-2
1.110401500E1,-9.629852548E-3,2.148795564E-2,-5.582161367E-2,6.058480709E-2
1.111401300E1,-1.356349379E-2,1.895185148E-2,-5.058133900E-2,5.569212595E-2
1.112401200E1,2.006526869E-3,5.347883992E-3,-1.898766339E-2,1.982819644E-2
1.113401000E1,3.786894400E-3,8.390313636E-3,-7.156991959E-4,9.233101182E-3
1.114400800E1,5.268432666E-3,1.293970095E-2,-1.912214935E-2,2.368224734E-2
1.115400700E1,2.214357013E-2,1.565098632E-3,-3.887989104E-2,4.477089634E-2
1.116400500E1,1.025676543E-2,-4.987339193E-3,-4.007564664E-2,4.166692025E-2
1.117400300E1,6.900920458E-3,6.929135558E-3,-5.339618862E-2,5.428433090E-2
1.118400200E1,2.656554524E-3,8.208926611E-3,-4.845002890E-2,4.921228564E-2
1.119400000E1,2.818814758E-3,7.996579036E-3,-6.850363970E-2,6.902636920E-2
1.120399800E1,-9.586327337E-3,-1.830591230E-2,-7.239145339E-2,7.528297696E-2
1.121399700E1,-4.955423903E-3,1.857327167E-2,-9.992072940E-2,1.017530089E-1
1.122399500E1,6.129526533E-3,3.350373713E-2,-1.346397418E-1,1.388809978E-1
1.123399300E1,7.200535443E-3,-2.990934175E-2,-1.334287834E-1,1.369293857E-1
1.124399200E1,3.261576891E-3,-4.364543575E-2,-1.474878287E-1,1.538447970E-1
1.125399000E1,3.995844651E-2,4.449381192E-2,-1.882037455E-1,1.974766481E-1
1.126398900E1,1.470585700E-2,3.371690012E-2,-1.629081059E-1,1.670094085E-1
1.127398700E1,-1.085142726E-2,-1.608607170E-2,-1.392531949E-1,1.405986041E-1
1.128398500E1,1.273346325E-2,6.770664593E-3,-1.516756046E-1,1.523596797E-1
1.129398400E1,1.828046093E-2,2.028776666E-2,-1.546693790E-1,1.570617252E-1
1.130398196E1,-2.072362863E-3,6.942723482E-4,-1.320570266E-1,1.320751111E-1
1.131397996E1,-6.612798907E-3,2.480547166E-2,-1.021122658E-1,1.052898635E-1
1.132397896E1,1.163853558E-2,-5.279122107E-4,-9.446820080E-2,9.518390181E-2
1.133397696E1,1.636142302E-3,1.832557585E-2,-9.356129766E-2,9.535313372E-2
1.134397596E1,-1.298750650E-2,1.399662172E-2,-8.875897944E-2,9.078952129E-2
1.135397396E1,1.814774740E-2,2.206020848E-2,-1.113520360E-1,1.149576855E-1
1.136397196E1,2.400899637E-2,-4.831901472E-4,-1.180833507E-1,1.205003862E-1
1.137397096E1,6.643971875E-3,-2.131829731E-2,-1.454711241E-1,1.471749303E-1
1.138396896E1,2.587816849E-2,6.735014850E-3,-2.176228416E-1,2.192595294E-1
1.139396696E1,2.366638608E-2,-2.615068072E-2,-2.516074437E-1,2.540674352E-1
1.140396596E1,-1.161125466E-2,1.363302540E-2,-2.911311132E-1,2.916813427E-1
1.141396396E1,-1.617681546E-2,4.431803457E-3,-2.990663695E-1,2.995363478E-1
1.142396196E1,-2.285813643E-2,1.569918702E-2,-3.070016259E-1,3.082514512E-1
1.143396096E1,-1.357778292E-2,9.641350550E-4,-2.906849706E-1,2.910035015E-1
1.144395896E1,-1.618015934E-3,-7.816069094E-3,-2.378436828E-1,2.379775753E-1
1.145395696E1,1.476626605E-2,1.483331717E-2,-1.773717785E-1,1.786024012E-1
1.146395596E1,3.940133477E-2,-6.953161675E-5,-9.414718866E-2,1.020596059E-1
1.147395396E1,1.415300276E-2,-1.226945471E-2,4.341616094E-2,4.728435298E-2
1.148395296E1,6.706317812E-3,-4.047940602E-3,1.580771363E-1,1.582711014E-1
1.149395096E1,8.378256038E-3,2.147482910E-2,2.722843677E-1,2.732583765E-1
1.150394896E1,7.924512103E-3,1.605816038E-2,3.492243701E-1,3.496831753E-1
1.151394796E1,-5.244422536E-3,4.080066027E-3,4.161358130E-1,4.161888583E-1
1.152394596E1,2.060412616E-3,6.022618418E-3,4.787068677E-1,4.787491853E-1
1.153394396E1,2.512517503E-2,2.761815826E-2,5.507071424E-1,5.519713704E-1
1.154394296E1,4.957592854E-2,1.110079730E-2,6.685109961E-1,6.704386268E-1
1.155394096E1,2.154954784E-2,3.544572764E-2,7.586200976E-1,7.597534042E-1
1.156393996E1,2.768802792E-2,1.851093944E-2,8.743294787E-1,8.749636102E-1
1.157393796E1,1.977179328E-2,4.258021924E-2,9.627943432E-1,9.639382481E-1
1.158393596E1,2.308661638E-2,4.537296820E-2,1.077758789E0,1.078960474E0
1.159393496E1,3.227752576E-2,2.672149459E-2,1.190626423E0,1.191363570E0
1.160393296E1,4.363546807E-2,1.161368720E-2,1.298102340E0,1.298887454E0
1.161393096E1,5.786083013E-2,1.064042043E-2,1.376538645E0,1.377795244E0
1.162392996E1,5.369280690E-2,2.396187832E-2,1.469488909E0,1.470664728E0
1.163392796E1,5.343763076E-2,5.551700571E-3,1.584593103E0,1.585503612E0
1.164392596E1,5.077700146E-2,5.135833346E-3,1.731582164E0,1.732334111E0
1.165392496E1,5.304623276E-2,5.056990495E-2,1.945032433E0,1.946412696E0
1.166392296E1,5.518905457E-2,2.752421452E-2,2.178989471E0,2.179862044E0
1.167392196E1,5.036157506E-2,3.113427632E-3,2.391847417E0,2.392379578E0
1.168391996E1,7.513854839E-2,3.640154412E-3,2.501421314E0,2.502552226E0
1.169391796E1,7.446032619E-2,3.197415576E-2,2.577015873E0,2.578289645E0
1.170391696E1,7.213779386E-2,2.594034998E-3,2.743761506E0,2.744710876E0
1.171391496E1,1.096290991E-1,4.910989632E-2,2.887914083E0,2.890411402E0
1.172391296E1,1.236966960E-1,-3.959819407E-2,3.068873713E0,3.071620868E0
1.173391196E1,1.841317262E-1,-7.517861095E-2,3.154169971E0,3.160434230E0
1.174390996E1,7.514452351E-2,1.394259345E-1,3.189323432E0,3.193253865E0
1.175390796E1,3.682037378E-2,2.182912697E-2,3.221493643E0,3.221778009E0
1.176390696E1,1.166309937E-1,-8.777052591E-2,3.121643080E0,3.125053915E0
1.177390496E1,3.851323407E-2,8.609267651E-2,3.045003040E0,3.046463315E0
1.178390396E1,1.063553710E-2,4.992077722E-2,3.026303059E0,3.026733455E0
1.179390196E1,1.384266362E-1,6.019451785E-2,2.947872017E0,2.951734192E0
1.180389996E1,6.265843403E-2,1.144031588E-1,3.056260684E0,3.059042911E0
1.181389896E1,8.571387744E-2,-3.798295557E-2,3.234394940E0,3.235753421E0
1.182389696E1,2.068754948E-1,7.137335264E-3,3.289473957E0,3.295980480E0
1.183389496E1,9.284148714E-2,1.214374323E-1,3.375384758E0,3.378844307E0
1.184389396E1,1.756139227E-1,3.537905339E-2,3.381648880E0,3.386390567E0
1.185389196E1,1.476186419E-1,-3.717726178E-2,3.346744511E0,3.350204804E0
1.186388996E1,6.495458080E-2,2.344269354E-2,3.256157691E0,3.256889861E0
1.187388896E1,7.782468617E-2,-4.238546127E-2,3.168269947E0,3.169509058E0
1.188388696E1,4.587632211E-2,7.980225105E-2,2.939675975E0,2.941116773E0
1.189388596E1,-3.765056876E-2,7.463598934E-2,2.753465545E0,2.754734217E0
1.190388396E1,1.583478989E-2,6.107667997E-4,2.508583569E0,2.508633619E0
1.191388196E1,-6.446792800E-3,8.124365366E-2,2.208186373E0,2.209689831E0
1.192388096E1,1.166186962E-2,-1.665960818E-3,1.950455140E0,1.950490715E0
1.193387896E1,8.002333062E-2,6.863628927E-2,1.677905309E0,1.681214115E0
1.194387696E1,2.515530646E-2,7.079530512E-2,1.515666125E0,1.517527122E0
1.195387596E1,1.334839482E-1,-4.046379212E-2,1.227527032E0,1.235426201E0
1.196387396E1,1.367151196E-1,-1.346568312E-2,9.699150825E-1,9.795956389E-1
1.197387196E1,7.665076626E-2,2.176026230E-2,7.964135760E-1,8.003895508E-1
1.198387096E1,1.161164387E-1,-2.957757393E-2,5.193146110E-1,5.329592155E-1
1.199386896E1,-2.255746163E-4,5.646165081E-2,2.733497304E-1,2.791201247E-1
1.200386796E1,-2.343156556E-2,-2.291810922E-2,6.256813109E-2,7.063320057E-2
1.201386596E1,-9.040800389E-3,-6.004814560E-2,-1.854824513E-1,1.951698122E-1
1.202386396E1,-6.000069179E-2,1.338790007E-1,-5.192994082E-1,5.396253749E-1
1.203386296E1,-5.997014008E-2,1.405777994E-2,-7.517671609E-1,7.542863535E-1
1.204386096E1,-1.237773327E-2,-2.575412758E-2,-9.275023037E-1,9.279423510E-1
1.205385896E1,-7.223942578E-2,5.270024661E-3,-1.075536847E0,1.077973013E0
1.206385796E1,-1.755474837E-2,-1.699879009E-2,-1.275522732E0,1.275756783E0
1.207385596E1,1.973201394E-2,1.374013452E-3,-1.475967039E0,1.476099570E0
1.208385396E1,-5.153984383E-2,-4.164548700E-2,-1.580615242E0,1.582003554E0
1.209385296E1,-4.483246621E-2,5.523823057E-2,-1.765508294E0,1.766941071E0
1.210385096E1,5.583354564E-2,-1.310063094E-1,-1.833495625E0,1.839017739E0
1.211384996E1,-9.599631580E-2,2.966647902E-2,-1.934571179E0,1.937178629E0
1.212384796E1,-6.449378366E-2,-5.082077791E-3,-2.131441083E0,2.132422652E0
1.213384596E1,-1.200022241E-2,-1.368089492E-2,-2.351818548E0,2.351888954E0
1.214384496E1,-1.983451746E-1,8.265058511E-2,-2.468137209E0,2.477473150E0
1.215384296E1,-1.077877012E-1,-7.062997967E-2,-2.597472941E0,2.600667696E0
1.216384096E1,-6.337603357E-2,9.361180298E-2,-2.749139190E0,2.751462516E0
1.217383996E1,-9.833116382E-2,-7.065930711E-2,-2.769950016E0,2.772595326E0
1.218383796E1,3.535734560E-2,4.087774301E-2,-2.995562493E0,2.996050029E0
1.219383596E1,-7.856777592E-2,1.463025205E-2,-3.178367504E0,3.179372097E0
1.220383496E1,-7.672889968E-2,-1.416169410E-1,-3.394391717E0,3.398210972E0
1.221383296E1,1.761645477E-2,4.052284900E-2,-3.715965773E0,3.716228474E0
1.222383196E1,-1.282424493E-1,-1.134153174E-1,-3.913280650E0,3.917023693E0
1.223382996E1,-3.725387173E-2,7.357952081E-2,-4.327354735E0,4.328140571E0
1.224382796E1,-1.655362831E-1,-7.463431740E-2,-4.619433682E0,4.623001199E0
1.225382696E1,-1.051865125E-1,-1.016951743E-2,-5.001621146E0,5.002737421E0
1.226382496E1,-8.345818609E-2,1.366896408E-2,-5.344594842E0,5.345263898E0
1.227382296E1,-1.569743514E-1,-1.258389879E-1,-5.520356882E0,5.524021769E0
1.228382196E1,-7.287478058E-2,7.533338401E-2,-5.784289087E0,5.785238638E0
1.229381996E1,-1.247025450E-1,-1.207133278E-1,-5.797641789E0,5.800239025E0
1.230381825E1,-1.303047805E-1,-2.119248396E-2,-5.841538591E0,5.843030170E0
1.231381725E1,-1.029794445E-1,-1.107917060E-2,-5.821517724E0,5.822439019E0
1.232381525E1,-1.217489153E-1,-1.482659470E-1,-5.687125905E0,5.690360854E0
1.233381425E1,-1.159237364E-1,4.058052630E-2,-5.554081868E0,5.555439720E0
1.234381225E1,-1.033584537E-1,-5.389172644E-2,-5.299782366E0,5.301064083E0
1.235381025E1,-8.854562916E-2,-2.350663376E-2,-5.102218398E0,5.103040806E0
1.236380925E1,-9.122877024E-2,3.567341730E-2,-4.890884237E0,4.891865074E0
1.237380725E1,-5.190365028E-2,-6.906540181E-2,-4.637340195E0,4.638144899E0
1.238380525E1,-8.250401186E-2,-3.471229265E-2,-4.377058407E0,4.377973521E0
1.239380425E1,-6.170769503E-2,-5.588332464E-3,-4.108241438E0,4.108708652E0
1.240380225E1,-3.503331849E-2,-5.664565994E-2,-3.832539958E0,3.833118651E0
1.241380125E1,-8.965641741E-2,6.986346908E-2,-3.623591461E0,3.625373670E0
1.242379925E1,-1.254106610E-1,1.097678266E-2,-3.305058541E0,3.307455258E0
1.243379725E1,-1.331187714E-1,7.383846567E-2,-3.027376024E0,3.031200804E0
1.244379625E1,-1.332272372E-1,3.768948016E-2,-2.848469936E0,2.851832914E0
1.245379425E1,-5.597393364E-3,-4.218742339E-2,-2.740222771E0,2.740553219E0
1.246379225E1,-1.450557159E-2,7.448876741E-2,-2.552789689E0,2.553917419E0
1.247379125E1,-4.717034748E-2,1.132606586E-2,-2.203540176E0,2.204074097E0
1.248378925E1,-3.415837403E-2,-1.571174140E-2,-1.786027343E0,1.786423053E0
1.249378725E1,-8.504448088E-2,6.723116680E-2,-1.506678954E0,1.510574085E0
1.250378625E1,3.445254380E-2,-3.147966404E-2,-1.276286963E0,1.277139914E0
1.251378425E1,5.621326748E-2,-7.767859257E-3,-9.487434840E-1,9.504390930E-1
1.252378325E1,-6.151150268E-2,7.378303589E-2,-6.123695397E-1,6.198580923E-1
1.253378125E1,2.583645226E-2,-5.314166115E-2,-5.437834543E-1,5.469844638E-1
1.254377925E1,4.077519290E-3,-6.285077316E-3,-5.639621955E-1,5.640119558E-1
1.255377825E1,6.953002704E-2,-1.137806039E-2,-4.855042559E-1,4.905897139E-1
1.256377625E1,5.829465698E-2,-1.902197467E-3,-3.438800150E-1,3.487912701E-1
1.257377425E1,-2.658913510E-2,3.100731866E-2,-2.175327945E-1,2.213344812E-1
1.258377325E1,7.974816430E-2,-6.173504447E-2,-1.061562002E-1,1.464244661E-1
1.259377125E1,1.442095142E-2,1.204891875E-4,-9.311632454E-2,9.422647321E-2
1.260376925E1,-7.607739195E-3,-2.123384387E-2,-7.978408813E-2,8.291112435E-2
1.261376825E1,2.679965314E-2,-7.381880441E-2,1.932153940E-2,8.087496014E-2
1.262376625E1,-5.715817753E-3,2.604850063E-2,1.465680617E-1,1.489744665E-1
1.263376525E1,-4.227732433E-2,7.784040056E-2,2.744256181E-1,2.883676819E-1
1.264376325E1,-8.664380400E-2,-2.284044175E-2,3.729593879E-1,3.835720787E-1
1.265376125E1,6.881014343E-2,-1.426800196E-1,3.571163571E-1,3.906718781E-1
1.266376025E1,-6.246770516E-2,1.131903641E-1,3.775055981E-1,3.990297599E-1
1.267375825E1,7.133851603E-2,-5.199590838E-2,4.273817629E-1,4.364034024E-1
1.268375625E1,1.218143493E-1,-1.321550863E-1,4.241079068E-1,4.606204719E-1
1.269375525E1,-1.478791902E-2,1.553170495E-1,3.286205363E-1,3.637767520E-1
1.270375325E1,1.084279531E-1,1.143275927E-2,2.985354424E-1,3.178218673E-1
1.271375125E1,-5.910182856E-3,8.097416097E-2,3.373118377E-1,3.469452707E-1
1.272375025E1,7.609001828E-2,6.305360987E-3,4.904556781E-1,4.963629928E-1
1.273374825E1,-3.699792814E-2,1.143471717E-1,5.880755281E-1,6.002307466E-1
1.274374725E1,-1.218569609E-1,8.344115607E-2,6.249504089E-1,6.421639659E-1
1.275374525E1,4.171292184E-2,-1.819354526E-2,5.539008915E-1,5.557671910E-1
1.276374325E1,-4.783111939E-2,1.631263532E-1,6.258339232E-1,6.485106958E-1
1.277374225E1,-1.348779062E-1,2.425066545E-1,7.578073347E-1,8.070151693E-1
1.278374025E1,9.753612522E-3,-1.015795479E-1,9.855996537E-1,9.908684145E-1
1.279373825E1,1.032857837E-1,-8.276623207E-2,9.807716078E-1,9.896621387E-1
1.280373725E1,1.907274403E-1,-4.006330353E-2,9.205411935E-1,9.409453298E-1
1.281373525E1,2.351160298E-1,-1.302810445E-1,9.078884035E-1,9.468442593E-1
1.282373425E1,8.461827368E-2,3.902673838E-2,8.524170381E-1,8.574952743E-1
1.283373225E1,5.756382812E-2,-1.241704209E-1,1.012644780E0,1.021851916E0
1.284373025E1,1.945392036E-1,8.191972883E-2,9.683603078E-1,9.910994044E-1
1.285372925E1,-1.573354170E-2,1.788549430E-1,1.204135830E0,1.217448041E0
1.286372725E1,-7.217602003E-2,2.175827882E-1,1.181248659E0,1.203287182E0
1.287372525E1,-1.205020880E-1,4.114638146E-2,1.239506223E0,1.246029475E0
1.288372425E1,-2.036508467E-2,-7.563109408E-2,1.273335289E0,1.275741963E0
1.289372225E1,7.200970329E-2,-2.511644806E-1,1.373909152E0,1.398533286E0
1.290372025E1,6.821906302E-2,-2.236181928E-1,1.431821145E0,1.450782799E0
1.291371925E1,1.102719456E-1,-1.660152614E-1,1.266684081E0,1.282267340E0
1.292371725E1,1.384682793E-2,-7.895910996E-2,1.262155997E0,1.264699188E0
1.293371625E1,-6.117729776E-2,-1.235087993E-1,1.396080040E0,1.402867265E0
1.294371425E1,-2.587392926E-2,-5.580102507E-2,1.412675022E0,1.414013414E0
1.295371225E1,7.520272158E-2,3.624820774E-2,1.324165719E0,1.326794722E0
1.296371125E1,-5.965804495E-3,2.728901940E-1,1.405864770E0,1.432117454E0
1.297370925E1,-2.100131655E-1,4.509420951E-1,1.463302554E0,1.545544781E0
1.298370725E1,3.906016070E-1,-1.474833063E-1,1.406060652E0,1.466740433E0
1.299370625E1,8.380879976E-2,-1.436786327E-1,1.444474520E0,1.454019980E0
1.300370425E1,2.864220215E-2,3.596949792E-1,1.352340528E0,1.399652013E0
1.301370225E1,1.321150785E-1,3.500411531E-1,1.350445445E0,1.401315847E0
1.302370125E1,1.979638813E-1,4.392709795E-2,1.295079914E0,1.310858983E0
1.303369925E1,1.627224202E-1,-3.222745166E-1,1.282238259E0,1.332093992E0
1.304369725E1,4.825476844E-2,-2.885357717E-1,1.177507026E0,1.213303016E0
1.305369625E1,-1.660696040E-1,2.700136015E-1,1.075795294E0,1.121526626E0
1.306369425E1,-1.346216154E-1,4.715972016E-1,1.070644482E0,1.177627490E0
1.307369325E1,9.812724218E-3,-6.280166797E-2,1.284654329E0,1.286225907E0
1.308369125E1,8.343746502E-2,-4.400182902E-1,1.385517045E0,1.456102808E0
1.309368925E1,3.630214602E-2,-2.569051673E-1,1.242854923E0,1.269648168E0
1.310368825E1,-8.234396260E-3,1.574808665E-1,1.029684736E0,1.041690302E0
1.311368625E1,-1.149886021E-2,3.462327519E-1,9.377583200E-1,9.996999595E-1
1.312368425E1,2.588814531E-2,-2.179457130E-2,1.020381231E0,1.020942240E0
1.313368325E1,9.019686459E-2,-3.630736466E-1,1.044792772E0,1.109752172E0
1.314368125E1,-2.602855340E-1,5.938157032E-1,8.192516309E-1,1.044767382E0
1.315368025E1,2.783879472E-2,-2.117885446E-1,9.372694927E-1,9.613030158E-1
1.316367825E1,2.159491127E-1,-1.607380031E-1,9.032030296E-1,9.424682688E-1
1.317367625E1,1.885817862E-1,1.277077214E-1,8.243492335E-1,8.552333079E-1
1.318367525E1,1.018674502E-2,1.891513781E-1,8.683717507E-1,8.887921642E-1
1.319367325E1,9.601614151E-2,5.999729766E-2,8.227061659E-1,8.304602402E-1
1.320367125E1,3.224754781E-1,-2.996365279E-1,7.761073655E-1,8.922528373E-1
1.321367025E1,2.935746098E-1,-3.233547897E-1,7.320474261E-1,8.524305283E-1
1.322366825E1,-2.706184594E-2,-4.430482809E-2,6.730110133E-1,6.750104335E-1
1.323366625E1,-1.577764980E-1,2.925218917E-1,5.840386105E-1,6.719848056E-1
1.324366525E1,-6.262716969E-2,7.915508305E-2,6.227547795E-1,6.308812922E-1
1.325366325E1,6.652066614E-3,-1.600743076E-1,6.481702870E-1,6.676771337E-1
1.326366225E1,-6.191560009E-2,-1.815182949E-1,5.974240565E-1,6.274535331E-1
1.327366025E1,-2.313463481E-1,3.048152058E-1,4.875759244E-1,6.198094260E-1
1.328365825E1,-1.938641791E-1,2.923879722E-1,4.693548310E-1,5.859761118E-1
1.329365725E1,-5.964399336E-2,1.434969031E-1,4.503888023E-1,4.764439530E-1
1.330365483E1,6.814341467E-2,-1.951714156E-1,4.600103956E-1,5.043262540E-1
1.331365283E1,2.050649227E-1,3.525892509E-2,2.504666519E-1,3.256199595E-1
1.332365183E1,1.442476855E-1,-7.942540257E-3,2.274093264E-1,2.694169269E-1
1.333364983E1,8.375463992E-2,8.790113809E-2,1.478977185E-1,1.913509471E-1
1.334364783E1,9.591852956E-2,-8.761086951E-2,1.553423935E-1,2.025025629E-1
1.335364683E1,1.670033130E-1,-2.103976748E-1,1.659334552E-1,3.157391323E-1
1.336364483E1,6.168085266E-2,-5.117140529E-2,1.142569327E-1,1.395624841E-1
1.337364383E1,-3.978277422E-2,1.955096770E-1,3.623168707E-2,2.027792841E-1
1.338364183E1,-8.911339380E-2,1.317001272E-1,4.713382065E-2,1.658545070E-1
1.339363983E1,-3.600075860E-2,-6.734696908E-2,5.626132429E-2,9.485254595E-2
1.340363883E1,6.273804752E-2,-4.527158297E-2,-1.199146986E-2,7.829031984E-2
1.341363683E1,3.550308745E-2,4.154240241E-2,-3.637962162E-2,6.564843705E-2
1.342363483E1,-8.355464688E-2,4.933264052E-1,-1.453430700E-1,5.210344797E-1
1.343363383E1,9.261393908E-2,-2.686448414E-1,5.562456250E-3,2.842152942E-1
1.344363183E1,8.528456390E-2,-1.486071457E-2,-1.032396090E-1,1.347320101E-1
1.345362983E1,3.307002448E-2,1.539369056E-1,-2.102600276E-1,2.626775146E-1
1.346362883E1,1.012482483E-1,-8.860329732E-2,-1.303239119E-1,1.873127708E-1
1.347362683E1,7.130816532E-2,-1.469085524E-1,-8.167507768E-2,1.825864056E-1
1.348362583E1,1.897664504E-2,1.523905089E-1,-1.834610689E-1,2.392507974E-1
1.349362383E1,2.247413881E-2,-1.464667770E-1,-1.211870527E-1,1.914259790E-1
1.350362183E1,-2.566240624E-2,-5.210236881E-2,-1.512739009E-1,1.620401463E-1
1.351362083E1,-4.521785254E-2,3.232306323E-2,-1.359927875E-1,1.469131473E-1
1.352361883E1,-2.141085919E-3,-5.944794718E-2,-9.704916179E-2,1.138296204E-1
1.353361683E1,-4.518044863E-2,-3.634472106E-2,-7.052385271E-2,9.130074199E-2
1.354361583E1,-8.135890776E-2,1.302464820E-1,-9.248950303E-2,1.792699811E-1
1.355361383E1,-1.753218178E-2,-1.213905267E-1,5.008140206E-3,1.227522661E-1
1.356361183E1,-3.538968801E-2,4.328444327E-2,2.198202252E-2,6.007647095E-2
1.357361083E1,6.994421091E-3,3.354510161E-2,5.182621121E-2,6.213012101E-2
1.358360883E1,-5.631362032E-3,-5.723693222E-3,6.864046454E-2,6.910851087E-2
1.359360783E1,-2.354235202E-4,2.345684791E-2,8.694634259E-2,9.005523654E-2
1.360360583E1,7.144968621E-2,-3.000770745E-2,1.455103004E-1,1.648598426E-1
1.361360383E1,7.582130218E-2,-6.804855273E-2,2.130497342E-1,2.361560176E-1
1.362360283E1,3.550588315E-2,8.904986928E-2,2.455508977E-1,2.636015750E-1
1.363360083E1,-3.723936332E-2,6.548291327E-2,3.615812910E-1,3.693451124E-1
1.364359883E1,-4.450321315E-2,-5.742142558E-2,5.428794748E-1,5.477187967E-1
1.365359783E1,7.228686132E-2,9.956602268E-2,6.282312816E-1,6.401666396E-1
1.366359583E1,3.659516461E-2,1.526556162E-1,7.953148842E-1,8.106594280E-1
1.367359483E1,-3.571826499E-2,1.046270162E-1,1.005221155E0,1.011282442E0
1.368359283E1,-4.461230027E-2,-2.947227608E-2,1.202570531E0,1.203758595E0
1.369359083E1,3.887386110E-2,-1.939139307E-2,1.336901540E0,1.337607166E0
1.370358983E1,2.000667593E-1,8.346968866E-2,1.473159791E0,1.489024401E0
1.371358783E1,2.419420328E-1,3.439764849E-2,1.695166875E0,1.712690830E0
1.372358583E1,1.260761290E-1,-9.499000998E-2,1.962517362E0,1.968855680E0
1.373358483E1,-8.831707612E-3,-9.312966350E-2,2.214162812E0,2.216138103E0
1.374358283E1,6.769632194E-3,8.951765567E-2,2.368222911E0,2.369923838E0
1.375358083E1,9.763169065E-2,1.338127810E-1,2.574533730E0,2.579856921E0
1.376357983E1,-3.759832755E-3,3.663674837E-2,2.902561358E0,2.902795002E0
1.377357783E1,1.633054242E-2,-7.408906454E-2,3.126419086E0,3.127339473E0
1.378357683E1,1.496820695E-1,-1.491271368E-2,3.230218273E0,3.233718789E0
1.379357483E1,3.525862268E-1,1.040698679E-1,3.267208344E0,3.287825718E0
1.380357283E1,2.379567533E-1,-1.022202840E-1,3.456096214E0,3.465786122E0
1.381357183E1,1.815164677E-1,7.395763467E-2,3.427308033E0,3.432908142E0
1.382356983E1,-3.022137064E-2,1.054611672E-1,3.482971187E0,3.484698506E0
1.383356783E1,-2.777460326E-2,-2.048557386E-1,3.603647193E0,3.609572051E0
1.384356683E1,-1.596995924E-1,2.699861927E-1,3.445465976E0,3.459715638E0
1.385356483E1,1.648474446E-1,-4.071260942E-4,3.402064433E0,3.406055967E0
1.386356283E1,4.355757951E-1,-1.644690566E-1,3.343189403E0,3.375454300E0
1.387356183E1,1.115426918E-1,2.286779575E-2,3.411262688E0,3.413162439E0
1.388355983E1,-1.923086736E-1,5.031625457E-2,3.476817577E0,3.482495487E0
1.389355883E1,-7.656212613E-2,1.000814913E-2,3.312620745E0,3.313520502E0
1.390355683E1,1.252054420E-1,-6.974657502E-2,3.117140724E0,3.120433829E0
1.391355483E1,2.987116628E-1,-1.930690309E-1,2.893502267E0,2.915280377E0
1.392355383E1,6.300743971E-2,-2.977390790E-2,2.748135223E0,2.749018667E0
1.393355183E1,-5.164801732E-2,4.974962739E-1,2.394102688E0,2.445791843E0
1.394354983E1,1.060458705E-1,-3.837403379E-2,2.288100269E0,2.290877809E0
1.395354883E1,1.392153708E-1,-1.212507691E-1,2.135858070E0,2.143821905E0
1.396354683E1,-6.682344228E-2,2.389418995E-1,1.932878995E0,1.948738005E0
1.397354583E1,9.336347904E-2,8.356431305E-2,1.665055468E0,1.669763290E0
1.398354383E1,2.587217875E-1,1.760665703E-1,1.343481996E0,1.379449265E0
1.399354183E1,1.060433489E-1,-1.847896111E-1,1.335199415E0,1.352090925E0
1.400354083E1,1.019448527E-1,7.475253166E-2,1.007015666E0,1.014919329E0
1.401353883E1,3.834410336E-2,4.767580273E-2,6.903579479E-1,6.930637407E-1
1.402353683E1,3.304352928E-3,3.917403796E-3,4.210059589E-1,4.210371507E-1
1.403353583E1,-6.750433227E-2,-2.696930005E-3,1.612644535E-1,1.748437367E-1
1.404353383E1,-1.680682188E-1,-2.882237862E-2,-3.094521940E-2,1.733068444E-1
1.405353183E1,-1.063689292E-1,-2.370949331E-2,-2.568190670E-1,2.789848067E-1
1.406353083E1,-3.699909758E-2,2.105985723E-2,-5.400207710E-1,5.416963023E-1
1.407352883E1,7.200308863E-2,1.775412564E-1,-8.232505417E-1,8.452495471E-1
1.408352783E1,1.494285562E-1,-7.142098461E-2,-8.912501514E-1,9.065079607E-1
1.409352583E1,9.701840909E-2,-8.834512448E-2,-9.531335735E-1,9.621231947E-1
1.410352383E1,1.207142323E-1,-4.693972964E-2,-1.065040510E0,1.072887018E0
1.411352283E1,3.977562966E-2,-1.192357592E-2,-1.159579462E0,1.160322715E0
1.412352083E1,-1.511011156E-1,9.132301091E-2,-1.306051045E0,1.317930488E0
1.413351883E1,-1.814937001E-1,-1.897551671E-3,-1.351911342E0,1.364040997E0
1.414351783E1,-2.381607846E-1,-8.955237351E-2,-1.318544206E0,1.342869692E0
1.415351583E1,-1.818585481E-1,4.846105638E-2,-1.394425278E0,1.407068890E0
1.416351483E1,-9.384872485E-3,-2.213568552E-3,-1.503547186E0,1.503578104E0
1.417351283E1,6.049900247E-2,-1.046744563E-2,-1.582451853E0,1.583642498E0
1.418351083E1,2.347169938E-1,-1.717725944E-1,-1.670067117E0,1.695205612E0
1.419350983E1,2.045991372E-1,-4.910329079E-2,-1.744857098E0,1.757497719E0
1.420350783E1,1.961823078E-2,-3.775128249E-2,-1.676688504E0,1.677228181E0
1.421350583E1,-2.532449199E-2,-6.838134153E-2,-1.757312252E0,1.758824519E0
1.422350483E1,-4.673712362E-2,3.014628326E-1,-2.003644338E0,2.026735017E0
1.423350283E1,-1.123681176E-1,-3.023835498E-1,-1.971817943E0,1.998031132E0
1.424350083E1,-2.281912088E-1,1.930176668E-1,-2.237842281E0,2.257712365E0
1.425349983E1,-2.248127607E-1,-4.335640057E-2,-2.383343811E0,2.394315826E0
1.426349783E1,-9.665964587E-2,-1.434609884E-1,-2.658458231E0,2.664080387E0
1.427349683E1,-2.824380577E-2,3.793793018E-1,-3.102878780E0,3.126113097E0
1.428349483E1,1.257472231E-1,-1.709275987E-1,-3.256775742E0,3.263681486E0
1.429349283E1,1.541753075E-1,1.013277248E-1,-3.768607087E0,3.773120288E0
1.430349187E1,7.682642028E-2,-1.757390714E-1,-4.075534453E0,4.080045048E0
1.431348987E1,6.899652343E-2,-1.400092947E-1,-4.532455180E0,4.535142013E0
1.432348787E1,-1.671320248E-1,3.196891154E-2,-4.946854370E0,4.949780124E0
1.433348687E1,-2.387170558E-1,2.712619820E-1,-5.413783776E0,5.425829307E0
1.434348487E1,-2.398164420E-1,-7.088923973E-2,-5.561989642E0,5.567608642E0
1.435348287E1,-3.099880913E-1,-9.051457853E-2,-5.688311720E0,5.697470994E0
1.436348187E1,-2.536752384E-1,1.744094511E-1,-5.821961528E0,5.830094838E0
1.437347987E1,-9.815965768E-2,-1.157209568E-1,-5.725231040E0,5.727241667E0
1.438347887E1,-5.648938397E-2,-1.145166953E-1,-5.653495059E0,5.654936914E0
1.439347687E1,-3.732604830E-2,-8.815361903E-2,-5.518596870E0,5.519427118E0
1.440347487E1,-6.183841685E-2,-2.712717030E-2,-5.338945847E0,5.339372869E0
1.441347387E1,-9.857842796E-2,-6.942448252E-3,-4.992533988E0,4.993511943E0
1.442347187E1,-9.551642384E-2,2.073210252E-2,-4.563044304E0,4.564090986E0
1.443346987E1,-1.131628091E-1,1.034540830E-1,-4.180098456E0,4.182909474E0
1.444346887E1,-8.299145037E-2,-4.248921281E-2,-3.812864077E0,3.814003852E0
1.445346687E1,-1.344066571E-2,-1.525500557E-1,-3.522265645E0,3.525593205E0
1.446346487E1,5.452053510E-3,1.485187979E-2,-3.271637610E0,3.271675863E0
1.447346387E1,-1.645859644E-2,8.368573414E-2,-2.949015148E0,2.950248215E0
1.448346188E1,-3.024748212E-2,6.545258084E-2,-2.704540722E0,2.705501704E0
1.449346087E1,-3.452645626E-2,-4.685790516E-2,-2.458869372E0,2.459558157E0
1.450345887E1,8.167098463E-3,-1.604078730E-1,-2.199433091E0,2.205289847E0
1.451345687E1,5.143218197E-2,-8.882344499E-2,-1.975932629E0,1.978596630E0
1.452345587E1,2.171253897E-3,7.071985320E-2,-1.781787527E0,1.783191746E0
1.453345387E1,-3.390793048E-2,6.167320560E-2,-1.592145951E0,1.593700744E0
1.454345187E1,2.136452001E-2,-1.310475048E-1,-1.323921890E0,1.330563438E0
1.455345087E1,2.143240253E-2,-4.366333828E-2,-1.136537924E0,1.137578256E0
1.456344887E1,-6.448565237E-2,1.400227251E-1,-9.605320555E-1,9.728240296E-1
1.457344787E1,-6.600841351E-2,5.330294837E-2,-7.938033789E-1,7.983245702E-1
1.458344588E1,-9.217263876E-2,4.874472857E-2,-7.505573720E-1,7.577652753E-1
1.459344387E1,-8.363458928E-2,-7.508375815E-2,-6.706206715E-1,6.799738233E-1
1.460344287E1,-1.059405841E-1,-1.017849497E-2,-5.646299475E-1,5.745728733E-1
1.461344087E1,1.989878749E-2,-2.109287573E-2,-6.493461621E-1,6.499933149E-1
1.462343887E1,-5.286409199E-2,1.315097638E-1,-7.199898827E-1,7.338084637E-1
1.463343787E1,7.412679736E-3,-8.726602997E-2,-7.520250231E-1,7.571076166E-1
1.464343587E1,-1.237099070E-2,-8.908887204E-2,-7.361504173E-1,7.416247740E-1
1.465343387E1,3.934903873E-2,-7.166717523E-2,-6.391497874E-1,6.443578056E-1
1.466343287E1,1.153477674E-1,-6.303108439E-2,-6.336235839E-1,6.471142643E-1
1.467343088E1,-1.310978640E-2,1.763720508E-1,-5.310873950E-1,5.597613669E-1
1.468342987E1,9.289212037E-2,-1.015602978E-1,-2.348738819E-1,2.722300140E-1
1.469342787E1,4.278387593E-2,-4.602825835E-2,-9.015061677E-2,1.098917390E-1
1.470342587E1,-1.823344566E-3,5.458557623E-2,-8.583010912E-2,1.017335606E-1
1.471342487E1,1.126327224E-1,-7.387376823E-3,-1.539653742E-1,1.909084596E-1
1.472342287E1,-4.154611174E-3,4.648537357E-2,-1.734395260E-1,1.796090753E-1
1.473342087E1,-2.058768086E-3,-4.167190454E-2,-1.863349754E-1,1.909489701E-1
1.474341987E1,-1.406761514E-2,3.963402654E-2,-2.186712474E-1,2.226788456E-1
1.475341787E1,-8.773063693E-2,-5.082894118E-2,-1.087874472E-1,1.487109767E-1
1.476341588E1,-2.292768175E-2,6.782581036E-2,-8.018988490E-2,1.075008687E-1
1.477341488E1,-2.262543552E-3,7.070105989E-5,1.135307086E-1,1.135532733E-1
1.478341287E1,-5.576867810E-2,-2.040916491E-2,2.451339912E-1,2.522248067E-1
1.479341187E1,3.287808962E-2,-1.036233691E-1,2.233133519E-1,2.483699348E-1
1.480340987E1,-1.556905221E-2,7.326748049E-2,2.398036695E-1,2.512296140E-1
1.481340787E1,3.819086976E-2,4.237331917E-2,3.654094630E-1,3.698352557E-1
1.482340687E1,6.825694202E-2,-9.816104639E-4,3.115408194E-1,3.189320552E-1
1.483340487E1,1.873329123E-2,8.715593786E-2,8.581315219E-2,1.237375884E-1
1.484340287E1,1.273743205E-1,-2.677953277E-2,1.265167898E-1,1.815154511E-1
1.485340187E1,-6.396726016E-3,5.337984382E-2,4.049202687E-1,4.084736831E-1
1.486339988E1,4.228503535E-2,1.193908794E-1,4.963566881E-1,5.122618160E-1
1.487339787E1,7.291971277E-2,-9.112595061E-2,4.666931784E-1,4.810652203E-1
1.488339687E1,-3.463762645E-2,3.939940701E-2,3.740241659E-1,3.776852593E-1
1.489339487E1,-7.582256299E-2,1.144379589E-1,4.109867549E-1,4.333073046E-1
1.490339387E1,-1.786485180E-2,-4.070887269E-2,5.314832515E-1,5.333393027E-1
1.491339187E1,-7.064478043E-3,-3.608566656E-2,6.004955989E-1,6.016203508E-1
1.492338987E1,4.329753555E-3,-1.093856722E-1,7.364275753E-1,7.445196745E-1
1.493338887E1,2.657515660E-2,1.122481858E-1,7.940665036E-1,8.024010882E-1
1.494338687E1,2.549071737E-2,3.600484023E-2,9.638257921E-1,9.648348473E-1
1.495338487E1,1.185755218E-1,-6.771671411E-2,1.067706256E0,1.076402507E0
1.496338388E1,1.879003664E-1,-6.980957648E-3,1.136542017E0,1.151990902E0
1.497338187E1,8.600673158E-2,-3.731302454E-2,1.300583898E0,1.303958549E0
1.498338087E1,-1.199167086E-2,2.766203522E-2,1.340530322E0,1.340869319E0
1.499337887E1,9.054665599E-2,3.040119537E-2,1.251142766E0,1.254783309E0
1.500337687E1,7.037083838E-2,1.796320722E-2,1.115513091E0,1.117874854E0
1.501337587E1,1.765089853E-2,-1.508752829E-2,1.039023324E0,1.039282760E0
1.502337387E1,-5.915701166E-2,-4.515487620E-2,9.808113688E-1,9.836307519E-1
1.503337187E1,-7.136830028E-2,1.130401272E-1,8.946298420E-1,9.045629104E-1
1.504337087E1,6.766288318E-3,6.756279986E-2,9.389827269E-1,9.414345841E-1
1.505336888E1,1.881828417E-1,-4.352103167E-2,1.008916011E0,1.027238229E0
1.506336687E1,1.955025141E-1,-6.592611395E-2,1.072700363E0,1.092361458E0
1.507336587E1,8.775848430E-2,6.444163380E-2,9.632808316E-1,9.694143780E-1
1.508336387E1,2.348800946E-2,1.492703798E-1,8.752480763E-1,8.881962216E-1
1.509336287E1,9.869714471E-2,1.074495860E-1,8.848088586E-1,8.967570776E-1
1.510336087E1,1.075625469E-1,-1.297456040E-1,9.892734593E-1,1.003526582E0
1.511335887E1,5.176830551E-2,-3.836148055E-2,1.036865117E0,1.038865165E0
1.512335787E1,-1.424702782E-1,9.522575327E-2,1.166057008E0,1.178581635E0
1.513335587E1,-1.508232815E-1,2.406170126E-2,1.278798342E0,1.287886574E0
1.514335387E1,1.547922436E-3,-1.188064959E-1,1.332879825E0,1.338165164E0
1.515335288E1,-8.755014069E-2,2.568866389E-1,1.236083847E0,1.265527183E0
1.516335087E1,2.273348110E-2,-1.167840080E-1,1.258757595E0,1.264367826E0
1.517334987E1,4.045613592E-2,-1.577365725E-1,1.334874895E0,1.344770802E0
1.518334787E1,-1.294098459E-3,1.155574449E-1,1.372224569E0,1.377082229E0
1.519334587E1,8.253567819E-2,2.253270781E-1,1.358523958E0,1.379554919E0
1.520334487E1,2.002942708E-1,3.675152967E-2,1.361123046E0,1.376271926E0
1.521334287E1,2.136546652E-1,-3.005755268E-2,1.277189773E0,1.295285872E0
1.522334088E1,4.384794127E-2,-3.663582332E-2,1.205238615E0,1.206592286E0
1.523333987E1,-1.961888859E-2,9.473002816E-2,1.102902986E0,1.107137604E0
1.524333787E1,1.016378374E-1,3.269590865E-1,1.006533855E0,1.063175854E0
1.525333587E1,1.214591310E-1,1.262941388E-1,1.120338798E0,1.133958356E0
1.526333487E1,5.560283644E-2,-3.403164660E-1,1.372480093E0,1.415135533E0
1.527333287E1,-3.066773247E-2,-1.249428290E-1,1.449948099E0,1.455644431E0
1.528333187E1,-5.597795360E-2,8.979013592E-2,1.372211121E0,1.376284549E0
1.529332987E1,-2.404188696E-2,7.293938317E-2,1.316492418E0,1.318730622E0
1.530332746E1,5.625693887E-2,-1.567090705E-1,1.302698836E0,1.313296172E0
1.531332646E1,3.550454926E-2,-6.076768660E-2,1.163750281E0,1.165876495E0
1.532332446E1,9.509663031E-2,-2.020214104E-1,1.092307831E0,1.114895698E0
1.533332246E1,3.850728818E-1,-1.129608608E-1,8.481941789E-1,9.383361048E-1
1.534332146E1,4.437389467E-1,1.529476481E-1,6.221209413E-1,7.793148923E-1
1.535331946E1,-1.044196868E-1,-3.501681610E-2,8.560534215E-1,8.631089785E-1
1.536331846E1,-5.228378873E-1,2.590711038E-1,8.721116298E-1,1.049312150E0
1.537331646E1,-1.253596989E-1,3.386129528E-1,5.808495390E-1,6.839298012E-1
1.538331446E1,1.788101935E-1,1.341687668E-1,4.624358207E-1,5.136353099E-1
1.539331346E1,-5.059303343E-4,-3.467342968E-1,6.523726809E-1,7.387929638E-1
1.540331146E1,2.337972634E-3,-5.453042420E-1,6.752393872E-1,8.679345669E-1
1.541330946E1,1.178098106E-1,-1.862972243E-1,4.656260616E-1,5.151635046E-1
1.542330846E1,1.261934022E-1,4.660121697E-2,2.777053213E-1,3.085720235E-1
1.543330646E1,1.389543291E-2,2.806521444E-2,2.921584690E-1,2.938321124E-1
1.544330446E1,-4.126660021E-1,-1.654234136E-1,6.059276623E-1,7.515360716E-1
1.545330346E1,-7.006349411E-2,3.229516105E-2,2.342400438E-1,2.466176570E-1
1.546330146E1,-9.800116159E-3,5.425385455E-1,2.128474206E-1,5.828791814E-1
1.547329946E1,2.113124534E-1,-3.188996499E-1,2.788385117E-1,4.733929185E-1
1.548329846E1,-6.006384172E-2,6.266621813E-1,8.778775692E-2,6.356255540E-1
1.549329646E1,1.918110755E-1,-1.878773795E-1,2.606150794E-1,3.741785911E-1
1.550329546E1,3.847457301E-1,4.882824325E-2,1.460014665E-1,4.144030676E-1
1.551329346E1,9.195020702E-3,3.466003590E-1,1.511323982E-1,3.782292414E-1
1.552329146E1,-2.162910651E-1,8.781337503E-2,3.418919617E-1,4.139844528E-1
1.553329046E1,-4.509038324E-2,2.198121853E-2,1.916804999E-1,1.981356371E-1
1.554328846E1,5.406182103E-2,-1.741986613E-2,1.646751344E-1,1.741953849E-1
1.555328646E1,2.956326652E-2,-1.042444530E-1,1.177810496E-1,1.600414582E-1
1.556328546E1,-1.218811355E-1,-1.070147724E-1,1.714947420E-1,2.360457991E-1
1.557328346E1,-6.150386475E-2,6.728406583E-2,5.531115174E-2,1.066264245E-1
1.558328246E1,1.994384760E-2,3.948312270E-2,2.175807416E-2,4.929592099E-2
1.559328046E1,6.521785168E-2,-2.442930703E-1,2.293804228E-2,2.538870342E-1
1.560327846E1,4.210103078E-2,-2.547642641E-1,-3.470380962E-2,2.605411319E-1
1.561327746E1,8.642696366E-3,6.804902782E-4,-1.097048753E-1,1.100468943E-1
1.562327546E1,-5.605817009E-2,8.902599620E-2,-1.287141734E-1,1.662392399E-1
1.563327346E1,-1.702369329E-2,-6.068710009E-2,-9.308241069E-2,1.124147029E-1
1.564327246E1,1.839711105E-1,-2.767681086E-2,-1.619526708E-1,2.466577446E-1
1.565327046E1,1.376112785E-1,-3.361109064E-2,-1.426551050E-1,2.010399173E-1
1.566326946E1,-1.803316025E-2,1.908790476E-1,-1.212730068E-1,2.268637209E-1
1.567326746E1,6.945874583E-2,-3.411430978E-2,1.551149368E-2,7.892344354E-2
1.568326546E1,1.024916039E-1,5.993856512E-2,5.873001873E-2,1.324627328E-1
1.569326446E1,8.228156185E-2,9.469444694E-3,1.245591420E-1,1.495824377E-1
1.570326246E1,-2.635846244E-2,-8.610048803E-2,2.394949365E-1,2.558630242E-1
1.571326046E1,-6.581589393E-2,7.626395924E-2,3.078851402E-1,3.239462655E-1
1.572325946E1,-5.766087363E-2,7.888268502E-2,3.801888853E-1,3.925440649E-1
1.573325746E1,-5.672647029E-2,-1.633313529E-1,5.198607409E-1,5.478596656E-1
1.574325546E1,2.426333198E-2,-2.028284541E-1,5.655222327E-1,6.012848632E-1
1.575325446E1,1.682202465E-1,1.533116007E-1,4.455993479E-1,5.003611467E-1
1.576325246E1,1.343991837E-1,-4.622181946E-2,5.517023385E-1,5.697149001E-1
1.577325146E1,1.250646886E-1,2.545647689E-2,5.863833439E-1,6.001121850E-1
1.578324946E1,8.711931054E-2,1.891174460E-1,6.138687658E-1,6.482206756E-1
1.579324746E1,-7.098856017E-2,-2.672356853E-2,8.933007699E-1,8.965153598E-1
1.580324646E1,-1.312804798E-1,1.933018597E-1,9.869860286E-1,1.014268995E0
1.581324446E1,-5.710166054E-2,1.684781269E-1,1.044011584E0,1.059058859E0
1.582324246E1,-3.528672220E-2,1.596591736E-1,1.091622537E0,1.103800692E0
1.583324146E1,-2.445340304E-2,-9.255014048E-2,1.192384096E0,1.196220436E0
1.584323946E1,4.957879733E-2,4.579281199E-2,1.193299186E0,1.195206252E0
1.585323846E1,4.570054019E-2,-9.638517391E-2,1.331632029E0,1.335897639E0
1.586323646E1,1.681286279E-1,-1.374299509E-1,1.492400054E0,1.508115429E0
1.587323446E1,2.261805889E-1,1.357080189E-1,1.643861650E0,1.664889020E0
1.588323346E1,2.007118899E-1,3.907605599E-2,1.945294973E0,1.956012457E0
1.589323146E1,5.468977544E-2,-2.090011404E-1,2.240003997E0,2.250397822E0
1.590322946E1,-1.124152791E-2,9.998673898E-2,2.237442332E0,2.239703531E0
1.591322846E1,-5.356712831E-2,1.233487318E-1,2.307351058E0,2.311266590E0
1.592322646E1,-3.250737615E-2,6.188490221E-2,2.363809433E0,2.364842808E0
1.593322446E1,-1.527248874E-2,-1.311870797E-3,2.438111756E0,2.438159943E0
