"Time (s)","Linear Acceleration x (m/s^2)","Linear Acceleration y (m/s^2)","Linear Acceleration z (m/s^2)","Absolute acceleration (m/s^2)"
4.849291669E-3,-1.746003947E-2,8.611139674E-2,-1.513727188E-2,8.915807662E-2
1.484829167E-2,6.513631500E-3,8.540907305E-2,-8.399525285E-3,8.606793351E-2
2.484629166E-2,1.595504953E-2,8.147811787E-2,-8.698318005E-3,8.347998583E-2
3.484429169E-2,1.061831979E-2,7.281840976E-2,-3.789054215E-2,8.277054246E-2
4.484329169E-2,2.126316446E-2,5.932469884E-2,-4.433183491E-2,7.705098080E-2
5.484129168E-2,2.053734684E-2,3.744726839E-2,-2.367713034E-2,4.883325738E-2
6.484029168E-2,1.847819275E-2,3.454388827E-2,6.553559303E-3,3.971993157E-2
7.483829168E-2,-4.469197372E-3,2.655511161E-2,-1.126349151E-2,2.918927747E-2
8.483629167E-2,-2.322366050E-2,-5.602692403E-3,-2.713108063E-2,3.615002220E-2
9.483529167E-2,-3.369242632E-2,-4.018241314E-2,-1.455956697E-2,5.442230157E-2
1.048332917E-1,-1.825089709E-2,-7.597164871E-2,1.313576996E-2,7.922963527E-2
1.148312917E-1,-6.141938733E-3,-7.106841121E-2,7.450522184E-3,7.172135501E-2
1.248302917E-1,-1.100777062E-2,-6.253608104E-2,-1.470106959E-2,6.517709638E-2
1.348282917E-1,-5.561273103E-3,-3.465483919E-2,-2.771931052E-2,4.472410774E-2
1.448272917E-1,9.176111469E-4,-3.440222120E-2,-3.265552998E-2,4.744194844E-2
1.548252917E-1,1.575462708E-2,-2.759366848E-2,-5.854817033E-3,3.230940570E-2
1.648232917E-1,1.767022860E-2,-3.796461906E-2,-8.094300628E-3,4.265052147E-2
1.748222917E-1,-4.195291578E-5,-1.499006823E-2,-1.242825687E-2,1.947217179E-2
1.848202917E-1,-5.369487284E-3,1.588823710E-2,-1.542027712E-2,2.278272192E-2
1.948182917E-1,5.786034591E-3,1.950711541E-2,-7.124949217E-2,7.409788042E-2
2.048172917E-1,-1.057062661E-1,3.397283457E-2,-7.214937866E-2,1.324141269E-1
2.148152917E-1,3.113051675E-2,2.301774714E-2,1.327774036E-1,1.383067774E-1
2.248142917E-1,2.000468971E-1,-4.979794001E-2,9.072656751E-2,2.252330036E-1
2.348122917E-1,1.703235082E-1,1.018493969E-1,-1.796112621E-1,2.676632260E-1
2.448102917E-1,-2.179939753E-1,4.525836278E-3,-7.542732775E-2,2.307187427E-1
2.548092917E-1,-1.696428740E-1,1.707991792E-2,-4.100418448E-2,1.753618301E-1
2.648072917E-1,-2.982964603E-2,2.097441936E-2,-5.851776481E-2,6.894971245E-2
2.748062917E-1,-8.804079518E-2,4.464519085E-2,7.410117924E-2,1.234315983E-1
2.848042917E-1,5.989008348E-2,2.253323223E-2,2.770755762E-1,2.843684996E-1
2.948022917E-1,1.197093243E-1,4.726901924E-2,-4.296241701E-2,1.356851200E-1
3.048012917E-1,-1.369309413E-2,1.106972392E-1,-4.519219422E-1,4.654834277E-1
3.147992917E-1,-1.593925405E-2,4.736783719E-2,-2.217106301E-1,2.272737893E-1
3.247972917E-1,1.796769154E-1,-4.811874758E-3,5.090556711E-1,5.398561145E-1
3.347962917E-1,1.267018450E-1,7.143397182E-3,2.198500460E-1,2.538472541E-1
3.447942917E-1,-4.975872712E-2,6.997123601E-2,-4.094483525E-1,4.183537476E-1
3.547932917E-1,-1.695090459E-1,3.833622789E-2,-3.010830742E-1,3.476406199E-1
3.647912917E-1,-8.282499659E-2,-1.247616384E-1,2.049981183E-1,2.538694053E-1
3.747892917E-1,1.472089440E-1,-1.493508613E-2,1.542466253E-1,2.137417867E-1
3.847882917E-1,-1.170412855E-1,-8.416027224E-2,-1.618947834E-1,2.167753095E-1
3.947862917E-1,-2.274247302E-1,-1.651161424E-1,8.389117241E-2,2.932969096E-1
4.047842917E-1,1.444716704E-1,-1.357489220E-1,1.479620379E-1,2.473713768E-1
4.147832917E-1,9.273522313E-2,-1.384053669E-1,-5.664724052E-2,1.759681138E-1
4.247812917E-1,-1.697968020E-1,3.756013792E-3,-3.100620586E-1,3.535301144E-1
4.347802917E-1,4.966514883E-2,-1.551734090E-2,3.243801355E-2,6.131590006E-2
4.447782917E-1,2.162801564E-1,-8.198028406E-2,2.560805637E-1,3.450726418E-1
4.547762917E-1,-5.483665933E-2,-4.622297063E-3,1.565539366E-1,1.659444482E-1
4.647752917E-1,-1.064475834E-1,1.425441541E-3,-2.980366749E-1,3.164790348E-1
4.747732917E-1,-4.377853756E-2,1.004987449E-1,-3.191445386E-1,3.374459877E-1
4.847712917E-1,-1.063457093E-2,2.191023699E-1,2.113511181E-1,3.046116178E-1
4.947702917E-1,3.401516065E-2,1.503728449E-2,1.149469042E-1,1.208136659E-1
5.047682917E-1,4.504546017E-2,4.516882729E-3,-6.782477796E-2,8.154566952E-2
5.147672917E-1,-4.852260746E-2,8.874693783E-2,-4.762089372E-2,1.117954021E-1
5.247652917E-1,-5.645417734E-2,6.264365153E-2,-6.768386006E-2,1.081314299E-1
5.347628334E-1,1.571143991E-2,4.594966812E-2,-7.876433372E-2,9.253130071E-2
5.447618334E-1,4.821852027E-2,9.223178700E-3,-5.573565960E-3,4.940806978E-2
5.547598334E-1,8.304180952E-2,4.249116797E-3,7.944553435E-2,1.150025654E-1
5.647588334E-1,-2.295694295E-2,5.622322602E-2,7.525600433E-2,9.670335342E-2
5.747568333E-1,-1.371867524E-1,-1.081513250E-1,-7.817434967E-2,1.913848036E-1
5.847548333E-1,-3.493929938E-2,-2.333247352E-2,-2.160394156E-1,2.200867739E-1
5.947538333E-1,4.181436189E-2,6.358775759E-2,-3.488448858E-3,7.618407348E-2
6.047518333E-1,-2.619646830E-4,2.293181134E-2,1.969383162E-1,1.982691025E-1
6.147498333E-1,6.586468621E-2,-1.710295960E-2,5.892414629E-2,9.001512724E-2
6.247488333E-1,5.040802388E-3,-1.265499362E-1,-2.046771061E-1,2.406927789E-1
6.347468334E-1,-6.440485573E-2,-1.227330565E-3,-1.527409673E-1,1.657687994E-1
6.447458334E-1,6.561167079E-2,4.694267152E-2,5.951296091E-2,1.002511759E-1
6.547438334E-1,8.150289545E-2,-2.032477543E-2,8.794738591E-2,1.216164510E-1
6.647418333E-1,-3.449100523E-2,-9.940549834E-2,1.520159125E-2,1.063116688E-1
6.747408333E-1,-6.030847003E-2,-1.997713288E-1,-9.810341477E-2,2.305861560E-1
6.847388333E-1,-2.362213911E-2,-2.385850366E-2,-3.253273845E-2,4.675053715E-2
6.947368333E-1,-5.010812110E-2,1.011225149E-1,7.736451030E-3,1.131213486E-1
7.047358333E-1,-1.306536126E-2,-5.094879996E-2,1.133131921E-2,5.380411395E-2
7.147338333E-1,1.926566652E-2,-7.652073881E-2,2.806078792E-3,7.895861860E-2
7.247328333E-1,6.030714299E-3,-5.809676528E-2,3.350746930E-2,6.733761319E-2
7.347308334E-1,1.313450573E-2,6.380200323E-2,-9.117621839E-2,1.120549582E-1
7.447288333E-1,-4.368245251E-3,1.195678491E-1,-1.031501466E-1,1.579731143E-1
7.547278334E-1,3.362561731E-2,4.776124517E-2,-3.085634172E-2,6.606006739E-2
7.647258333E-1,8.868218905E-2,4.504802747E-2,3.859688580E-2,1.066938378E-1
7.747238333E-1,5.658995265E-3,5.611465054E-2,1.854152083E-2,5.936889949E-2
7.847228333E-1,-7.708431903E-2,7.805437211E-2,-7.306973040E-2,1.318091907E-1
7.947208333E-1,-4.649610413E-2,9.410936449E-2,-7.292822778E-2,1.278162219E-1
8.047198333E-1,3.042671469E-3,3.339545857E-2,-7.523027658E-3,3.436728747E-2
8.147178333E-1,9.333124055E-3,3.297752883E-2,2.420513391E-2,4.195846899E-2
8.247158334E-1,1.452790978E-2,-1.147424709E-3,2.048279643E-3,1.471639207E-2
8.347148334E-1,1.691633978E-2,-4.443430737E-2,-2.519974530E-2,5.381075530E-2
8.447128334E-1,4.396372414E-3,-9.375992026E-3,-3.343554854E-2,3.500247453E-2
8.547118334E-1,-4.455678826E-3,-3.198143737E-2,-5.094912887E-2,6.031980722E-2
8.647098333E-1,7.032800296E-3,-5.581434119E-2,9.525699019E-3,5.705646243E-2
8.747078333E-1,1.006145701E-2,-9.777330291E-3,3.557270586E-2,3.823933194E-2
8.847068333E-1,-7.864022543E-3,-4.392176237E-2,1.042500079E-2,4.582188016E-2
8.947048333E-1,-4.901859753E-2,-8.544908993E-2,-5.768219769E-2,1.141560590E-1
9.047028333E-1,-5.849223349E-2,-2.872102993E-2,-5.827802896E-2,8.742177989E-2
9.147018333E-1,-1.373663304E-2,-3.089944666E-2,-6.187523603E-3,3.437668308E-2
9.246998334E-1,5.728965766E-2,-2.106497811E-2,5.563684165E-2,8.259113952E-2
9.346988334E-1,4.696407324E-2,-2.325329857E-2,-6.781600714E-3,5.284250352E-2
9.446968334E-1,-2.237878123E-2,-4.870708711E-2,-7.877661288E-2,9.528349763E-2
9.546948333E-1,-1.460977765E-2,2.383264801E-2,-1.694873929E-2,3.269098465E-2
9.646938333E-1,1.552046779E-2,3.373256883E-2,9.099436998E-3,3.823049664E-2
9.746918333E-1,2.041658128E-2,1.489870548E-2,1.957706273E-2,3.196982329E-2
9.846898333E-1,-1.244764519E-2,2.078151606E-2,-4.762907982E-2,5.343542388E-2
9.946888333E-1,-5.222099420E-2,2.264252035E-2,-5.720506489E-2,8.069780302E-2
1.004686833E0,-2.725018339E-2,4.398017971E-2,-1.080039203E-2,5.285335533E-2
1.014685833E0,1.729657211E-2,4.075704826E-2,2.078041971E-2,4.890944932E-2
1.024683833E0,1.206658031E-2,2.870827569E-2,-1.260425806E-2,3.359515999E-2
1.034681833E0,-3.463958789E-3,3.116730396E-2,-5.452060819E-2,6.289591850E-2
1.044680833E0,1.487063428E-3,1.955955762E-2,-3.356535673E-2,3.887699609E-2
1.054678833E0,1.224561475E-2,2.919039689E-3,1.732413054E-2,2.141498009E-2
1.064676833E0,1.584175402E-2,-8.080979940E-3,2.255914271E-2,2.872591734E-2
1.074675833E0,-5.470211855E-3,7.513306662E-4,-3.686961830E-2,3.728077881E-2
1.084673833E0,-2.568138913E-2,1.692125738E-2,-6.276869059E-2,6.989829194E-2
1.094672833E0,-1.627172651E-2,5.187138095E-3,-2.205745161E-2,2.789635561E-2
1.104670833E0,2.005345006E-3,-3.231677519E-2,3.407464921E-2,4.700507511E-2
1.114668833E0,3.217305646E-3,-4.408890137E-2,5.934923887E-3,4.460275330E-2
1.124667833E0,-1.316185974E-2,-4.372072779E-3,-5.439021528E-2,5.613060743E-2
1.134665833E0,-3.029123231E-3,2.930759702E-2,-5.154612958E-2,5.937267305E-2
1.144664833E0,2.455408021E-2,-2.029738488E-2,1.292234659E-3,3.188348410E-2
1.154662833E0,3.062269749E-2,-4.953026544E-2,3.751515090E-2,6.927036411E-2
1.164660833E0,-3.142733089E-3,-6.557252185E-2,9.224567413E-3,6.629272236E-2
1.174659833E0,-4.483983461E-2,-2.081137341E-2,-4.690636396E-2,6.814639397E-2
1.184657833E0,-3.147679297E-2,2.129144808E-2,-5.020010054E-2,6.296161014E-2
1.194655833E0,-1.616669932E-2,-3.667371830E-2,2.455830574E-4,4.007972170E-2
1.204654833E0,-3.959621093E-3,-5.032148508E-2,3.692224324E-2,6.253944760E-2
1.214652833E0,-1.735369666E-4,-2.374546967E-2,3.248713017E-3,2.396730234E-2
1.224651833E0,-2.269470675E-2,1.464784166E-2,-2.384143710E-2,3.602808769E-2
1.234649833E0,7.520123180E-4,5.385026146E-2,-5.452704012E-2,7.663950865E-2
1.244647833E0,3.896863624E-2,5.174670735E-2,-3.806128085E-2,7.513279864E-2
1.254646833E0,3.058623690E-2,4.880597815E-4,2.655220628E-3,3.070515082E-2
1.264644833E0,3.025912973E-3,3.059818715E-2,3.555691838E-3,3.095235291E-2
1.274643833E0,-1.110193249E-2,6.850791547E-2,-4.015458405E-2,8.018090800E-2
1.284641833E0,-2.705421030E-2,6.070076795E-2,-4.419793367E-2,7.981209724E-2
1.294639833E0,1.740552446E-2,1.199828552E-2,-4.719638586E-2,5.171469787E-2
1.304638833E0,1.856087832E-2,2.710586451E-2,2.165574789E-2,3.934724274E-2
1.314636833E0,7.557150787E-4,-1.100663429E-2,1.551500201E-2,1.903765719E-2
1.324634833E0,-8.897163308E-3,8.997494448E-3,-4.735601485E-2,4.901741082E-2
1.334633833E0,-4.423252475E-3,-4.041880511E-2,-5.903407395E-2,7.168170517E-2
1.344631833E0,1.503588779E-2,-5.497815281E-2,-1.053434372E-2,5.796246722E-2
1.354630833E0,9.289139175E-3,-3.101783451E-2,3.527332842E-2,4.788112219E-2
1.364628833E0,-1.967255050E-2,-3.518052215E-2,-2.444136143E-3,4.038133459E-2
1.374626833E0,-2.066076420E-2,-3.446476813E-3,-4.150996864E-2,4.649540705E-2
1.384625833E0,-3.086895891E-3,-4.164862074E-4,-2.938342810E-2,2.954806650E-2
1.394623833E0,-1.471053477E-2,-1.485616699E-2,8.935714960E-3,2.273659017E-2
1.404621833E0,1.621536940E-2,-2.714507740E-2,-6.305695832E-2,7.054057998E-2
1.414620833E0,-5.012666317E-2,2.009430377E-2,1.658153415E-2,5.649257189E-2
1.424618833E0,1.294273602E-1,-2.823434059E-2,-6.305052638E-2,1.467105600E-1
1.434617833E0,-2.636130382E-2,1.460280165E-1,1.927476168E-2,1.496349437E-1
1.444615833E0,-6.851094872E-2,-3.193495201E-2,3.155157566E-2,8.190905433E-2
1.454613833E0,-7.209057303E-3,-5.294460084E-2,-1.449279177E-1,1.544642438E-1
1.464612833E0,1.234099631E-2,-3.058250930E-2,1.718438208E-2,3.718727004E-2
1.474610833E0,5.324632174E-2,1.845883755E-2,1.823044896E-2,5.923047131E-2
1.484609833E0,-5.774326455E-2,8.540784879E-2,2.421448946E-2,1.059014954E-1
1.494607833E0,-2.244989799E-2,-4.356044099E-2,-5.931240141E-2,7.693809785E-2
1.504605833E0,-3.335517674E-2,-5.396910612E-2,5.489833832E-2,8.389910476E-2
1.514604833E0,2.832340156E-3,-2.321768537E-2,-7.210201621E-3,2.447590800E-2
1.524602833E0,-4.602214619E-2,2.673091181E-2,-5.541172385E-2,7.683123535E-2
1.534601458E0,2.158222829E-2,3.049392398E-2,-4.538550317E-2,5.878363613E-2
1.544600458E0,2.635174043E-2,3.644858222E-2,4.158130467E-2,6.125290416E-2
1.554598458E0,1.140245996E-2,2.198077999E-3,-1.694756985E-2,2.054428786E-2
1.564597458E0,3.093698990E-3,-3.812092245E-3,-5.811138332E-2,5.831840097E-2
1.574595458E0,2.811368466E-2,9.687082171E-3,-3.087095976E-2,4.286297916E-2
1.584593458E0,1.514229712E-3,3.506054459E-2,5.199928880E-3,3.547638565E-2
1.594592458E0,1.349728092E-2,3.448870517E-3,-2.967988193E-2,3.278668467E-2
1.604590458E0,1.922194031E-2,-1.937723413E-2,-3.043183386E-2,4.087856044E-2
1.614588458E0,-2.206192153E-2,-4.862065796E-2,6.392176151E-3,5.377319665E-2
1.624587458E0,-5.599240033E-3,-2.963622881E-2,-5.732025504E-3,3.070038540E-2
1.634585458E0,1.269212161E-2,1.380366817E-2,-3.806245029E-2,4.243090063E-2
1.644584458E0,-6.803549471E-3,2.366733626E-3,-4.683619738E-3,8.592206196E-3
1.654582458E0,-1.660931413E-2,-5.517699469E-2,2.405544519E-2,6.244224934E-2
1.664580458E0,-2.079369928E-2,-3.622086972E-2,6.695061922E-3,4.229838280E-2
1.674579458E0,-3.931664607E-2,-1.046284324E-2,-3.611123443E-2,5.439936579E-2
1.684577458E0,-3.099953912E-2,3.478115732E-2,-3.521134794E-2,5.839982323E-2
1.694576458E0,1.066378874E-2,4.381481314E-2,4.305889606E-3,4.529895061E-2
1.704574458E0,5.703242242E-3,5.178531725E-3,-9.332156181E-4,7.759835971E-3
1.714572458E0,8.776754919E-4,6.807255372E-3,-2.787426174E-2,2.870685471E-2
1.724571458E0,1.757858834E-2,9.387905728E-3,-3.385947168E-2,3.928871803E-2
1.734569458E0,2.743243150E-2,1.970049379E-2,-1.994075954E-2,3.922093376E-2
1.744567458E0,2.418691618E-2,3.670160221E-2,-1.979516387E-2,4.820646255E-2
1.754566458E0,2.469393373E-3,3.611624110E-3,-2.788127840E-2,2.822246299E-2
1.764564458E0,-4.783601986E-4,-1.380021466E-2,-4.479493439E-2,4.687494960E-2
1.774563458E0,-9.219384576E-4,-8.602770846E-3,-2.099384308E-2,2.270680700E-2
1.784561458E0,1.132008160E-2,3.448386295E-2,2.525821745E-2,4.421830616E-2
1.794559458E0,-1.669352317E-2,1.829219190E-2,4.898212552E-3,2.524421690E-2
1.804558458E0,-4.293030757E-2,-8.451419324E-4,-4.210463047E-2,6.013755466E-2
1.814556458E0,-2.373706430E-2,-3.782260481E-2,-3.970961094E-2,5.975659677E-2
1.824554458E0,6.768550117E-3,-3.759260824E-2,2.360988736E-2,4.490483544E-2
1.834553458E0,1.152990071E-2,-1.030008964E-2,1.911864102E-2,2.458765730E-2
1.844551458E0,-5.323982927E-3,-5.420040004E-3,-2.638556063E-2,2.745759344E-2
1.854550458E0,-1.788691248E-2,-2.009435859E-2,-3.237310946E-2,4.209207884E-2
1.864548458E0,-1.118558507E-3,-8.446869459E-3,-3.401676178E-2,3.506766115E-2
1.874546458E0,2.920301180E-2,-1.901589448E-2,1.044254243E-2,3.637948369E-2
1.884545458E0,1.856528428E-2,-4.954766091E-3,8.646277785E-3,2.107077614E-2
1.894543458E0,-3.305533791E-3,3.063644987E-2,-9.615161419E-3,3.227955922E-2
1.904542458E0,-1.561265508E-2,8.704055585E-3,-8.116753936E-2,8.311248419E-2
1.914540458E0,1.387024934E-3,2.299033832E-3,-1.994543731E-2,2.012535377E-2
1.924538458E0,9.473464654E-3,-2.227239160E-2,7.899588346E-3,2.545995790E-2
1.934537458E0,-3.018906592E-3,-2.159530230E-2,-7.367491722E-3,2.301631623E-2
1.944535458E0,-1.572853388E-2,2.683016829E-2,-3.955173612E-2,5.031485405E-2
1.954533458E0,-2.496849249E-2,2.975346548E-2,-4.449555695E-2,5.906393920E-2
1.964532458E0,1.097462535E-2,-6.301800124E-3,-1.426135898E-2,1.906676287E-2
1.974530458E0,1.464879069E-2,-2.158309624E-2,1.747557342E-2,3.139765562E-2
1.984529458E0,-1.282663498E-2,-3.060761578E-2,-9.767189026E-3,3.459402680E-2
1.994527458E0,-1.444984260E-2,1.892970286E-2,-3.551306427E-2,4.275873402E-2
2.004525458E0,-1.182746346E-2,2.716609083E-2,-2.533949375E-2,3.898686095E-2
2.014524458E0,7.518358451E-3,-1.297411272E-2,-1.950397253E-2,2.460199706E-2
2.024522458E0,5.085236087E-4,-3.104074828E-2,-1.665813267E-2,3.523180430E-2
2.034520458E0,5.645087000E-3,-1.149155119E-2,-3.933421969E-3,1.339382561E-2
2.044519458E0,6.255121185E-3,2.777794713E-2,-2.863323033E-2,4.038072271E-2
2.054517458E0,1.225291920E-2,4.172971431E-2,-2.908522010E-2,5.232067578E-2
2.064516458E0,6.556227095E-3,1.944144387E-2,-2.893845499E-2,3.547376538E-2
2.074514458E0,-3.604657130E-4,-4.671484938E-2,-1.395730376E-3,4.673708540E-2
2.084512458E0,-3.993488977E-3,-3.523881158E-2,-8.879581690E-3,3.655911332E-2
2.094511458E0,-1.251163908E-2,1.172850961E-2,-2.040736735E-2,2.665632556E-2
2.104509458E0,-3.085442653E-3,3.507183703E-2,-3.119021773E-2,4.703597975E-2
2.114507458E0,-5.809332661E-3,-1.068226000E-2,-2.460449874E-2,2.744522514E-2
2.124506458E0,-1.312413834E-2,-6.381185213E-2,1.850819170E-2,6.772553905E-2
2.134504458E0,-1.687234062E-2,-4.526664024E-2,1.162543416E-2,4.968797960E-2
2.144503458E0,-3.700808139E-3,7.912488766E-3,-4.450842083E-2,4.535750196E-2
2.154501458E0,2.387807014E-3,3.136654783E-2,-3.642698407E-2,4.812989833E-2
2.164499458E0,4.165273777E-3,-8.889247868E-3,5.455452204E-4,9.831879418E-3
2.174498458E0,-5.305483114E-3,-2.657378616E-2,1.147574544E-2,2.942799679E-2
2.184496458E0,-9.088455196E-3,-1.914064117E-2,-1.411751747E-2,2.546111666E-2
2.194495458E0,1.158510436E-3,2.344675004E-2,-6.186938882E-2,6.617335950E-2
2.204493458E0,2.048509763E-4,4.454286458E-2,-5.019834638E-2,6.711171826E-2
2.214491458E0,6.981120388E-3,5.181976100E-2,1.686044633E-2,5.493904188E-2
2.224490458E0,1.016618155E-2,6.547383182E-3,2.090087235E-2,2.414675835E-2
2.234488458E0,-1.168032832E-2,-2.527458966E-4,-3.388461471E-2,3.584216880E-2
2.244486458E0,-5.326216175E-3,2.303591006E-2,-4.301679611E-2,4.908631661E-2
2.254485458E0,1.738813242E-2,2.315438926E-2,-1.188388109E-2,3.130015209E-2
2.264483458E0,-8.206185729E-3,1.248349478E-2,-8.744511008E-3,1.731027438E-2
2.274482458E0,-2.021697881E-2,-4.032689419E-2,-1.084073782E-2,4.639510991E-2
2.284480458E0,-2.547392604E-3,-4.228984103E-2,-2.176509082E-2,4.763023243E-2
2.294478458E0,1.064354961E-2,1.567707952E-2,-4.848511219E-3,1.955924415E-2
2.304477458E0,-4.790856759E-4,2.189634254E-2,1.955191970E-2,2.935910257E-2
2.314475458E0,3.585021849E-3,3.256259579E-3,-2.670014083E-2,2.713582740E-2
2.324473458E0,-1.000281811E-2,-2.451258782E-2,-2.101372361E-2,3.380088626E-2
2.334472458E0,5.323959516E-3,-2.807578968E-2,-1.487648606E-2,3.221652291E-2
2.344470458E0,3.406929307E-3,1.253708817E-2,-1.113543749E-2,1.711092385E-2
2.354469458E0,-1.476838909E-2,1.889478402E-2,-4.227186084E-2,4.860070368E-2
2.364467458E0,-1.695398351E-2,5.215497091E-3,-5.859202445E-2,6.121816965E-2
2.374465458E0,1.115232932E-2,-8.093167730E-3,-9.791162610E-3,1.690386578E-2
2.384464458E0,1.934649285E-2,-2.074745603E-2,1.865086377E-2,3.394994016E-2
2.394462458E0,7.828031332E-4,1.277636720E-2,7.424794436E-3,1.479783470E-2
2.404461458E0,-1.812844703E-2,2.608941743E-2,-3.224037766E-2,4.526301189E-2
2.414459458E0,-1.896913959E-2,3.877142519E-3,-5.694018602E-2,6.014187622E-2
2.424457458E0,1.510046412E-2,-2.839610746E-2,-5.895162821E-3,3.269733751E-2
2.434456458E0,1.453357542E-2,-3.298750564E-2,3.168138385E-2,4.799073270E-2
2.444454458E0,-1.250103415E-2,-2.527988870E-3,9.963655472E-4,1.279294051E-2
2.454452458E0,-3.220066456E-2,3.097666645E-2,-4.360794961E-2,6.243468533E-2
2.464451458E0,-1.030540924E-2,2.471981680E-2,-4.854533851E-2,5.544294990E-2
2.474449458E0,1.581928906E-2,-1.859703284E-2,-1.620906651E-2,2.930585904E-2
2.484448458E0,8.384151219E-3,-1.900341433E-2,2.930039763E-2,3.591569363E-2
2.494446458E0,-1.517058959E-2,2.294937126E-2,-7.972678542E-3,2.864234685E-2
2.504444458E0,-2.366163294E-2,2.384013975E-2,-7.294226110E-2,8.030441203E-2
2.514443458E0,1.773968427E-3,1.877703572E-2,-5.767751992E-2,6.068294932E-2
2.524441458E0,3.898895988E-2,-6.050625667E-3,9.981781840E-3,4.069871045E-2
2.534439458E0,2.090549759E-2,-2.243070496E-2,2.531844378E-4,3.066334060E-2
2.544438292E0,-1.144235692E-2,2.392004561E-3,-3.312447667E-2,3.512663053E-2
2.554436292E0,-1.857664981E-2,1.196484676E-2,-3.177961707E-2,3.870650510E-2
2.564435292E0,1.195492933E-2,-7.959211674E-3,1.002212763E-3,1.439700720E-2
2.574433292E0,-7.801432782E-3,-2.177808261E-2,5.643147826E-3,2.381160122E-2
2.584431292E0,-6.037509403E-3,-2.925067803E-2,-3.634629250E-3,3.008760899E-2
2.594430292E0,-1.526529621E-2,1.155460976E-2,-3.252396762E-2,3.774051861E-2
2.604428292E0,-2.962156737E-2,3.283821892E-2,-2.818065584E-2,5.243982493E-2
2.614426292E0,1.353604442E-3,1.294979196E-2,7.896664739E-3,1.522782554E-2
2.624425292E0,1.948939332E-2,-1.482073652E-2,-8.565586209E-3,2.593954414E-2
2.634423292E0,3.320742262E-3,-1.737631693E-2,-2.123708725E-3,1.781779611E-2
2.644422292E0,-1.369753550E-2,2.759721335E-2,3.485642195E-2,4.652095027E-2
2.654420292E0,-2.162424236E-1,1.506714184E-2,-1.857309580E-2,2.175609442E-1
2.664418292E0,-1.032166495E-1,-2.290920820E-2,8.391339183E-3,1.060609407E-1
2.674417292E0,4.324422539E-2,3.737613335E-3,3.461610138E-2,5.551853076E-2
2.684415292E0,1.884411607E-1,3.601484673E-2,-1.819068789E-2,1.927123280E-1
2.694414292E0,4.433895664E-2,-3.956695715E-2,1.352759188E-1,1.477533803E-1
2.704412292E0,7.237608160E-3,1.655122730E-1,8.858707130E-2,1.878679448E-1
2.714410292E0,1.288032795E-1,1.673606144E-1,3.039914793E-1,3.701495367E-1
2.724409292E0,-2.193164876E-1,-9.280585567E-2,8.464879614E-1,8.793489168E-1
2.734407292E0,-8.197840199E-2,-4.650983138E-2,1.157129479E0,1.160961780E0
2.744405292E0,1.202877418E-1,8.354921993E-3,1.381265534E0,1.386518453E0
2.754404292E0,2.200086700E-1,-2.608287951E-1,1.322191699E0,1.365513224E0
2.764402292E0,-5.544470946E-1,-6.025461078E-1,-5.757236944E0,5.815174169E0
2.774401292E0,9.082274690E-1,4.562466160E-1,-7.218364334E-1,1.246629835E0
2.784399292E0,-4.401153175E-1,3.338296015E-1,4.377979928E-1,7.048480531E-1
2.794397292E0,-1.388179794E-1,-4.008446863E-1,4.296832269E-1,6.038001072E-1
2.804396292E0,-1.529291471E-1,2.899673893E-1,-2.632527584E-1,4.204407517E-1
2.814394292E0,9.971771910E-3,-1.757359651E-1,1.063398027E-1,2.056470746E-1
2.824392292E0,3.641557104E-1,2.924833914E-2,-1.767221528E-1,4.058270149E-1
2.834391292E0,-3.059163096E-1,8.162698433E-2,-4.603571355E-2,3.199484958E-1
2.844389292E0,-1.538736026E-2,-4.455143441E-2,3.600130677E-2,5.931016146E-2
2.854388292E0,1.917917249E-1,-4.045633692E-3,-8.971909225E-2,2.117780640E-1
2.864386292E0,-1.190737137E-1,-7.255970702E-2,9.336658537E-2,1.678117387E-1
2.874384292E0,1.034824603E-1,2.637257616E-1,-1.708521330E-1,3.308328102E-1
2.884383292E0,-4.830228392E-3,-2.282711877E-1,8.873559058E-2,2.449593258E-1
2.894381292E0,-1.255763839E-1,-3.368325122E-2,2.137274265E-2,1.317603269E-1
2.904380292E0,7.603255112E-2,1.725949139E-1,-1.724911076E-1,2.555839106E-1
2.914378292E0,-8.140974199E-2,-2.401803946E-1,1.855853623E-1,3.142548245E-1
2.924376292E0,3.597957158E-2,8.592304330E-2,-1.077641845E-3,9.315825381E-2
2.934375292E0,-3.317132520E-2,8.072475895E-2,-3.012134671E-2,9.232615584E-2
2.944373292E0,-3.418586052E-2,-1.027574513E-1,-7.361059785E-3,1.085447007E-1
2.954371292E0,2.111857607E-2,3.672879176E-2,-1.122811586E-1,1.200085704E-1
2.964370292E0,-1.462630289E-2,2.857775487E-2,2.527225077E-2,4.085711038E-2
2.974368292E0,3.700495850E-2,-1.491752621E-2,4.518552840E-2,6.027961113E-2
2.984367292E0,2.428070918E-2,2.490703734E-2,-5.958838999E-2,6.899775046E-2
2.994365292E0,-2.545271046E-2,6.303185184E-2,-1.082477492E-1,1.278218683E-1
3.004363292E0,4.362286687E-3,1.495154969E-2,-1.888592184E-2,2.447971460E-2
3.014362292E0,9.527022637E-3,1.419206947E-2,4.319338202E-3,1.763053257E-2
3.024360292E0,1.609038288E-2,-1.678298900E-2,-2.053542137E-2,3.102052017E-2
3.034358292E0,-2.499141083E-3,1.179482069E-2,-7.263528228E-2,7.362912286E-2
3.044357292E0,-4.386681681E-2,-2.870082049E-2,7.749314904E-3,5.299138228E-2
3.054355292E0,-3.796125235E-2,-5.239287950E-4,-7.073961496E-3,3.861828728E-2
3.064354292E0,3.221981191E-2,1.314669695E-2,-5.124148965E-2,6.194063433E-2
3.074352292E0,2.037940350E-2,-7.029305214E-2,3.513299525E-2,8.118349969E-2
3.084350292E0,-9.253430046E-3,-2.777734414E-2,3.019560635E-2,4.205926126E-2
3.094349292E0,-2.233162207E-2,1.506582621E-2,-3.761630774E-2,4.626734346E-2
3.104347292E0,1.168874397E-3,-5.128167098E-2,-1.740540683E-2,5.416755702E-2
3.114346292E0,2.618546708E-2,-6.657365654E-3,-6.620392978E-2,7.150496152E-2
3.124344292E0,-3.856012143E-2,-5.657345597E-3,4.447392225E-3,3.922585654E-2
3.134342292E0,-4.342493633E-2,-2.613657888E-2,5.519420743E-2,7.493494769E-2
3.144341292E0,9.117487993E-4,-1.374855816E-2,1.309776306E-3,1.384086888E-2
3.154339292E0,-2.181511649E-2,7.337616105E-3,-6.680093050E-2,7.065482456E-2
3.164337292E0,-1.336563863E-2,1.162965512E-2,-5.483051062E-2,5.762181938E-2
3.174336292E0,2.200459597E-2,-3.050349880E-2,2.705038905E-2,4.632914019E-2
3.184334292E0,2.949608750E-2,-1.093171684E-2,-1.542495489E-3,3.149445829E-2
3.194333292E0,5.473837814E-3,-1.687667236E-2,-6.186354160E-3,1.878978308E-2
3.204331292E0,4.620917486E-3,-2.085466107E-2,-2.788946450E-2,3.512964556E-2
3.214329292E0,-4.009286166E-3,-5.648501683E-3,-5.453288734E-2,5.497104464E-2
3.224328292E0,-2.528453906E-2,-1.429406684E-3,7.739959359E-3,2.648127810E-2
3.234326292E0,-1.326010666E-2,-3.069631074E-2,8.214227021E-2,8.868735240E-2
3.244324292E0,-2.346088843E-2,-3.042998834E-2,4.158890605E-2,5.662185605E-2
3.254323292E0,1.168614014E-3,7.479502447E-3,8.261063218E-2,8.295676684E-2
3.264321292E0,-8.167670393E-2,-1.416770668E-1,5.571484351E-1,5.806529549E-1
3.274320292E0,-1.243137508E-1,3.494816842E-2,8.739073098E-1,8.833964394E-1
3.284318292E0,2.543801020E-2,1.343012245E-1,1.037978427E0,1.046939886E0
3.294316292E0,6.195080673E-2,-6.496717058E-2,1.340671824E0,1.343673910E0
3.304315292E0,5.969147915E-2,7.970385337E-2,1.256262004E0,1.260202364E0
3.314313292E0,-2.373743432E-2,7.221996551E-2,1.277083354E0,1.279344005E0
3.324312292E0,-1.136319293E-1,-3.990344614E-2,1.488014057E0,1.492879880E0
3.334310292E0,-2.672892923E-2,1.813852342E-1,1.419897503E0,1.431685705E0
3.344308292E0,8.679298108E-2,1.247167245E-1,1.495769804E0,1.503467522E0
3.354307292E0,1.369195438E-2,7.338226408E-2,1.706042111E0,1.707674474E0
3.364305292E0,-1.592207329E-2,1.775386251E-1,1.673636257E0,1.683101838E0
3.374303292E0,9.883928686E-2,-1.296527429E-1,1.390306499E0,1.399832561E0
3.384302292E0,4.367123476E-1,-3.139582045E-2,1.422626399E0,1.488478835E0
3.394300292E0,2.475922612E-2,-6.503156304E-1,2.487719534E0,2.571433825E0
3.404299292E0,-5.783079371E-1,3.906372384E-1,1.871263960E0,1.997164573E0
3.414297292E0,9.170394788E-2,-2.078758072E-1,1.439676880E0,1.457494934E0
3.424295292E0,5.969419262E-2,1.291165898E-1,1.222846920E0,1.231092637E0
3.434294292E0,2.619891020E-1,6.438487561E-1,3.849163592E-1,7.945691372E-1
3.444292292E0,-2.932236307E-1,-2.351167607E-1,1.088379087E0,1.151446493E0
3.454290292E0,-3.237086194E-1,4.247932736E-1,5.945671070E-1,7.992162662E-1
3.464289292E0,-1.894318983E-1,-6.652991205E-2,4.464278984E-1,4.894982551E-1
3.474287292E0,1.955954301E-1,-6.372710405E-2,-2.929150987E-1,3.579357080E-1
3.484286292E0,-1.418638214E-1,-7.442080267E-1,1.315614751E0,1.518161093E0
3.494284292E0,-2.505814949E-1,1.055648713E0,-2.581604183E-1,1.115272205E0
3.504282292E0,3.880699819E-1,-2.119654412E-1,2.412695664E-1,5.037247887E-1
3.514281292E0,2.430356265E-1,1.717217602E-1,3.399185264E-1,4.517734867E-1
3.524279292E0,5.472431787E-1,-2.775878105E-1,3.684932846E-1,7.157635014E-1
3.534277292E0,-6.182073998E-1,5.359887504E-1,5.295507467E-1,9.746221437E-1
3.544276417E0,-1.013473221E-2,-6.924210649E-1,1.011736123E0,1.226034105E0
3.554274417E0,-7.347305124E-2,1.064113763E-1,3.409786266E-1,3.646753269E-1
3.564273417E0,-1.055260165E-1,-2.902238811E-1,8.770285535E-1,9.298089723E-1
3.574271417E0,-1.514444568E-1,-1.138089081E-1,1.021337836E0,1.038758329E0
3.584269417E0,4.010365846E-1,4.239540520E-1,3.611860192E-1,6.863109505E-1
3.594268417E0,-2.333793519E-1,-5.088537960E-1,1.239435471E0,1.359999410E0
3.604266417E0,-1.839367033E-1,3.990565346E-1,6.648757821E-1,7.969558547E-1
3.614265417E0,6.351497803E-2,-3.044776204E-1,8.420569414E-1,8.976640053E-1
3.624263417E0,-1.242368759E-2,-1.887837710E-1,1.026401525E0,1.043692364E0
3.634261417E0,4.321419811E-1,3.727647487E-2,8.284586567E-1,9.351363394E-1
3.644260417E0,-1.822341403E-1,-3.930600688E-2,1.174438407E0,1.189142471E0
3.654258417E0,-4.324872227E-1,-2.397301590E-1,1.561432866E0,1.637860905E0
3.664256417E0,3.498213343E-1,8.294247994E-2,7.451691628E-1,8.273641895E-1
3.674255417E0,1.088196891E-1,-3.982282765E-2,8.913232416E-1,8.988240670E-1
3.684253417E0,-3.346418163E-1,1.623879047E-1,1.027389119E0,1.092649706E0
3.694252417E0,3.926778802E-1,2.747367813E-1,4.507507449E-1,6.579152306E-1
3.704250417E0,-2.516367529E-1,2.187149188E-2,8.169834960E-1,8.551382638E-1
3.714248417E0,1.102688484E-1,9.125451626E-2,5.934181291E-1,6.104356490E-1
3.724247417E0,-9.738309262E-2,1.470025281E-1,6.602325082E-1,6.833741105E-1
3.734245417E0,1.252450021E-1,1.012949164E-1,3.112870502E-1,3.504947907E-1
3.744243417E0,3.509835963E-2,3.198906434E-1,2.075094974E-1,3.829126664E-1
3.754242417E0,-2.355489795E-1,-1.775359025E-1,6.608096284E-1,7.236516312E-1
3.764240417E0,1.008076241E-1,-2.367658217E-2,3.112870502E-1,3.280585089E-1
3.774239417E0,-5.117729818E-3,-1.237662778E-1,3.018788803E-1,3.263052881E-1
3.784237417E0,-3.869804720E-2,3.074594629E-1,-2.752284408E-3,3.098974592E-1
3.794235417E0,1.506205065E-2,-2.050389757E-1,2.602648312E-1,3.316709654E-1
3.804234417E0,-1.594102101E-1,4.450017991E-2,-3.746778846E-2,1.696930059E-1
3.814232417E0,-4.979820496E-2,-7.138302796E-2,-1.819121414E-1,2.016616600E-1
3.824230417E0,8.680872289E-2,-1.656749352E-1,-2.562951565E-1,3.172871661E-1
3.834229417E0,-1.992924418E-1,9.939663615E-3,-3.025361073E-1,3.624146389E-1
3.844227417E0,-6.201086403E-4,-5.417271713E-2,-4.652249426E-1,4.683687810E-1
3.854226417E0,7.668482630E-2,-1.281593823E-1,-6.590484470E-1,6.757590143E-1
3.864224417E0,-8.243924481E-2,1.293061675E-1,-7.404814500E-1,7.561938189E-1
3.874222417E0,-5.678516172E-2,3.590336591E-2,-6.619118285E-1,6.653126145E-1
3.884221417E0,2.104236400E-1,-1.587306905E-1,-6.912677747E-1,7.398139474E-1
3.894219417E0,-4.033255468E-3,5.301162455E-2,-6.914659953E-1,6.935068292E-1
3.904218417E0,9.243911647E-2,-7.593011521E-3,-7.028949630E-1,7.089879922E-1
3.914216417E0,1.735099484E-1,-3.021690483E-1,-5.001088464E-1,6.095249742E-1
3.924214417E0,2.693753322E-2,5.559313372E-3,-5.330766177E-1,5.337857407E-1
3.934213417E0,-7.492123753E-2,-4.145007122E-2,-4.304199761E-1,4.388537981E-1
3.944211417E0,3.665335354E-2,-2.867229704E-2,-4.790927839E-1,4.813475507E-1
3.954209417E0,-9.051811427E-2,-7.027571149E-2,-4.244762814E-1,4.396729672E-1
3.964208417E0,-7.733585894E-2,5.915076245E-2,-5.780843908E-1,5.862262452E-1
3.974206417E0,-7.113783776E-2,6.440967511E-2,-6.300690615E-1,6.373352497E-1
3.984205417E0,-1.302599991E-2,-4.387803616E-2,-6.274214423E-1,6.290887258E-1
3.994203417E0,-5.685226765E-2,-8.199111968E-3,-6.632309604E-1,6.657136866E-1
4.004201417E0,4.967677931E-3,-1.063428177E-1,-7.382296872E-1,7.458663042E-1
4.014200417E0,-6.669711045E-3,-2.430805587E-1,-6.718544340E-1,7.145075392E-1
4.024198417E0,7.618184241E-3,1.136560400E-1,-9.973683447E-1,1.003852254E0
4.034196417E0,1.193657912E-1,1.551474254E-1,-1.290141356E0,1.304907519E0
4.044195417E0,1.114600633E-1,8.931899652E-2,-1.291320739E0,1.299196090E0
4.054193417E0,5.559983974E-2,1.699114988E-2,-1.371403036E0,1.372634812E0
4.064192417E0,1.312782597E-2,-2.343419680E-2,-1.489669989E0,1.489912137E0
4.074190417E0,-2.427471350E-2,-7.155698262E-2,-1.581867716E0,1.583671410E0
4.084188417E0,-6.722193231E-3,-2.624298541E-1,-1.425096847E0,1.449074063E0
4.094187417E0,-1.782410585E-1,1.314937753E-1,-1.685357586E0,1.699850193E0
4.104185417E0,2.788057490E-2,-7.614942234E-2,-1.629637129E0,1.631653527E0
4.114184417E0,-6.777176930E-2,1.120564062E-3,-1.540856515E0,1.542346610E0
4.124182417E0,-9.148092228E-2,8.852629680E-3,-1.482913531E0,1.485758954E0
4.134180417E0,-1.216505679E-2,-4.317459784E-2,-1.454011329E0,1.454703055E0
4.144179417E0,-1.930743299E-2,-7.340517785E-2,-1.451302899E0,1.453286345E0
4.154177417E0,-2.398750101E-2,-1.135894000E-1,-1.465357266E0,1.469948934E0
4.164175417E0,7.411272749E-2,-1.937716470E-1,-1.507099954E0,1.521312071E0
4.174174417E0,4.594269258E-2,-9.472337695E-2,-1.561719380E0,1.565263770E0
4.184172417E0,8.374691064E-2,-1.186136748E-1,-1.508876338E0,1.515846480E0
4.194171417E0,-1.346282004E-2,-1.013678056E-1,-1.376386033E0,1.380179405E0
4.204169417E0,9.631016510E-2,-1.715940351E-1,-1.369467022E0,1.383531744E0
4.214167417E0,-3.902020137E-2,-2.247857904E-2,-1.379027220E0,1.379762275E0
4.224166417E0,4.176304344E-2,-4.897044936E-2,-1.330361429E0,1.331917335E0
4.234164417E0,3.458384805E-2,-1.595631879E-1,-1.178410420E0,1.189667001E0
4.244162417E0,-8.787917448E-2,5.235392243E-2,-1.205208794E0,1.209542029E0
4.254161417E0,1.469541652E-2,-9.292892128E-2,-1.195629301E0,1.199325296E0
4.264159417E0,4.026484518E-2,-1.533599681E-1,-1.210002927E0,1.220347336E0
4.274158417E0,-7.307049785E-2,1.104027588E-1,-1.239513824E0,1.246564313E0
4.284156417E0,2.414469746E-2,-2.468515377E-2,-1.095399254E0,1.095943360E0
4.294154417E0,4.312566396E-2,-2.759063523E-2,-9.896213686E-1,9.909447610E-1
4.304153417E0,-3.164317138E-2,1.050817377E-1,-9.272608137E-1,9.337323377E-1
4.314151417E0,4.621967244E-2,-1.291929508E-2,-8.261373121E-1,8.275300748E-1
4.324150417E0,8.187327316E-3,9.271882351E-2,-8.534636897E-1,8.585243632E-1
4.334148417E0,8.315789502E-2,-1.591029206E-2,-8.714830542E-1,8.755861389E-1
4.344146417E0,1.708052777E-3,-3.152836952E-1,-4.672603583E-1,5.636833938E-1
4.354145417E0,-1.278915433E-1,2.621666746E-1,-9.909884477E-1,1.033027451E0
4.364143417E0,5.502338651E-2,-5.978856577E-2,-9.158376932E-1,9.194351124E-1
4.374141417E0,-5.614634427E-2,1.644404966E-1,-8.541782194E-1,8.716728282E-1
4.384140417E0,-3.709875606E-2,9.189100396E-3,-7.167879474E-1,7.178061847E-1
4.394138417E0,-6.847564615E-2,6.595997298E-2,-5.749046749E-1,5.827134951E-1
4.404137417E0,4.871206638E-2,-2.439089447E-1,-3.169915938E-1,4.029244461E-1
4.414135417E0,5.323672865E-3,-2.748491026E-2,-3.256653535E-1,3.268664625E-1
4.424133417E0,-1.070651042E-1,9.436634962E-2,-2.931805623E-1,3.260717506E-1
4.434132417E0,9.566419395E-2,-1.297553433E-1,-1.259577960E-1,2.045811660E-1
4.444130417E0,-6.547251163E-2,-8.215922713E-3,-9.583586454E-4,6.599295126E-2
4.454128417E0,-4.437249133E-2,6.306850657E-2,-2.624405801E-2,8.145738204E-2
4.464127417E0,6.026590870E-2,-1.356678285E-1,-1.020689964E-2,1.488016137E-1
4.474125417E0,-5.238732465E-2,7.616045896E-2,-1.544933778E-1,1.800362493E-1
4.484124417E0,-6.478505722E-2,3.278776841E-2,-1.899620032E-1,2.033659364E-1
4.494122417E0,3.593087980E-2,-1.346501023E-1,-1.922090882E-1,2.374152728E-1
4.504120417E0,-6.116952735E-4,1.447412454E-2,-3.392344022E-1,3.395435967E-1
4.514119417E0,3.808213439E-2,-3.890181079E-1,3.442372799E-2,3.923905328E-1
4.524117417E0,3.105591907E-2,-1.320209201E-1,-7.618161857E-2,1.555558821E-1
4.534116417E0,9.200644079E-3,8.904646145E-2,-1.444367516E-1,1.699291010E-1
4.544113958E0,9.021575840E-2,-6.979609363E-2,3.623344123E-2,1.196797394E-1
4.554111958E0,1.873042130E-2,1.299548978E-1,-5.988718271E-2,1.443107023E-1
4.564110958E0,-6.632176945E-3,4.915240740E-2,-2.772398829E-2,5.682045804E-2
4.574108958E0,6.606390724E-2,-1.259215615E-1,-2.534358680E-2,1.444402191E-1
4.584106958E0,-3.191214102E-2,1.254660817E-2,-7.743935466E-2,8.469153305E-2
4.594105958E0,-4.985024518E-2,-3.060017886E-2,-1.234031475E-1,1.365641047E-1
4.604103958E0,-1.370183754E-2,-1.495185850E-1,-1.151521415E-1,1.892182953E-1
4.614102958E0,-6.770230163E-2,-1.971173141E-2,-1.582309180E-1,1.732315717E-1
4.624100958E0,-9.962054797E-2,5.371084191E-2,-1.781266540E-1,2.110407851E-1
4.634098958E0,-4.762896562E-2,2.866882525E-2,-1.528228283E-1,1.626199150E-1
4.644097958E0,-4.658269317E-2,6.416922664E-2,-1.240977967E-1,1.472681231E-1
4.654095958E0,-4.987722917E-2,1.210363407E-1,-6.665241122E-2,1.469015919E-1
4.664093958E0,2.196018454E-2,-5.705530308E-3,6.055668890E-2,6.466773038E-2
4.674092958E0,1.737512694E-2,-1.275021918E-2,1.208525920E-1,1.227591631E-1
4.684090958E0,-1.129305307E-2,3.494157203E-2,2.052472097E-1,2.085062675E-1
4.694089958E0,3.434259787E-2,-5.791636040E-2,2.730456752E-1,2.812252826E-1
4.704087958E0,5.279387059E-2,-6.070157195E-2,3.151076210E-1,3.252148311E-1
4.714085958E0,-2.223129435E-2,2.762710724E-2,3.651059926E-1,3.668240359E-1
4.724084958E0,5.369425043E-2,-5.779384296E-2,4.267941177E-1,4.340235244E-1
4.734082958E0,4.780819191E-2,-1.564102778E-2,3.820523930E-1,3.853495763E-1
4.744081958E0,2.289764396E-2,3.013192652E-2,3.473357195E-1,3.493913810E-1
4.754079958E0,-1.215993134E-2,-4.488925729E-3,3.976434088E-1,3.978546153E-1
4.764077958E0,1.808366101E-2,2.378119251E-2,3.840305060E-1,3.851908533E-1
4.774076958E0,1.808637562E-2,1.378883086E-3,4.760843915E-1,4.764298124E-1
4.784074958E0,-7.195309037E-2,1.051720224E-1,4.878852421E-1,5.042523287E-1
4.794072958E0,-2.964096825E-2,-9.241824009E-2,6.709434378E-1,6.779268507E-1
4.804071958E0,-3.494882166E-2,-5.773347046E-2,8.294573611E-1,8.321983463E-1
4.814069958E0,-9.636004915E-2,-2.012611628E-3,9.400866812E-1,9.450144327E-1
4.824068958E0,-7.346069443E-2,-1.102621150E-1,1.079020033E0,1.087123931E0
4.834066958E0,-4.803307217E-2,3.501584994E-2,1.065718203E0,1.067374617E0
4.844064958E0,-1.579154790E-2,1.821349204E-2,1.089231026E0,1.089497743E0
4.854063958E0,-4.356687292E-3,8.719020803E-3,1.115127760E0,1.115170356E0
4.864061958E0,-1.368587418E-2,2.318112200E-2,1.198654650E0,1.198956896E0
4.874059958E0,3.508489276E-2,-6.274720207E-3,1.277835891E0,1.278332854E0
4.884058958E0,4.456194569E-2,1.111684700E-1,1.260303015E0,1.265980997E0
4.894056958E0,1.454212034E-1,-3.595973672E-2,1.394098418E0,1.402123685E0
4.904055958E0,6.649581548E-2,8.249041708E-2,1.469056799E0,1.472872786E0
4.914053958E0,3.185406172E-2,-7.966067534E-2,1.692367228E0,1.694540450E0
4.924051958E0,-6.432744864E-2,-5.970354360E-3,1.779028811E0,1.780201442E0
4.934050958E0,-5.116224617E-2,-9.088034928E-2,1.923640979E0,1.926466047E0
4.944048958E0,-8.760799158E-2,-5.622061305E-3,2.050602742E0,2.052481029E0
4.954047958E0,-6.459255592E-2,-2.835557895E-2,2.192393628E0,2.193528222E0
4.964045958E0,-9.430249619E-2,8.535515076E-2,2.259329630E0,2.262907165E0
4.974043958E0,-9.034151008E-2,6.215305187E-2,2.361581644E0,2.364126149E0
4.984042958E0,-9.430309005E-2,5.230281411E-2,2.474305437E0,2.476654205E0
4.994040958E0,-8.690776010E-2,1.352347873E-1,2.522511637E0,2.527628605E0
5.004038958E0,3.458361736E-2,8.166221380E-3,2.594817136E0,2.595060439E0
5.014037958E0,-4.864093135E-3,9.164953222E-2,2.601854260E0,2.603472467E0
5.024035958E0,3.427134178E-3,7.755885713E-2,2.644354747E0,2.645494122E0
5.034034958E0,1.406186043E-2,4.730856104E-2,2.678919393E0,2.679373985E0
5.044032958E0,-1.276290718E-2,1.084934967E-1,2.665428697E0,2.667666371E0
5.054030958E0,-1.622379418E-2,-9.199698474E-3,2.717219825E0,2.717283832E0
5.064029958E0,1.251263722E-2,-5.855644779E-2,2.715004315E0,2.715664532E0
5.074027958E0,-3.203493483E-2,1.135583915E-1,2.560569409E0,2.563286454E0
5.084025958E0,-1.085094075E-2,7.968302267E-2,2.483948080E0,2.485249523E0
5.094024958E0,-1.781802383E-2,1.114614703E-1,2.396231074E0,2.398888181E0
5.104022958E0,-2.889297690E-2,1.116480878E-1,2.363894218E0,2.366705721E0
5.114021958E0,7.909036396E-3,8.013937958E-3,2.320485658E0,2.320512975E0
5.124019958E0,-2.752956837E-2,-7.480416074E-2,2.261980757E0,2.263384741E0
5.134017958E0,-4.480758356E-2,-1.022124359E-2,2.058288907E0,2.058801937E0
5.144016958E0,-1.022287670E-2,-4.968103224E-2,1.865985678E0,1.866674922E0
5.154014958E0,2.449220479E-2,-4.844568003E-2,1.672928159E0,1.673808674E0
5.164013958E0,-1.240511697E-2,4.874273686E-2,1.427911112E0,1.428796657E0
5.174011958E0,3.181309238E-2,-1.548417622E-2,1.354267185E0,1.354729287E0
5.184009958E0,-1.089686652E-2,5.266952589E-2,1.339428121E0,1.340507558E0
5.194008958E0,-2.767984410E-2,4.489841184E-2,1.258269353E0,1.259374371E0
5.204006958E0,5.057831489E-2,1.135651706E-2,1.246562058E0,1.247639411E0
5.214004958E0,-3.282094679E-2,-5.946653036E-2,1.276617916E0,1.278423555E0
5.224003958E0,-4.413190582E-2,2.559138084E-2,1.039047298E0,1.040298914E0
5.234001958E0,4.899514471E-3,-3.246432602E-2,7.517806095E-1,7.524971910E-1
5.244000958E0,-2.724369891E-2,1.986681053E-2,5.556702590E-1,5.566923262E-1
5.253998958E0,-3.790762698E-2,4.695993908E-2,4.311052698E-1,4.353090600E-1
5.263996958E0,-1.091375521E-3,1.514004931E-2,3.237486362E-1,3.241042913E-1
5.273995958E0,2.636362672E-2,-3.052721657E-3,3.138446224E-1,3.149647709E-1
5.283993958E0,-1.763275160E-2,1.158407242E-1,1.374598539E-1,1.806244688E-1
5.293991958E0,-2.986198615E-2,5.236201717E-2,1.350180566E-1,1.478627562E-1
5.303990958E0,4.266165085E-3,1.150931211E-2,6.490760207E-2,6.605801417E-2
5.313988958E0,-3.025209594E-2,1.116048733E-1,-6.867554784E-2,1.344885419E-1
5.323987958E0,8.782122766E-3,3.192607155E-2,-1.371493667E-1,1.410898597E-1
5.333985958E0,-9.603138082E-5,-9.897293229E-2,-1.365903729E-1,1.686789273E-1
5.343983958E0,-5.788949062E-2,-1.074963820E-1,-2.107026619E-1,2.435205884E-1
5.353982958E0,-4.733882038E-2,-1.076336819E-1,-3.801193035E-1,3.978902591E-1
5.363980958E0,2.530540860E-2,-1.874084511E-1,-6.071392053E-1,6.359090390E-1
5.373979958E0,-6.303841168E-2,4.826719377E-2,-8.491373348E-1,8.528410032E-1
5.383977958E0,5.716343089E-2,4.222797018E-2,-9.345803583E-1,9.372786701E-1
5.393975958E0,1.963864852E-1,-5.837200468E-2,-1.002833152E0,1.023547397E0
5.403974958E0,5.585505700E-2,2.074674523E-1,-1.082787395E0,1.103898126E0
5.413972958E0,4.665063051E-2,-9.114013011E-2,-8.158953291E-1,8.222943468E-1
5.423970958E0,8.080980853E-2,-1.523135175E-1,-7.257546526E-1,7.459553932E-1
5.433969958E0,4.000530646E-2,-1.448038288E-1,-8.804713941E-1,8.931956388E-1
5.443967958E0,8.974905009E-3,-1.031971619E-1,-1.012272313E0,1.017558567E0
5.453966958E0,-1.031193208E-1,-5.515280183E-2,-1.088694836E0,1.094957475E0
5.463964958E0,-8.033675051E-2,1.853888593E-1,-1.375175074E0,1.389938670E0
5.473962958E0,3.186016703E-2,-1.458790587E-1,-1.390146285E0,1.398142505E0
5.483961958E0,-1.289761196E-1,9.610827170E-2,-1.461129729E0,1.469956368E0
5.493959958E0,-1.993217327E-1,1.319789663E-2,-1.366253393E0,1.380779371E0
5.503957958E0,-1.005071160E-2,-2.206845716E-1,-1.227490194E0,1.247210838E0
5.513956958E0,-1.973600192E-2,-1.431793444E-1,-1.246178480E0,1.254532040E0
5.523954958E0,-4.988730191E-2,-1.413757159E-1,-1.270073712E0,1.278891344E0
5.533953958E0,1.187949911E-2,-2.127962392E-1,-1.379121360E0,1.395492418E0
5.543952417E0,5.497549416E-2,1.038941683E-1,-1.794607548E0,1.798452822E0
5.553950417E0,2.081583876E-2,1.069812788E-1,-1.921383369E0,1.924471965E0
5.563949417E0,1.361741791E-1,5.178917276E-2,-1.875607272E0,1.881257070E0
5.573947417E0,1.524891533E-1,-8.359994452E-2,-1.705599477E0,1.714442028E0
5.583946417E0,4.958259345E-2,5.037776453E-2,-1.754902030E0,1.756324995E0
5.593944417E0,2.795838398E-2,-7.552181510E-2,-1.654948556E0,1.656906738E0
5.603942417E0,7.179706107E-2,-1.561824740E-1,-1.573386329E0,1.582748345E0
5.613941417E0,4.044267362E-2,-7.666101716E-2,-1.598247521E0,1.600596033E0
5.623939417E0,3.549637686E-2,-1.283221176E-1,-1.610835407E0,1.616328329E0
5.633937417E0,-8.151638059E-2,2.735654561E-2,-1.673874823E0,1.676081808E0
5.643936417E0,-6.036376733E-2,-2.048624994E-2,-1.617469658E0,1.618725290E0
5.653934417E0,-1.661312167E-2,-7.087791989E-2,-1.576035703E0,1.577716138E0
5.663933417E0,-6.540829732E-2,-2.732096896E-2,-1.569334794E0,1.570934873E0
5.673931417E0,-6.004465554E-2,-3.869367549E-2,-1.545116796E0,1.546767104E0
5.683929417E0,-5.226133999E-2,-8.667899692E-2,-1.571635673E0,1.574891484E0
5.693928417E0,-7.480661041E-3,-1.490350020E-1,-1.653522420E0,1.660242086E0
5.703926417E0,2.912668280E-3,-6.286745371E-2,-1.791975131E0,1.793079940E0
5.713924417E0,-1.365505296E-2,-1.410098081E-2,-1.815608407E0,1.815714511E0
5.723923417E0,1.799809888E-1,-9.381820969E-2,-1.811838707E0,1.823171554E0
5.733921417E0,8.749879483E-2,8.338164238E-2,-1.924533849E0,1.928325458E0
5.743920417E0,9.291877088E-2,1.402776271E-2,-2.048314142E0,2.050468605E0
5.753918417E0,2.215249170E-2,-1.204033066E-3,-2.127784819E0,2.127900472E0
5.763916417E0,-7.920822876E-2,-2.563664194E-2,-2.192282531E0,2.193862776E0
5.773915417E0,6.643969134E-2,-7.964181807E-2,-2.436249418E0,2.438456126E0
5.783913417E0,6.170712858E-2,-1.375080386E-1,-2.596534463E0,2.600905121E0
5.793912417E0,-9.145030662E-2,-2.373430515E-2,-2.924182023E0,2.925707945E0
5.803910417E0,-9.691702385E-2,5.037533429E-2,-3.218020982E0,3.219874162E0
5.813908417E0,-4.234645852E-2,-8.437340325E-2,-3.404690418E0,3.405998963E0
5.823907417E0,-1.502132571E-2,-1.093774130E-1,-3.519366011E0,3.521097297E0
5.833905417E0,-7.415634864E-2,-5.698988736E-2,-3.530906661E0,3.532145079E0
5.843903417E0,-3.801013598E-2,-9.815406628E-2,-3.527618771E0,3.529188743E0
5.853902417E0,6.869004711E-2,-2.161526323E-1,-3.502613153E0,3.509948602E0
5.863900417E0,6.062876041E-2,-1.265801773E-1,-3.477750793E0,3.480581699E0
5.873899417E0,8.345685219E-2,-1.010379679E-1,-3.395851182E0,3.398378873E0
5.883897417E0,8.972397102E-2,-1.232251180E-1,-3.285071588E0,3.288606112E0
5.893895417E0,1.502662703E-1,-1.503427866E-1,-3.188524117E0,3.195601501E0
5.903894417E0,1.268173915E-1,-1.933065740E-1,-2.922535447E0,2.931665656E0
5.913892417E0,4.766806430E-2,-7.904485390E-2,-2.753851461E0,2.755398012E0
5.923890417E0,3.043643855E-2,-1.003700879E-1,-2.557775609E0,2.559925116E0
5.933889417E0,6.606083288E-2,-1.837619081E-1,-2.411385303E0,2.419279139E0
5.943887417E0,-2.479295268E-2,-4.443386883E-2,-2.337896327E0,2.338449977E0
5.953886417E0,-5.480325711E-2,1.986796170E-2,-2.125196257E0,2.125995593E0
5.963884417E0,-1.270330670E-2,-6.333132064E-2,-1.878677645E0,1.879787733E0
5.973882417E0,-5.854082020E-2,1.095572697E-2,-1.791733056E0,1.792722622E0
5.983881417E0,-7.419662590E-2,-6.648234861E-2,-1.719310028E0,1.722193954E0
5.993879417E0,-7.506470902E-2,-3.608139535E-2,-1.624881003E0,1.627014091E0
6.003878417E0,-6.078175189E-2,-6.778203847E-2,-1.417276196E0,1.420197396E0
6.013876417E0,3.179819797E-2,-1.274584291E-1,-1.254868612E0,1.261725806E0
6.023874417E0,-3.507676833E-2,6.423051277E-2,-1.181227024E0,1.183491961E0
6.033873417E0,-8.140865935E-3,8.025520926E-2,-1.086486343E0,1.089476822E0
6.043871417E0,1.224112039E-1,1.052237520E-2,-1.063296871E0,1.070371645E0
6.053869417E0,2.410851781E-2,5.988937542E-2,-9.758950299E-1,9.780281526E-1
6.063868417E0,6.938847417E-3,1.139722464E-1,-7.753296858E-1,7.836925049E-1
6.073866417E0,9.933873958E-2,-9.530353038E-2,-5.365761763E-1,5.539539160E-1
6.083865417E0,4.729387448E-2,-8.452374978E-2,-4.660558319E-1,4.760136692E-1
6.093863417E0,-4.639213332E-2,-1.389342293E-2,-4.551022428E-1,4.576716166E-1
6.103861417E0,2.074152659E-2,-8.314155936E-2,-3.691394019E-1,3.789546515E-1
6.113860417E0,2.154825962E-2,-4.301383596E-2,-2.400679636E-1,2.448410601E-1
6.123858417E0,-1.039877854E-2,8.379297573E-3,-8.929750800E-2,9.029059839E-2
6.133857417E0,-5.153662329E-2,5.387858391E-2,4.708938181E-2,8.818353148E-2
6.143855417E0,-7.528057178E-3,1.046998780E-2,9.066049397E-2,9.157301708E-2
6.153853417E0,-1.523183575E-2,-2.918827727E-2,1.158134615E-1,1.204023348E-1
6.163852417E0,-6.228389245E-2,2.176936660E-2,2.253879440E-1,2.348465752E-1
6.173850417E0,-4.020715417E-2,-6.559413828E-2,4.945422971E-1,5.004910487E-1
6.183848417E0,-1.594897962E-2,-9.056357637E-2,6.918589282E-1,6.979433414E-1
6.193847417E0,-4.815148286E-2,-4.374205185E-2,6.233324844E-1,6.267178938E-1
6.203845417E0,-1.816350976E-2,-6.120136270E-2,4.750184441E-1,4.792891007E-1
6.213844417E0,-1.946179720E-2,4.496475946E-2,3.467293632E-1,3.501740174E-1
6.223842417E0,1.188661741E-2,1.968196543E-2,4.661575735E-1,4.667242813E-1
6.233840417E0,4.735505097E-2,-4.303983780E-2,6.854199743E-1,6.884006607E-1
6.243839417E0,-1.466900698E-2,1.071037780E-1,7.046894735E-1,7.129331337E-1
6.253837417E0,3.984617083E-2,-2.987914408E-2,6.715801996E-1,6.734244167E-1
6.263835417E0,1.206507443E-1,-1.185729636E-1,5.711302972E-1,5.956559125E-1
6.273834417E0,-6.164118752E-3,2.661299905E-2,5.031698638E-1,5.039108651E-1
6.283832417E0,-4.204239417E-4,-3.813084444E-2,5.662028486E-1,5.674855097E-1
6.293831417E0,1.982150147E-2,-4.937631922E-2,5.395746285E-1,5.421915644E-1
6.303829417E0,-5.053216757E-2,4.045779873E-2,4.493205160E-1,4.539595351E-1
6.313827417E0,-6.396493955E-2,5.313483635E-2,3.485718209E-1,3.583533712E-1
6.323826417E0,-2.953683528E-2,-1.477686413E-2,2.427225995E-1,2.449592633E-1
6.333824417E0,-3.521007343E-2,3.267369289E-3,1.356670976E-1,1.401998086E-1
6.343823417E0,-5.999312695E-2,2.411113992E-2,2.006045204E-1,2.107669233E-1
6.353821417E0,1.161094860E-4,-5.634835644E-2,2.966801208E-1,3.019838487E-1
6.363819417E0,3.650687394E-3,1.093317864E-2,3.289912498E-1,3.291931110E-1
6.373818417E0,1.669301954E-2,2.160147842E-2,2.569681710E-1,2.584142443E-1
6.383816417E0,3.455317073E-2,1.182769300E-2,1.169846588E-1,1.225529532E-1
6.393814417E0,3.265655324E-2,3.155819032E-2,1.241434050E-1,1.321890875E-1
6.403813417E0,1.909281277E-2,2.560877630E-2,2.437160414E-1,2.458004349E-1
6.413811417E0,7.487782196E-3,4.901591146E-2,3.127032459E-1,3.166100858E-1
6.423810417E0,2.327520736E-2,-8.107100548E-2,4.179268152E-1,4.263532175E-1
6.433808417E0,-3.969591566E-2,-6.249010731E-3,2.929431653E-1,2.956865130E-1
6.443806417E0,-2.504247118E-2,-7.819437638E-2,1.627402908E-1,1.822796974E-1
6.453805417E0,-1.651036714E-2,-6.269145252E-2,2.377746856E-1,2.464540760E-1
6.463803417E0,-6.016768461E-2,3.733498357E-2,4.024697006E-1,4.086513320E-1
6.473801417E0,-3.744698516E-2,2.802840896E-2,4.233126855E-1,4.258890678E-1
6.483800417E0,-5.150780291E-4,4.057784937E-4,3.796410012E-1,3.796415675E-1
6.493798417E0,-1.225118331E-2,3.444052046E-2,2.967461944E-1,2.989892052E-1
6.503797417E0,-2.553937716E-2,7.266574262E-2,1.636939716E-1,1.809096081E-1
6.513795417E0,6.476941592E-2,-1.269499771E-1,2.718054807E-1,3.069032311E-1
6.523793417E0,1.025095247E-2,4.745030120E-2,3.321586865E-1,3.356873637E-1
6.533792417E0,3.388890876E-3,6.845682543E-2,3.411557972E-1,3.479728431E-1
6.543790542E0,8.588313606E-2,-4.785165774E-2,4.863538563E-1,4.961912613E-1
6.553789542E0,1.215619917E-2,6.876287235E-2,5.086451966E-1,5.134160513E-1
6.563787542E0,-2.783835389E-3,1.098143645E-3,4.402257568E-1,4.402359283E-1
6.573785542E0,8.962262690E-4,-4.121411780E-2,2.993645775E-1,3.021896044E-1
6.583784542E0,-3.594674494E-2,-2.689260559E-2,2.144858104E-1,2.191336204E-1
6.593782542E0,-4.689708608E-2,-1.807820208E-2,2.770592040E-1,2.815811794E-1
6.603780542E0,-1.287450449E-2,-1.150570694E-1,3.285667419E-1,3.483676018E-1
6.613779542E0,-5.731329320E-2,1.476204509E-2,2.290383607E-1,2.365614132E-1
6.623777542E0,-1.466107555E-2,-3.850305626E-2,1.384889638E-1,1.444874582E-1
6.633776542E0,-2.332722017E-2,9.518554453E-3,1.226196206E-1,1.251812024E-1
6.643774542E0,1.065856051E-3,-2.978332283E-2,1.586817384E-1,1.614561131E-1
6.653772542E0,1.554208079E-2,-5.412952082E-2,2.573084790E-1,2.633993444E-1
6.663771542E0,-4.396245077E-2,-2.061904935E-1,4.886430413E-1,5.321834631E-1
6.673769542E0,7.303882238E-2,3.052057450E-1,7.081212044E-2,3.217134948E-1
6.683768542E0,6.726277831E-2,-6.046137929E-2,4.212111962E-1,4.308117124E-1
6.693766542E0,-2.015291297E-2,3.797664240E-2,4.517389244E-1,4.537801462E-1
6.703764542E0,-7.811788749E-4,-4.746537605E-2,4.282950979E-1,4.309179308E-1
6.713763542E0,-8.183348240E-2,-4.608866009E-1,1.435263401E0,1.509666920E0
6.723761542E0,7.832087724E-2,2.290734257E-1,2.804757321E-1,3.705069911E-1
6.733759542E0,-3.064401653E-1,8.876544792E-1,1.875506115E-1,9.576070599E-1
6.743758542E0,5.177707998E-1,-3.087664618E-1,6.802019191E-1,9.088993232E-1
6.753756542E0,-2.090442271E-1,-1.718523724E-1,9.811300421E-1,1.017766617E0
6.763755542E0,-7.952363122E-2,2.926525952E-1,4.037560880E-1,5.049638878E-1
6.773753542E0,1.498410864E-1,-1.877587176E-1,5.477086902E-1,5.980723171E-1
6.783751542E0,-6.717891188E-2,-1.069959882E-1,6.940580660E-1,7.054627890E-1
6.793750542E0,-1.435895266E-2,-2.642402617E-1,8.457085276E-1,8.861444629E-1
6.803748542E0,1.150531225E-1,8.110543096E-2,4.107552052E-1,4.342063455E-1
6.813746542E0,-1.834390322E-1,6.928517489E-2,5.592534328E-1,5.926337115E-1
6.823745542E0,1.474078406E-1,-2.051915332E-1,6.703581315E-1,7.163886245E-1
6.833743542E0,2.164805515E-2,-2.065707269E-1,6.226816893E-1,6.564088586E-1
6.843742542E0,-1.693963042E-1,4.248818954E-1,2.056828272E-1,5.015228393E-1
6.853740542E0,7.292857496E-2,3.296292907E-2,4.787150538E-1,4.853588718E-1
6.863738542E0,9.165482213E-2,-2.362744728E-2,4.899066246E-1,4.989662949E-1
6.873737542E0,-9.388249252E-2,1.682351569E-1,3.538080025E-1,4.028611337E-1
6.883735542E0,8.974715889E-2,-6.125974350E-2,2.760868120E-1,2.967005839E-1
6.893734542E0,-1.146723226E-1,8.961972613E-2,2.797880995E-1,3.153772622E-1
6.903732542E0,-6.552924332E-3,-1.615897049E-1,5.198689270E-1,5.444427195E-1
6.913730542E0,5.597823225E-2,7.900575064E-3,3.827499658E-1,3.869024656E-1
6.923729542E0,2.847024148E-2,-7.928787880E-3,4.194342273E-1,4.204741269E-1
6.933727542E0,-2.446792515E-3,-1.120479460E-1,5.526706374E-1,5.639198191E-1
6.943725542E0,-5.658622391E-3,-4.082275635E-2,5.937227690E-1,5.951514462E-1
6.953724542E0,1.298959300E-2,-3.972214591E-3,5.983835846E-1,5.985377368E-1
6.963722542E0,-1.016417934E-1,4.746154978E-1,5.016536808E-1,6.980310454E-1
6.973721542E0,8.265276868E-2,-1.179809513E-1,7.304838806E-1,7.445520028E-1
6.983719542E0,-1.228252324E-1,3.908789112E-1,5.138135505E-1,6.571732843E-1
6.993717542E0,-6.158408581E-3,-1.528540013E-1,6.986294192E-1,7.151820307E-1
7.003716542E0,-3.833388900E-2,1.128152652E-2,5.929082519E-1,5.942532752E-1
7.013714542E0,-4.500395408E-2,-1.019423128E-1,7.226784325E-1,7.312193295E-1
7.023713542E0,5.950846586E-2,-3.205953790E-1,8.438087672E-1,9.046191962E-1
7.033711542E0,-2.305289667E-2,3.498169854E-3,6.902866119E-1,6.906803022E-1
7.043709542E0,1.247645620E-1,-1.995590566E-1,6.617814356E-1,7.023849952E-1
7.053708542E0,7.140047824E-2,-8.755602445E-3,5.118728596E-1,5.169028083E-1
7.063706542E0,8.012272872E-4,1.423444717E-1,4.189758056E-1,4.424966851E-1
7.073704542E0,5.681634382E-2,1.141261378E-2,3.685698831E-1,3.730979810E-1
7.083703542E0,-2.049892196E-2,1.386244548E-1,3.419375700E-1,3.695378831E-1
7.093701542E0,-2.799321375E-2,7.234842153E-2,4.359309769E-1,4.427795509E-1
7.103700542E0,-3.698915046E-2,5.765393006E-2,4.287184364E-1,4.341562744E-1
7.113698542E0,-9.789728215E-3,1.240877833E-2,4.503975731E-1,4.506748167E-1
7.123696542E0,-6.347647320E-2,-5.597685724E-2,5.376421237E-1,5.442625510E-1
7.133695542E0,-1.035474649E-1,-1.319804646E-1,6.314788252E-1,6.533807674E-1
7.143693542E0,-5.050255234E-2,-9.650599200E-2,7.150022078E-1,7.232510431E-1
7.153691542E0,-9.217547899E-3,-4.953159934E-2,7.386536103E-1,7.403698391E-1
7.163690542E0,2.787921360E-2,5.338507891E-4,7.748829585E-1,7.753845078E-1
7.173688542E0,-1.152137885E-2,6.721151467E-2,8.555640095E-1,8.582772887E-1
7.183687542E0,8.723239934E-2,-3.260699809E-2,1.043877683E0,1.048023532E0
7.193685542E0,2.950674953E-2,1.657649823E-1,1.097160435E0,1.110004369E0
7.203683542E0,1.989555097E-2,1.182106190E-1,1.293689446E0,1.299231299E0
7.213682542E0,1.219691178E-1,4.013446597E-2,1.481372790E0,1.486927229E0
7.223680542E0,-2.739619247E-2,8.299567133E-2,1.659775432E0,1.662075004E0
7.233679542E0,1.580813310E-3,-1.492187507E-2,1.809151327E0,1.809213554E0
7.243677542E0,-1.891131040E-2,-3.312701656E-2,1.964683170E0,1.965053434E0
7.253675542E0,1.411499814E-2,-7.897894481E-2,2.120676944E0,2.122194055E0
7.263674542E0,-5.530746982E-2,7.575036814E-2,2.248073155E0,2.250028876E0
7.273672542E0,-6.779477444E-2,1.410045091E-1,2.406143274E0,2.411224556E0
7.283670542E0,-9.328125942E-3,3.396424647E-2,2.564798700E0,2.565040537E0
7.293669542E0,-1.398840364E-1,2.632906374E-1,2.578380613E0,2.595560843E0
7.303667542E0,1.640760689E-4,-5.414814055E-3,2.838953007E0,2.838958176E0
7.313666542E0,-3.907809338E-2,9.136482764E-2,3.057614315E0,3.059228649E0
7.323664542E0,-1.817550226E-2,3.476401767E-2,3.294406083E0,3.294639635E0
7.333662542E0,3.241819241E-2,7.655686364E-3,3.458604670E0,3.458765070E0
7.343661542E0,1.458286447E-4,1.729263962E-1,3.607086525E0,3.611229259E0
7.353659542E0,2.045139734E-2,6.642318210E-2,3.839695196E0,3.840324139E0
7.363658542E0,-6.157122650E-2,1.698973193E-1,3.830258959E0,3.834519502E0
7.373656542E0,-3.259385327E-2,1.889723254E-2,3.861400645E0,3.861584442E0
7.383654542E0,-9.112579529E-3,-3.827786537E-2,3.814728754E0,3.814931677E0
7.393653542E0,-8.250777600E-3,3.287739526E-2,3.683775682E0,3.683931632E0
7.403651542E0,3.436742113E-3,3.991183324E-2,3.582741643E0,3.582965593E0
7.413649542E0,1.608767283E-2,-7.740874814E-2,3.617462409E0,3.618326299E0
7.423648542E0,-1.624847857E-1,1.615504372E-1,3.612066014E0,3.619326006E0
7.433646542E0,-1.260908110E-1,-8.568941049E-2,3.906552844E0,3.909526402E0
7.443645542E0,1.482703598E-2,1.227538324E-1,3.537175460E0,3.539335896E0
7.453643542E0,3.801041921E-2,2.607772300E-1,3.177316175E0,3.188226408E0
7.463641542E0,4.406773719E-2,-1.088293279E-1,3.287198220E0,3.289294442E0
7.473640542E0,-4.408207658E-2,-2.310721320E-1,3.432840083E0,3.440890669E0
7.483638542E0,-9.098233751E-2,4.080498081E-1,2.623991234E0,2.657087207E0
7.493636542E0,1.151075199E-1,1.122338327E-1,2.578019255E0,2.583027188E0
7.503635542E0,-7.298142831E-2,-2.496156262E-2,2.703015184E0,2.704115466E0
7.513633542E0,-8.430665363E-2,6.414591087E-2,2.433131098E0,2.435436152E0
7.523632542E0,1.253069461E-1,-7.664879283E-2,2.155780703E0,2.160779329E0
7.533630542E0,-1.471128943E-1,2.067779742E-1,1.840545028E0,1.857957301E0
7.543627833E0,8.231115424E-2,2.788809406E-2,1.575450981E0,1.577846211E0
7.553626833E0,-1.101676002E-1,4.072680719E-2,1.471273479E0,1.475954343E0
7.563624833E0,-2.911746430E-2,8.594950195E-2,1.098090143E0,1.101833520E0
7.573623833E0,-3.113571300E-2,-9.386334289E-3,8.802872068E-1,8.808876786E-1
7.583621833E0,5.643094151E-3,-6.102925356E-2,8.124665219E-1,8.147749772E-1
7.593619833E0,-9.706872256E-2,1.321330587E-1,5.662104499E-1,5.894707420E-1
7.603618833E0,1.167336671E-1,-1.488740939E-1,2.630802655E-1,3.240393047E-1
7.613616833E0,-3.003919333E-2,1.169364741E-1,-6.790313065E-2,1.385183283E-1
7.623614833E0,1.617025904E-2,4.632555272E-2,-2.448609263E-1,2.497286674E-1
7.633613833E0,8.920793597E-2,-1.641479166E-1,-2.905463916E-1,3.454269822E-1
7.643611833E0,1.948128944E-2,5.370448306E-2,-6.269279373E-1,6.295254806E-1
7.653610833E0,2.410368244E-2,-1.468570238E-2,-7.767885661E-1,7.773011860E-1
7.663608833E0,1.021181039E-1,-1.159916737E-1,-9.481932610E-1,9.607042395E-1
7.673606833E0,3.346322004E-2,-5.161101541E-2,-1.160000462E0,1.161630129E0
7.683605833E0,1.688318881E-2,-6.670034012E-2,-1.370152901E0,1.371879349E0
7.693603833E0,4.572982652E-2,-4.824800760E-2,-1.447975248E0,1.449500399E0
7.703602833E0,2.791421352E-3,-6.104865901E-2,-1.575048693E0,1.576233839E0
7.713600833E0,4.135416775E-2,-4.768291075E-2,-1.748513947E0,1.749652779E0
7.723598833E0,-6.270704243E-3,-7.308791159E-2,-1.796237751E0,1.797735026E0
7.733597833E0,-1.227609222E-2,5.401442204E-2,-1.944714929E0,1.945503640E0
7.743595833E0,1.348751881E-2,-7.733235061E-3,-2.023150649E0,2.023210386E0
7.753593833E0,3.453709317E-2,1.110039074E-3,-2.034990091E0,2.035283448E0
7.763592833E0,-2.095181393E-2,7.214344008E-2,-2.140097301E0,2.141415446E0
7.773590833E0,-1.208071756E-2,-3.140897669E-2,-2.289514126E0,2.289761429E0
7.783589833E0,1.217382761E-2,-4.916558191E-2,-2.277410975E0,2.277974145E0
7.793587833E0,3.282031867E-3,-6.231458120E-2,-2.199740070E0,2.200624969E0
7.803585833E0,9.656198138E-3,-2.734941931E-2,-2.253344420E0,2.253531075E0
7.813584833E0,-3.406720315E-2,-1.317247951E-2,-2.232095638E0,2.232394460E0
7.823582833E0,4.260939136E-2,-7.214570588E-2,-2.256050511E0,2.257605916E0
7.833581833E0,1.425191778E-2,-1.215793278E-2,-2.270874372E0,2.270951639E0
7.843579833E0,-2.978146360E-2,-2.577253489E-2,-2.329405001E0,2.329737929E0
7.853577833E0,2.774902397E-2,-5.585850595E-2,-2.375806750E0,2.376625316E0
7.863576833E0,-2.755496722E-2,1.727121323E-2,-2.430146095E0,2.430363679E0
7.873574833E0,2.266275035E-2,-8.807706619E-2,-2.457994629E0,2.459676557E0
7.883572833E0,9.309703787E-3,4.249321450E-2,-2.569094065E0,2.569462329E0
7.893571833E0,1.088918200E-1,-1.437769481E-1,-2.481118028E0,2.487664750E0
7.903569833E0,9.788259102E-2,-1.257957002E-1,-2.390309599E0,2.395617987E0
7.913568833E0,6.343021624E-2,-6.758504212E-2,-2.446183838E0,2.447939235E0
7.923566833E0,5.220660914E-2,-2.693632997E-1,-2.304134504E0,2.320413310E0
7.933564833E0,2.128677031E-2,-6.828182923E-2,-2.302470971E0,2.303581583E0
7.943563833E0,5.777523237E-2,-7.300201233E-2,-2.282827250E0,2.284724825E0
7.953561833E0,7.314405399E-2,-7.103013022E-2,-2.347306836E0,2.349520103E0
7.963560833E0,1.424612652E-2,1.259846201E-1,-2.418845766E0,2.422166368E0
7.973558833E0,2.251804546E-2,1.570048666E-2,-2.291906222E0,2.292070614E0
7.983556833E0,4.357716951E-2,-1.026177576E-1,-2.142207561E0,2.145106666E0
7.993555833E0,-6.067619137E-2,-3.308911929E-2,-2.069136661E0,2.070290562E0
8.003553833E0,-2.453174202E-3,-1.889850979E-1,-1.961008780E0,1.970095637E0
8.013551833E0,1.045068971E-2,-1.766012799E-1,-1.960345121E0,1.968311516E0
8.023550833E0,-1.299983499E-1,1.471193080E-1,-2.106405644E0,2.115535015E0
8.033548833E0,6.444971027E-2,-1.558292108E-2,-2.167017882E0,2.168032078E0
8.043547833E0,9.240908782E-3,3.739042249E-2,-2.220618723E0,2.220952713E0
8.053545833E0,-1.144073889E-1,1.973169052E-1,-2.395642844E0,2.406476189E0
8.063543833E0,1.754408177E-2,-1.109114848E-1,-2.370672310E0,2.373330224E0
8.073542833E0,6.008128286E-2,-1.663159362E-1,-2.369784118E0,2.376372765E0
8.083540833E0,-5.013904739E-2,4.592761315E-2,-2.417544760E0,2.418500762E0
8.093539833E0,9.265338038E-2,-1.858130565E-1,-2.284153984E0,2.293571573E0
8.103537833E0,1.302151628E-1,-1.518847156E-1,-2.318851946E0,2.327466284E0
8.113535833E0,-2.697025250E-2,8.513131203E-2,-2.431095682E0,2.432735282E0
8.123534833E0,8.290737838E-2,-8.736012446E-2,-2.504115711E0,2.507010355E0
8.133532833E0,8.635437596E-2,-1.026388807E-1,-2.658419055E0,2.661800836E0
8.143530833E0,-6.215739845E-3,2.743411258E-2,-2.844174571E0,2.844313671E0
8.153529833E0,4.154950644E-3,-8.720332772E-2,-2.857350102E0,2.858683489E0
8.163527833E0,1.023142049E-1,-1.203224688E-1,-2.975467951E0,2.979656897E0
8.173526833E0,-1.055684180E-2,-1.441496716E-1,-2.892099520E0,2.895708930E0
8.183524833E0,-5.985071070E-2,-6.145103881E-2,-2.908874012E0,2.910138546E0
8.193522833E0,8.292681123E-2,-1.654485018E-1,-2.796303416E0,2.802420893E0
8.203521833E0,6.482360316E-2,-1.614166639E-1,-2.735368413E0,2.740893612E0
8.213519833E0,-1.117531733E-1,7.496444754E-2,-2.813353897E0,2.816570360E0
8.223518833E0,1.099248220E-2,-4.740368793E-2,-2.862752929E0,2.863166478E0
8.233516833E0,1.520629187E-2,-3.853017272E-2,-2.825791510E0,2.826095091E0
8.243514833E0,-3.296376047E-2,6.182427390E-2,-2.708012214E0,2.708918419E0
8.253513833E0,-5.908239114E-3,-2.295107061E-2,-2.442338709E0,2.442453690E0
8.263511833E0,3.680967292E-2,-1.167787638E-1,-2.248201209E0,2.251533013E0
8.273509833E0,2.212772554E-2,-6.157202136E-2,-2.099410036E0,2.100429301E0
8.283508833E0,-1.793364338E-2,-3.848328536E-2,-1.830112426E0,1.830604837E0
8.293506833E0,7.362441190E-2,-1.032199295E-1,-1.657198564E0,1.662041513E0
8.303505833E0,5.756390121E-2,-5.973875480E-2,-1.639661595E0,1.641758956E0
8.313503833E0,1.481896636E-2,3.337521259E-2,-1.637399892E0,1.637807044E0
8.323501833E0,2.464514831E-2,1.601011500E-2,-1.453725985E0,1.454023021E0
8.333500833E0,2.249671455E-2,6.658964502E-2,-1.400753134E0,1.402515464E0
8.343498833E0,2.148544317E-2,5.742111951E-3,-1.349133330E0,1.349316619E0
8.353497833E0,1.583470766E-2,-2.809817355E-2,-1.241534037E0,1.241952902E0
8.363495833E0,-1.415544900E-2,3.463945370E-2,-1.177498839E0,1.178093284E0
8.373493833E0,2.437883048E-2,-9.757919362E-2,-9.794793731E-1,9.846298130E-1
8.383492833E0,1.766169418E-2,-8.892266493E-2,-9.752956903E-1,9.795003110E-1
8.393490833E0,-2.574694418E-2,-2.265777793E-2,-8.387801617E-1,8.394810538E-1
8.403488833E0,-6.160722342E-3,-6.211963138E-2,-4.422453851E-1,4.466293583E-1
8.413487833E0,6.580474768E-3,-7.945086993E-4,-2.894096929E-1,2.894855855E-1
8.423485833E0,-2.214265879E-2,6.651878407E-2,-3.670958000E-1,3.737303472E-1
8.433484833E0,-5.992388770E-3,-5.931488648E-3,-2.974987310E-1,2.976181887E-1
8.443482833E0,-5.845124816E-2,1.450098518E-1,3.793673515E-3,1.563930865E-1
8.453480833E0,5.364090373E-2,-5.575941391E-2,4.529761952E-1,4.595366060E-1
8.463479833E0,4.254478876E-2,-8.115308577E-2,6.123631078E-1,6.191804730E-1
8.473477833E0,-4.256869840E-2,7.765076805E-2,4.491813523E-1,4.578270668E-1
8.483476833E0,8.222011127E-2,-2.159057519E-1,3.685026401E-1,4.349363588E-1
8.493474833E0,5.303181572E-2,-7.185257765E-2,3.029635388E-1,3.158513451E-1
8.503472833E0,-1.166749528E-2,-4.014277998E-3,4.621235794E-1,4.622882732E-1
8.513471833E0,3.410217681E-2,-5.663801288E-2,6.615598261E-1,6.648550417E-1
8.523469833E0,3.279223605E-2,5.797587410E-2,5.803244591E-1,5.841344114E-1
8.533467833E0,-4.254499890E-2,1.575751711E-1,4.074562061E-1,4.389311693E-1
8.543466917E0,-1.235506846E-2,7.716819003E-2,3.350092041E-1,3.440039885E-1
8.553464917E0,3.961866618E-3,5.574234735E-2,2.914386767E-1,2.967480547E-1
8.563463917E0,-3.983848723E-2,1.433243919E-1,3.021911216E-1,3.368211103E-1
8.573461917E0,1.061162632E-2,-7.558268096E-2,4.422880697E-1,4.488252276E-1
8.583459917E0,-3.499469489E-3,-7.156896941E-2,4.436370224E-1,4.493864387E-1
8.593458917E0,-2.799316578E-2,8.607357256E-3,3.295818186E-1,3.308804604E-1
8.603456917E0,3.084706612E-2,-7.315873599E-2,3.469568199E-1,3.559252408E-1
8.613455917E0,-1.602667107E-2,1.621792870E-2,3.315517455E-1,3.323348242E-1
8.623453917E0,-3.297903403E-2,8.796185777E-3,3.453353870E-1,3.470180385E-1
8.633451917E0,-1.781297946E-2,1.107873777E-2,4.112089491E-1,4.117436587E-1
8.643450917E0,-4.013123402E-3,7.972769905E-3,4.213924599E-1,4.214869814E-1
8.653448917E0,-4.175533243E-2,7.403335154E-2,5.230252540E-1,5.298866494E-1
8.663446917E0,-3.914185544E-4,-2.688239124E-3,6.846832252E-1,6.846886144E-1
8.673445917E0,-3.457411792E-3,6.528032552E-3,7.080258948E-1,7.080644297E-1
8.683443917E0,-6.369441674E-3,5.734746287E-2,7.445446801E-1,7.467771301E-1
8.693442917E0,6.662080885E-2,-7.546526156E-2,7.119178015E-1,7.189995090E-1
8.703440917E0,2.265294941E-2,-4.938814156E-3,5.266136903E-1,5.271238249E-1
8.713438917E0,4.570629147E-2,-1.550465975E-2,4.297802907E-1,4.324818584E-1
8.723437917E0,4.457730833E-2,3.076788431E-2,5.162980324E-1,5.191314452E-1
8.733435917E0,4.665035185E-2,7.311557623E-2,5.992039490E-1,6.054481937E-1
8.743434917E0,1.753384458E-2,3.638029771E-2,7.476600766E-1,7.487499929E-1
8.753432917E0,-1.049834451E-2,2.887504924E-2,7.943296283E-1,7.949236078E-1
8.763430917E0,-3.523822686E-2,8.369194681E-2,6.952041203E-1,7.011097228E-1
8.773429917E0,-3.131142412E-2,-2.694680197E-2,7.152343422E-1,7.164263393E-1
8.783427917E0,-4.512116334E-2,-4.733438015E-2,6.875314039E-1,6.906344143E-1
8.793425917E0,-7.136214243E-2,-1.535011053E-2,7.635756129E-1,7.670566458E-1
8.803424917E0,-5.234034592E-2,1.114532294E-2,8.284036928E-1,8.301303562E-1
8.813422917E0,-9.153206258E-3,-7.119898684E-2,8.263255924E-1,8.294377985E-1
8.823421917E0,-5.446872328E-2,9.213930963E-2,6.989551091E-1,7.071030609E-1
8.833419917E0,3.037690201E-2,-4.081256026E-2,6.705323786E-1,6.724597326E-1
8.843417917E0,1.565011152E-2,9.246695470E-2,6.006341779E-1,6.079115720E-1
8.853416917E0,2.276215530E-2,4.446524279E-2,7.157518208E-1,7.174928170E-1
8.863414917E0,7.690384107E-2,2.104977535E-2,8.307004791E-1,8.345181723E-1
8.873412917E0,-1.010835944E-1,-7.055202167E-1,1.771516308E0,1.909514781E0
8.883411917E0,-1.972845628E-1,1.148012281E0,6.114322311E-1,1.315561770E0
8.893409917E0,4.560225946E-1,-4.779409190E-1,6.039466256E-1,8.950618165E-1
8.903408917E0,-2.081258488E-1,4.747077376E-1,2.433839196E-1,5.726251282E-1
8.913406917E0,2.002446837E-2,-7.210685844E-2,6.417529678E-1,6.461015788E-1
8.923404917E0,1.851864908E-1,-3.288294281E-1,8.030308700E-1,8.872887959E-1
8.933403917E0,-2.383369320E-1,1.495365469E-1,1.038651441E0,1.076086655E0
8.943401917E0,-6.708842622E-2,-1.704153278E-1,1.189254667E0,1.203274243E0
8.953400917E0,-1.546719737E-1,3.931349131E-1,6.048511899E-1,7.377827873E-1
8.963398917E0,1.219989203E-1,-1.627420815E-1,7.199261481E-1,7.481058617E-1
8.973396917E0,-1.446364523E-2,1.301747896E-1,7.078604186E-1,7.198757150E-1
8.983395917E0,1.445662674E-1,-2.292833956E-1,7.971614349E-1,8.419837495E-1
8.993393917E0,9.079057625E-2,8.766977107E-2,4.120936328E-1,4.309873313E-1
9.003391917E0,-4.076029621E-2,-8.226959333E-2,5.228170931E-1,5.308176717E-1
9.013390917E0,-2.427869920E-1,-1.121195013E-1,6.946585751E-1,7.443566631E-1
9.023388917E0,8.246891029E-2,-2.245193218E-1,6.339258850E-1,6.775485773E-1
9.033387917E0,5.526415475E-2,-1.284168060E-1,6.308484954E-1,6.461538725E-1
9.043385917E0,-1.654409735E-1,6.329764433E-2,6.306251317E-1,6.550308117E-1
9.053383917E0,-2.882898415E-1,1.278724667E-1,6.705277008E-1,7.409924412E-1
9.063382917E0,6.642822532E-2,-1.151192691E-1,5.824622011E-1,5.974339888E-1
9.073380917E0,5.926932388E-2,2.120029547E-1,2.966198945E-1,3.693798416E-1
9.083379917E0,4.127927771E-2,2.454027256E-1,2.237220722E-1,3.346312031E-1
9.093377917E0,3.692219938E-1,-1.412437150E-1,2.635030192E-1,4.750878960E-1
9.103375917E0,-7.515396128E-2,2.061472058E-1,1.317208117E-1,2.559202231E-1
9.113374917E0,4.179047967E-2,1.324309195E-1,9.168726504E-2,1.664059711E-1
9.123372917E0,-1.111019625E-2,5.065801062E-2,2.444451892E-1,2.498862162E-1
9.133370917E0,1.059003023E-1,4.623172319E-2,1.885428840E-1,2.211349483E-1
9.143369917E0,7.779262698E-2,-1.727888953E-1,3.301045597E-1,3.806267403E-1
9.153367917E0,-8.598351630E-2,1.677286966E-1,1.392005700E-1,2.343136347E-1
9.163366917E0,-4.812526632E-2,-5.471035033E-2,2.123691183E-1,2.245215048E-1
9.173364917E0,-2.146106302E-2,-1.143090095E-1,1.916986263E-1,2.242219664E-1
9.183362917E0,-3.204980412E-2,1.082000579E-1,-3.796012402E-3,1.129108151E-1
9.193361917E0,6.842195912E-3,-1.650159723E-1,2.460520041E-1,2.963421595E-1
9.203359917E0,-1.710278601E-1,-1.292432003E-2,3.590938854E-1,3.979522403E-1
9.213358917E0,-1.140899673E-1,1.568011276E-2,3.006106192E-1,3.219147883E-1
9.223356917E0,-2.531582852E-2,-1.193666683E-1,2.961813533E-1,3.203321506E-1
9.233354917E0,-1.843945723E-4,1.012397151E-1,1.146516198E-1,1.529526326E-1
9.243353917E0,1.177751220E0,-1.212336660E-1,-2.901832795E-1,1.219016765E0
9.253351917E0,-5.062430507E-1,-2.702009499E-1,6.009826720E-1,8.309456972E-1
9.263349917E0,-4.827442970E-1,7.417608938E-1,-2.726673603E-2,8.854347829E-1
9.273348917E0,8.891340075E-2,-5.138275472E-2,2.536317497E-1,2.736326823E-1
9.283346917E0,2.808923097E-1,-1.922619507E-1,3.797175997E-1,5.099515691E-1
9.293345917E0,-3.543582986E-1,-2.926366981E-2,6.775045985E-1,7.651396259E-1
9.303343917E0,-1.708679205E-1,3.507076991E-1,3.335842377E-1,5.132934639E-1
9.313341917E0,2.566612698E-2,-4.158050068E-1,7.008800125E-1,8.153436979E-1
9.323340917E0,2.149311855E-1,-2.215511838E-1,5.293308914E-1,6.127573207E-1
9.333338917E0,5.440475566E-2,4.112708565E-2,3.033219731E-1,3.108947313E-1
9.343337917E0,1.498161717E-2,9.198673384E-2,2.931805623E-1,3.076375305E-1
9.353335917E0,-7.121627153E-3,1.258282436E-2,4.836243761E-1,4.838404511E-1
9.363333917E0,3.371393083E-1,-1.674847764E-1,4.133379203E-1,5.590727143E-1
9.373332917E0,-8.412502449E-2,2.365920497E-2,4.307807493E-1,4.395552658E-1
9.383330917E0,-2.235121024E-2,1.745878095E-1,3.400038958E-1,3.828617622E-1
9.393328917E0,-2.839347165E-2,-1.794822762E-1,5.936660510E-1,6.208538128E-1
9.403327917E0,-2.627719345E-1,1.628561204E-1,4.420845866E-1,5.394534153E-1
9.413325917E0,-2.302742611E-1,1.855979704E-1,4.423798710E-1,5.321398239E-1
9.423324917E0,5.563065640E-2,-2.022570167E-3,6.577082652E-1,6.600598631E-1
9.433322917E0,-9.199775219E-2,2.212237763E-1,9.062348109E-1,9.373713662E-1
9.443320917E0,1.145695212E-1,-1.760065450E-1,1.329620002E0,1.346103201E0
9.453319917E0,-2.640927292E-1,2.991638901E-1,1.361556909E0,1.418830934E0
9.463317917E0,5.679427515E-2,-3.038408769E-2,1.624633082E0,1.625909417E0
9.473316917E0,1.114812229E-1,-1.484164853E-1,1.916922528E0,1.925888755E0
9.483314917E0,2.249393164E-1,1.161573600E-1,1.898471054E0,1.915276109E0
9.493312917E0,2.800935252E-1,-6.561602879E-2,2.186902508E0,2.205742602E0
9.503311917E0,1.664325882E-1,5.945906603E-2,2.286734360E0,2.293553841E0
9.513309917E0,3.588306282E-2,-7.781608894E-2,2.564879977E0,2.566311016E0
9.523307917E0,-3.943300109E-2,2.526545338E-4,2.686318460E0,2.686607878E0
9.533306917E0,-4.730526284E-2,4.718074456E-2,2.959548907E0,2.960302948E0
9.543305583E0,2.377910030E-1,-2.398328690E-2,3.187300295E0,3.196248259E0
9.553304583E0,-1.422419353E-1,-5.904136470E-2,3.661310095E0,3.664547757E0
9.563302583E0,-1.630586168E-1,5.397302010E-1,3.344461173E0,3.391654071E0
9.573300583E0,-5.438586641E-3,9.196500778E-3,3.683231306E0,3.683246802E0
9.583299583E0,-2.768834586E-1,3.514952460E-1,3.719733719E0,3.746549386E0
9.593297583E0,-2.396441866E-1,3.465074614E-1,3.733765867E0,3.757459821E0
9.603296583E0,-4.147482139E-2,-1.509487043E-1,3.963954960E0,3.967044819E0
9.613294583E0,-2.193195209E-1,1.530910328E-1,3.894631541E0,3.903804907E0
9.623292583E0,-1.556012607E-1,-8.551319003E-2,3.967101347E0,3.971072570E0
9.633291583E0,-1.839634086E-2,-1.205598658E-1,3.870449211E0,3.872370101E0
9.643289583E0,7.515661994E-2,1.313006893E-1,3.546119362E0,3.549345139E0
9.653287583E0,-1.077443679E-1,2.600315273E-1,3.322189713E0,3.334092040E0
9.663286583E0,5.182352880E-1,4.704209246E-2,2.938645111E0,2.984361885E0
9.673284583E0,9.634066198E-2,-2.152615349E-1,3.322490845E0,3.330850412E0
9.683283583E0,3.574738686E-3,9.510540113E-2,3.343367159E0,3.344721479E0
9.693281583E0,2.522067650E-2,3.207474797E-1,2.839669876E0,2.857838350E0
9.703279583E0,2.382573733E-1,-6.536236927E-3,2.701629978E0,2.712123493E0
9.713278583E0,-1.298319601E-1,-1.982682654E-1,2.879625070E0,2.889361034E0
9.723276583E0,-1.486170814E-1,3.883558376E-1,2.277606272E0,2.315253252E0
9.733275583E0,2.088226861E-3,-4.884268405E-1,2.558559721E0,2.604763518E0
9.743273583E0,-1.025185582E-2,3.804152457E-1,1.807383714E0,1.847012926E0
9.753271583E0,-4.584957475E-1,1.133924584E-1,2.014218442E0,2.068852855E0
9.763270583E0,1.079310585E-1,-1.090122544E-1,1.907931265E0,1.914088424E0
9.773268583E0,-2.613320942E-1,-2.160210882E-1,2.067963125E0,2.095574160E0
9.783266583E0,-5.249261107E-2,2.051881711E-1,1.236729965E0,1.254734500E0
9.793265583E0,-9.435047991E-2,8.081546389E-2,1.133413172E0,1.140201110E0
9.803263583E0,2.389758864E-1,9.896882096E-2,8.507470733E-1,8.891990129E-1
9.813262583E0,-2.816355387E-3,1.104244666E-1,8.078793812E-1,8.153959708E-1
9.823260583E0,2.682757930E-3,1.419980790E-1,5.252173752E-1,5.440808238E-1
9.833258583E0,1.233702546E-2,1.722472787E-2,4.733701140E-1,4.738440231E-1
9.843257583E0,-9.752203709E-2,3.161764920E-2,4.246727479E-1,4.368720250E-1
9.853255583E0,-5.720058812E-2,-6.817468814E-2,2.179350829E-1,2.354047488E-1
9.863254583E0,1.982410530E-2,-2.344324172E-2,-1.333913612E-1,1.368789099E-1
9.873252583E0,1.151860188E-1,-3.822104688E-2,-1.962524378E-1,2.307459354E-1
9.883250583E0,1.335077208E-1,-2.013970740E-1,1.754164696E-5,2.416300752E-1
9.893249583E0,2.329682150E-2,-4.787864629E-3,-1.431831086E-1,1.451449900E-1
9.903247583E0,-3.114491552E-2,1.658964716E-4,-3.718507558E-1,3.731528077E-1
9.913245583E0,-9.758501342E-2,9.424712123E-2,-4.842506129E-1,5.028956261E-1
9.923244583E0,-5.985780045E-2,1.178635319E-1,-5.653666967E-1,5.806154237E-1
9.933242583E0,1.026641151E-1,7.351576332E-2,-9.120516211E-1,9.207511322E-1
9.943241583E0,4.773585729E-1,3.210405714E-1,-1.537041791E0,1.641169011E0
9.953239583E0,-1.351498588E-2,-2.636731366E-1,-9.175099969E-1,9.547412069E-1
9.963237583E0,1.295760987E-1,2.087226850E-1,-1.360965171E0,1.382961070E0
9.973236583E0,-2.044215097E-1,1.180085977E-1,-1.335583577E0,1.356280824E0
9.983234583E0,1.436467562E-1,-1.823820749E-1,-1.405822670E0,1.424863149E0
9.993233583E0,-2.287898540E-1,9.340029823E-2,-1.544918575E0,1.564558026E0
1.000323158E1,-8.839982335E-2,-1.694205154E-1,-1.616769746E0,1.628024033E0
1.001322958E1,8.429579060E-2,-4.200542515E-1,-1.610595086E0,1.666603698E0
1.002322858E1,-1.613099522E-1,6.048066597E-2,-1.789274887E0,1.797549285E0
1.003322658E1,-2.969193268E-2,-1.072532566E-1,-1.833522522E0,1.836896761E0
1.004322458E1,-8.737770722E-3,-1.655968018E-3,-1.992134678E0,1.992154529E0
1.005322358E1,6.846735955E-2,-4.150901847E-3,-2.050764710E0,2.051911524E0
1.006322158E1,-1.522061983E-2,3.373574094E-1,-2.268561798E0,2.293559313E0
1.007322058E1,1.624385013E-1,-2.081553955E-2,-2.168741056E0,2.174915475E0
1.008321858E1,2.293246916E-1,-1.518981460E-1,-1.914010615E0,1.933675126E0
1.009321658E1,-4.710629306E-2,2.204562927E-1,-1.890258640E0,1.903653778E0
1.010321558E1,1.577578783E-1,-2.843172431E-1,-1.684758246E0,1.715847951E0
1.011321358E1,1.948074081E-1,-1.184666722E-1,-1.885202553E0,1.898939953E0
1.012321258E1,-2.293451797E-2,-3.721523442E-2,-1.861547642E0,1.862060844E0
1.013321058E1,6.253265037E-2,-1.017808201E-1,-1.962129691E0,1.965762598E0
1.014320858E1,-2.257479772E-2,4.352600637E-2,-2.143550667E0,2.144111377E0
1.015320758E1,-1.857410992E-2,1.112515004E-3,-2.111376947E0,2.111458938E0
1.016320558E1,-1.028909688E-1,3.335108369E-2,-1.997186088E0,2.000112776E0
1.017320358E1,-1.226017683E-1,4.362661502E-2,-1.967422591E0,1.971721615E0
1.018320258E1,-6.899756497E-2,-6.921069598E-2,-1.911594545E0,1.914091035E0
1.019320058E1,-4.395056904E-2,-1.079381026E-1,-1.777905561E0,1.781721210E0
1.020319958E1,-8.413972019E-3,-1.130102150E-1,-1.723534057E0,1.727255554E0
1.021319758E1,4.382562135E-2,-7.565942567E-2,-1.896231571E0,1.898246350E0
1.022319558E1,8.483861321E-2,-6.382499009E-2,-1.995890930E0,1.998712541E0
1.023319458E1,9.692607790E-2,5.173941661E-2,-2.111137211E0,2.113994313E0
1.024319258E1,1.148017105E-1,1.845326442E-3,-2.150801799E0,2.153864252E0
1.025319158E1,8.106252702E-2,5.008383231E-2,-2.237625934E0,2.239653845E0
1.026318958E1,4.338631273E-2,9.808886983E-2,-2.212490509E0,2.215088723E0
1.027318758E1,1.386690672E-1,-1.625854857E-2,-2.059373565E0,2.064100999E0
1.028318658E1,6.798860507E-2,-6.262660325E-3,-2.015378530E0,2.016534723E0
1.029318458E1,-7.114953676E-4,4.043515904E-2,-2.091431510E0,2.091822475E0
1.030318358E1,1.266789335E-2,-1.321158460E-1,-2.107739979E0,2.111914509E0
1.031318158E1,3.545213445E-2,-1.790566902E-1,-2.210100752E0,2.217625641E0
1.032317958E1,-6.859643684E-2,-5.405266648E-2,-2.349273255E0,2.350895997E0
1.033317858E1,-3.823382167E-2,-9.227120088E-2,-2.479762058E0,2.481772686E0
1.034317658E1,-4.573506160E-2,1.717943022E-2,-2.675826216E0,2.676272177E0
1.035317458E1,8.889891976E-3,9.696993202E-2,-2.906642715E0,2.908273383E0
1.036317358E1,-1.161084170E-1,4.289146470E-2,-2.998421196E0,3.000974927E0
1.037317158E1,4.136715496E-2,-6.017848369E-2,-3.180024605E0,3.180862961E0
1.038317058E1,1.239820995E-4,-1.099583156E-1,-3.249956719E0,3.251816342E0
1.039316858E1,-1.602869818E-1,-7.667983789E-3,-3.243549925E0,3.247517026E0
1.040316658E1,3.728642199E-2,-9.271056432E-2,-3.252100893E0,3.253635773E0
1.041316558E1,8.282070254E-2,-1.926434267E-1,-3.110652654E0,3.117712413E0
1.042316358E1,1.138244238E-2,4.401791252E-2,-3.205866374E0,3.206188757E0
1.043316158E1,1.250156451E-1,-9.437303737E-2,-3.188211291E0,3.192056770E0
1.044316058E1,1.064457470E-1,-5.609586636E-2,-3.260213320E0,3.262432886E0
1.045315858E1,1.556050797E-1,5.598873440E-3,-3.301083604E0,3.304753734E0
1.046315758E1,1.415474596E-1,-1.212675433E-1,-3.051841359E0,3.057527952E0
1.047315558E1,2.337555334E-2,-4.500132283E-2,-2.868158095E0,2.868606351E0
1.048315358E1,-1.707433680E-2,4.273766465E-4,-2.721445608E0,2.721499203E0
1.049315258E1,5.301948175E-2,-1.529518873E-1,-2.513649597E0,2.518856812E0
1.050315058E1,3.089945123E-3,-5.530709524E-2,-2.455699012E0,2.456323688E0
1.051314958E1,-6.771920831E-2,2.632807519E-2,-2.383233299E0,2.384340583E0
1.052314758E1,-4.651882604E-2,-2.622854462E-2,-2.248660800E0,2.249294852E0
1.053314558E1,-1.671131664E-3,4.832345495E-2,-2.073247839E0,2.073811599E0
1.054314458E1,2.180311782E-1,-8.377687762E-2,-1.880473909E0,1.894924348E0
1.055314233E1,-7.407843906E-2,4.135973174E-3,-1.514813601E0,1.516629476E0
1.056314133E1,-1.517227112E-1,1.907872646E-1,-1.287317151E0,1.310192737E0
1.057313933E1,3.811209452E-2,-1.324368307E-1,-8.999396986E-1,9.104303965E-1
1.058313733E1,1.617124233E-1,-2.963147795E-2,-9.261363941E-1,9.406155181E-1
1.059313633E1,-1.530942853E-1,-3.783977187E-2,-8.041272229E-1,8.194451166E-1
1.060313433E1,8.262810987E-2,-3.642093586E-2,-1.055876754E0,1.059730913E0
1.061313233E1,5.326153364E-3,-1.861500206E-1,-9.758967841E-1,9.935062814E-1
1.062313133E1,-1.483936424E-2,1.022277301E-1,-8.793048745E-1,8.853517820E-1
1.063312933E1,-1.000559737E-1,1.914909588E-1,-5.174809241E-1,5.607731199E-1
1.064312833E1,9.075772220E-2,6.805044394E-3,-2.143466467E-1,2.328685417E-1
1.065312633E1,4.467277327E-3,8.117914243E-2,-1.055241162E-1,1.332116692E-1
1.066312433E1,-8.825354246E-2,2.029206208E-1,-1.682612318E-1,2.779879642E-1
1.067312333E1,4.662598997E-2,-1.049888767E-1,5.341899276E-2,1.266895258E-1
1.068312133E1,5.226372913E-2,-3.933979282E-2,1.590840268E-1,1.720082680E-1
1.069312033E1,1.225427023E-2,6.983196264E-2,2.229794759E-1,2.339797359E-1
1.070311833E1,8.336154258E-2,-1.047245460E-1,3.591804242E-1,3.833105196E-1
1.071311633E1,3.993841066E-2,1.053838926E-1,2.585673845E-1,2.820601599E-1
1.072311533E1,2.677352567E-2,3.528984681E-2,3.283071256E-1,3.312820002E-1
1.073311333E1,7.905219946E-2,-3.387658392E-2,3.443109548E-1,3.548899925E-1
1.074311133E1,7.550897864E-3,7.245368969E-2,2.972970021E-1,3.060915887E-1
1.075311033E1,-2.376319862E-3,-1.246828289E-2,3.757239515E-1,3.759382831E-1
1.076310833E1,-1.358835816E-2,-2.855783779E-2,4.282594299E-1,4.294255848E-1
1.077310733E1,-5.082844782E-2,4.335920541E-3,3.712227648E-1,3.747114523E-1
1.078310533E1,-4.453212946E-2,-6.969163860E-2,1.657030749E-1,1.851959613E-1
1.079310333E1,-4.374496175E-2,-1.074713852E-1,-1.134506017E-1,1.622798796E-1
1.080310233E1,-4.685180213E-2,-7.622689795E-2,-1.354297006E-1,1.623170821E-1
1.081310033E1,-1.203493340E-2,-3.957282264E-2,-8.613533378E-3,4.224974403E-2
1.082309933E1,-3.017559334E-2,6.774494519E-2,9.425068438E-2,1.199297108E-1
1.083309733E1,1.452062589E-2,7.111652283E-2,1.513043064E-1,1.678135916E-1
1.084309533E1,3.518086933E-2,8.625958711E-2,1.719671971E-1,1.955789529E-1
1.085309433E1,4.717854728E-2,1.408750116E-1,1.221202683E-1,1.923147008E-1
1.086309233E1,5.888185448E-2,1.752001226E-2,1.631326389E-1,1.743166128E-1
1.087309033E1,5.489126684E-2,3.180815879E-2,1.568474668E-1,1.691920152E-1
1.088308933E1,4.987728856E-2,-8.622468654E-3,1.688307506E-1,1.762552502E-1
1.089308733E1,3.921016736E-2,-1.916298850E-2,8.352922976E-2,9.424324685E-2
1.090308633E1,1.261824684E-2,4.173998348E-3,-1.554599226E-2,2.045287977E-2
1.091308433E1,-3.654021906E-2,1.075097940E-1,-1.520521653E-1,1.897719800E-1
1.092308233E1,7.304931083E-3,4.827654932E-2,-1.933726841E-1,1.994416762E-1
1.093308133E1,-2.830046437E-2,1.101512372E-1,-4.455578327E-4,1.137295470E-1
1.094307933E1,-2.650511107E-2,8.712342186E-2,1.577397519E-1,1.821396192E-1
1.095307833E1,3.500175267E-4,-1.244091975E-2,2.078568220E-1,2.082290985E-1
1.096307633E1,-1.292152319E-2,-3.724274375E-2,2.217579925E-1,2.252345332E-1
1.097307433E1,-1.886724501E-2,-2.338316157E-2,7.056419849E-2,7.669453232E-2
1.098307333E1,1.256517308E-2,-7.595184127E-2,1.249082208E-2,7.799093795E-2
1.099307133E1,1.065582533E-2,-4.744483771E-2,1.077121443E-1,1.181798006E-1
1.100306933E1,-3.516810595E-2,5.400413459E-2,2.619149154E-1,2.697270197E-1
1.101306833E1,3.857967763E-2,-6.820914103E-2,3.748129553E-1,3.829172624E-1
1.102306633E1,1.277220220E-2,6.351749964E-2,3.047814381E-1,3.115916028E-1
1.103306533E1,-7.609655529E-3,8.037440110E-2,2.559975332E-1,2.684263180E-1
1.104306333E1,3.791439696E-2,2.326749634E-2,3.214044875E-1,3.244683690E-1
1.105306133E1,-6.509030929E-2,1.840669683E-1,4.331886327E-1,4.751523847E-1
1.106306033E1,1.019509832E-1,-7.670015696E-2,6.844744796E-1,6.962630467E-1
1.107305833E1,-4.630448904E-3,5.397409452E-2,8.040284050E-1,8.058513014E-1
1.108305733E1,-7.919196619E-2,9.992360733E-2,7.547439784E-1,7.654375009E-1
1.109305533E1,6.858491600E-2,-1.387103449E-1,7.020278209E-1,7.188793444E-1
1.110305333E1,-3.298287812E-2,1.001966723E-1,6.062018967E-1,6.153112894E-1
1.111305233E1,-1.715777268E-2,-1.680254976E-2,6.853755355E-1,6.857961355E-1
1.112305033E1,-5.849060723E-2,6.879062835E-2,7.477659112E-1,7.531979552E-1
1.113304933E1,-1.078895113E-2,-6.858362961E-1,1.704272743E0,1.837126400E0
1.114304733E1,7.531533530E-4,6.215433095E-1,2.489475453E-1,6.695457662E-1
1.115304533E1,-1.112184545E-1,3.516515493E-1,6.819864893E-1,7.753282714E-1
1.116304433E1,4.077632580E-1,-2.100893255E-1,8.569954079E-1,9.720337075E-1
1.117304233E1,-2.225130051E-2,-1.388063215E-1,6.952099675E-1,7.092807724E-1
1.118304033E1,-8.701290035E-2,5.718464349E-1,1.936597824E-3,5.784317941E-1
1.119303933E1,1.648381621E-1,-2.262930747E-1,6.323752034E-1,6.915768744E-1
1.120303733E1,1.146609205E-1,-2.221012789E-1,7.332385039E-1,7.746707742E-1
1.121303633E1,-1.233538298E-1,1.777142609E-1,4.326553667E-1,4.837242935E-1
1.122303433E1,-3.630969258E-1,1.419424025E-1,9.193834448E-1,9.986255263E-1
1.123303233E1,-6.390025472E-2,2.849849586E-1,4.433160102E-1,5.308754601E-1
1.124303133E1,1.556751915E-1,-8.496174278E-2,6.251082838E-1,6.497796776E-1
1.125302933E1,1.326279616E-2,-2.141258595E-2,6.632520103E-1,6.637300881E-1
1.126302833E1,1.368217948E-1,-4.648747492E-2,5.918007892E-1,6.091875434E-1
1.127302633E1,1.375739477E-1,-1.059218639E-1,6.286014104E-1,6.521393758E-1
1.128302433E1,-1.154490156E-1,-8.475700800E-2,6.868162894E-1,7.015902230E-1
1.129302333E1,-1.008441692E-1,1.934006046E-1,4.345867020E-1,4.862498759E-1
1.130302133E1,4.143353913E-2,-1.983846981E-1,6.363863933E-1,6.678778842E-1
1.131301933E1,-2.827240687E-3,3.829096679E-2,4.394305354E-1,4.411047346E-1
1.132301833E1,3.398446733E-2,-3.104981147E-3,4.480089855E-1,4.493068395E-1
1.133301633E1,2.825758327E-3,7.286769083E-2,4.896610415E-1,4.950612294E-1
1.134301533E1,8.128660329E-2,1.011738425E-1,5.121517718E-1,5.283399432E-1
1.135301333E1,2.559087652E-1,-1.546233687E-1,6.388223433E-1,7.053308930E-1
1.136301133E1,-9.595465438E-2,3.534272756E-1,4.777730674E-1,6.019844174E-1
1.137301033E1,5.332544644E-2,-5.636684826E-2,5.451464403E-1,5.506409594E-1
1.138300833E1,-6.276497669E-2,1.433834762E-1,4.143138206E-1,4.428929955E-1
1.139300733E1,-4.359340467E-2,1.250249549E-1,4.232904661E-1,4.435160008E-1
1.140300533E1,-1.529025423E-2,1.903517202E-2,4.934792733E-1,4.940829109E-1
1.141300333E1,-6.246436585E-2,1.563413172E-1,4.763837689E-1,5.052582506E-1
1.142300233E1,-7.557435325E-2,-9.811719228E-4,7.218528056E-1,7.257988141E-1
1.143300033E1,-2.190843440E-2,8.499578454E-2,6.290206558E-1,6.351151457E-1
1.144299833E1,-4.020562842E-2,9.689331522E-2,5.221236134E-1,5.325578604E-1
1.145299733E1,5.420468495E-2,-1.294338378E-1,5.686692041E-1,5.857268390E-1
1.146299533E1,-5.538141198E-3,4.420944538E-2,4.408291894E-1,4.430750730E-1
1.147299433E1,2.227957728E-2,2.897725674E-2,4.908258069E-1,4.921849588E-1
1.148299233E1,2.059462671E-2,-3.685765891E-2,5.339384973E-1,5.356052134E-1
1.149299033E1,2.354732444E-2,8.386496957E-2,4.959210706E-1,5.035131754E-1
1.150298933E1,1.308949382E-1,-1.134721176E-1,5.570051783E-1,5.833216737E-1
1.151298733E1,9.992543458E-2,-3.454867568E-2,5.252846181E-1,5.358195905E-1
1.152298633E1,2.008565172E-2,8.661744584E-2,5.456493008E-1,5.528464297E-1
1.153298433E1,5.277028073E-1,-8.144103373E-2,3.567731255E-1,6.421759555E-1
1.154298233E1,-4.795796743E-2,-1.367376679E-1,6.371898007E-1,6.534584904E-1
1.155298129E1,-2.613218616E-1,2.915441093E-1,4.909684789E-1,6.279626823E-1
1.156297929E1,-2.374939462E-1,7.426993537E-2,7.102893519E-1,7.526156796E-1
1.157297729E1,1.117037552E-1,2.010946267E-1,4.812656093E-1,5.334166894E-1
1.158297629E1,-3.073590735E-1,3.615307856E-1,5.975304759E-1,7.630313091E-1
1.159297429E1,-1.075137592E-1,-1.494622690E-1,9.221415764E-1,9.403421001E-1
1.160297329E1,-8.058131944E-2,-4.215096965E-1,1.568753580E0,1.626392194E0
1.161297129E1,-1.580472058E-1,4.605265221E-2,1.348922246E0,1.358930090E0
1.162296929E1,3.247877961E-1,-2.136767202E-1,7.874837083E-1,8.782228897E-1
1.163296829E1,2.295832938E-2,3.138534663E-1,7.075686425E-1,7.743929668E-1
1.164296629E1,1.270857970E-1,4.465752848E-1,6.169835776E-1,7.721716259E-1
1.165296529E1,1.090453368E-1,-6.133871745E-2,1.264968508E0,1.271140688E0
1.166296329E1,1.914589087E-1,-5.880837142E-4,1.313765861E0,1.327643626E0
1.167296129E1,1.268420046E-1,1.095190253E-1,1.253277585E0,1.264431895E0
1.168296029E1,-3.723276465E-2,1.021568691E-1,1.578035451E0,1.581776908E0
1.169295829E1,-1.714853362E-2,-8.172363698E-2,2.112945170E0,2.114594552E0
1.170295629E1,-1.043635261E-1,-1.221564663E-1,2.158975621E0,2.164945653E0
1.171295529E1,-1.714879264E-1,3.202719549E-1,1.866986137E0,1.902004067E0
1.172295329E1,-2.850798571E-2,-6.832179129E-3,2.325390303E0,2.325575078E0
1.173295229E1,-1.624714467E-1,-8.742662740E-2,2.783228458E0,2.789337024E0
1.174295029E1,-1.985334367E-1,-2.328240674E-2,2.885147181E0,2.892063597E0
1.175294829E1,-3.390885553E-2,4.912695374E-2,2.793392673E0,2.794030403E0
1.176294729E1,8.683442323E-2,-2.181529465E-2,3.008952616E0,3.010284367E0
1.177294529E1,7.367876359E-2,-4.630742636E-2,3.252831795E0,3.253995640E0
1.178294429E1,4.929088592E-2,1.287028719E-1,3.135681660E0,3.138708890E0
1.179294229E1,1.160240070E-1,1.924549636E-1,3.002662182E0,3.011059724E0
1.180294029E1,1.426803485E-1,-3.786236588E-2,3.180257909E0,3.183682083E0
1.181293929E1,-9.538643293E-2,1.205059709E-1,3.274481111E0,3.278085845E0
1.182293729E1,2.308741809E-2,3.034071414E-1,2.914534117E0,2.930375068E0
1.183293529E1,4.281735855E-1,1.166764466E-1,2.812787887E0,2.847581730E0
1.184293429E1,-8.943999734E-2,1.907080349E-1,3.355857396E0,3.362461588E0
1.185293229E1,-8.596181765E-2,4.983369208E-1,3.247156488E0,3.286297974E0
1.186293129E1,8.676597426E-2,9.532886527E-2,3.398748477E0,3.401192017E0
1.187292929E1,-1.940250507E-1,3.961226211E-1,3.311262437E0,3.340511604E0
1.188292729E1,-1.262990998E-1,1.151566182E-2,3.472435673E0,3.474750866E0
1.189292629E1,-1.606119774E-1,-5.610688105E-1,3.925955075E0,3.969095321E0
1.190292429E1,-3.047615210E-1,3.412712798E-1,3.239599546E0,3.271750432E0
1.191292329E1,7.387849626E-3,-4.554368863E-2,3.073988857E0,3.074335099E0
1.192292129E1,-1.798281572E-1,6.939840987E-1,2.415930929E0,2.520054433E0
1.193291929E1,2.344643393E-1,-1.033847661E-1,2.353389695E0,2.367299092E0
1.194291829E1,5.588966064E-2,-9.222719693E-1,3.441579332E0,3.563450229E0
1.195291629E1,-1.026389720E-1,9.634456500E-1,1.310280336E0,1.629600208E0
1.196291429E1,5.245842313E-1,-8.273356258E-1,2.608738772E0,2.786609200E0
1.197291329E1,-4.732498806E-2,5.609901289E-1,1.511046240E0,1.612516765E0
1.198291129E1,-8.998952597E-2,2.805628008E-1,1.558441431E0,1.586049587E0
1.199291029E1,3.640715470E-1,-1.701423541E-1,1.664683585E0,1.712503416E0
1.200290829E1,-6.572684267E-2,2.145678541E-1,1.426650453E0,1.444192126E0
1.201290629E1,-1.970914767E-1,-3.206864129E-1,1.510794809E0,1.556979699E0
1.202290529E1,-1.220956004E-1,-3.265088875E-1,1.361599009E0,1.405513163E0
1.203290329E1,-1.206809579E-2,4.016069805E-1,7.589767778E-1,8.587662982E-1
1.204290229E1,-1.524725161E-1,-1.598316299E-1,1.075564914E0,1.098013616E0
1.205290029E1,-9.011564882E-3,2.343519997E-1,6.847112918E-1,7.237621302E-1
1.206289829E1,-2.285143588E-1,4.916862429E-2,7.770359033E-1,8.114315503E-1
1.207289729E1,3.027013094E-2,5.403516138E-2,5.868990684E-1,5.901581110E-1
1.208289529E1,3.103793888E-2,-1.744915314E-1,6.388147420E-1,6.629441324E-1
1.209289329E1,-2.220826043E-1,1.433959655E-1,5.385098505E-1,5.998966121E-1
1.210289229E1,2.103119034E-1,-1.844184408E-1,4.362771320E-1,5.182460747E-1
1.211289029E1,2.156917255E-2,2.120619751E-1,8.134997249E-2,2.281519855E-1
1.212288929E1,-1.474578435E-1,3.198152874E-1,-7.465958834E-2,3.599995663E-1
1.213288729E1,2.753412920E-1,4.166271801E-2,-2.279817688E-1,3.598948403E-1
1.214288529E1,8.318607129E-2,1.312139312E-1,-2.636801898E-1,3.060461742E-1
1.215288429E1,7.289198418E-2,1.766251439E-1,-4.305076844E-1,4.710058907E-1
1.216288229E1,6.512662141E-2,2.902677535E-2,-5.360914421E-1,5.408124118E-1
1.217288129E1,1.631289661E-1,1.585853507E-2,-5.726681149E-1,5.956604088E-1
1.218287929E1,-8.740978011E-2,2.069464836E-2,-4.105938220E-1,4.203046809E-1
1.219287729E1,1.206204941E-1,-8.324649861E-2,-5.894829530E-1,6.074285431E-1
1.220287629E1,-4.849105077E-3,-6.526629221E-2,-7.345248914E-1,7.374347556E-1
1.221287429E1,3.373483919E-2,-1.330405466E-1,-8.847889781E-1,8.953710751E-1
1.222287229E1,1.625731289E-2,-8.449814080E-2,-1.174239017E0,1.177387576E0
1.223287129E1,4.262911201E-2,-8.723774406E-2,-1.360832439E0,1.364291975E0
1.224286929E1,-8.429319818E-3,9.528199618E-2,-1.390098923E0,1.393386066E0
1.225286829E1,-1.764839176E-2,7.951309710E-2,-1.466966420E0,1.469225740E0
1.226286629E1,-7.384822093E-3,8.473576616E-2,-1.625427133E0,1.627651084E0
1.227286429E1,-5.914806725E-2,1.018581404E-1,-1.615355889E0,1.619644474E0
1.228286329E1,-5.297951055E-2,1.086794930E-1,-1.649147533E0,1.653573599E0
1.229286129E1,-7.348792509E-2,-7.572608393E-2,-1.600454260E0,1.603929161E0
1.230286029E1,2.141561690E-2,-1.289599575E-1,-1.550248897E0,1.555750925E0
1.231285829E1,-4.700840701E-2,-6.604134064E-2,-1.576836771E0,1.578919077E0
1.232285629E1,-1.118100283E-1,2.617623945E-1,-1.992517671E0,2.012746309E0
1.233285529E1,2.212062346E-1,-1.889404947E-1,-1.975175414E0,1.996484066E0
1.234285329E1,1.438141145E-1,-8.264286496E-2,-1.932272639E0,1.939378739E0
1.235285129E1,-7.022253837E-2,1.489335619E-1,-1.932931620E0,1.939932230E0
1.236285029E1,1.394496522E-1,-2.543511948E-1,-1.764865100E0,1.788543977E0
1.237284829E1,9.842897678E-2,-2.106447562E-2,-1.911427900E0,1.914076433E0
1.238284729E1,3.912645168E-2,-2.677184232E-3,-2.016066163E0,2.016447574E0
1.239284529E1,9.120007320E-2,-1.296488326E-1,-2.109326329E0,2.115273938E0
1.240284329E1,2.446338899E-2,1.590623738E-1,-2.402277680E0,2.407662216E0
1.241284229E1,-1.879824101E-2,-4.072515353E-2,-2.440160621E0,2.440572836E0
1.242284029E1,4.198165622E-2,-1.968410332E-1,-2.516967891E0,2.525002221E0
1.243283929E1,-8.686789853E-2,1.368769230E-3,-2.696018990E0,2.697418451E0
1.244283729E1,5.239556100E-2,-2.399241038E-1,-2.678810050E0,2.690043151E0
1.245283529E1,1.096399347E-1,-2.023935857E-1,-2.604103099E0,2.614256497E0
1.246283429E1,7.030479225E-2,-3.487169780E-3,-2.609915816E0,2.610864893E0
1.247283229E1,1.871257930E-1,-1.648985346E-1,-2.680826755E0,2.692404070E0
1.248283129E1,1.284505006E-1,7.206298605E-2,-2.893952503E0,2.897697999E0
1.249282929E1,5.478483381E-2,1.388361331E-1,-2.910102512E0,2.913927501E0
1.250282729E1,9.851134943E-2,6.421341880E-2,-2.987195127E0,2.989508752E0
1.251282629E1,-7.080187867E-3,7.432423225E-2,-3.091993604E0,3.092894868E0
1.252282429E1,-2.733406809E-2,7.395494403E-3,-3.175990611E0,3.176116844E0
1.253282229E1,-3.780371100E-2,-9.049455182E-2,-3.206393793E0,3.207893318E0
1.254282129E1,-6.340486765E-2,-5.377142454E-2,-3.409528989E0,3.410542401E0
1.255281883E1,-4.126211065E-2,-1.253165117E-1,-3.559069775E0,3.561514348E0
1.256281783E1,-2.773104150E-2,3.775110433E-2,-3.723885242E0,3.724179837E0
1.257281583E1,1.160462630E-2,-4.615750923E-2,-3.723741986E0,3.724046127E0
1.258281383E1,-3.139826898E-2,4.783519417E-2,-3.692914880E0,3.693358142E0
1.259281283E1,-3.605485105E-3,-3.627615332E-2,-3.596965579E0,3.597150308E0
1.260281083E1,2.377008051E-2,-1.025720397E-2,-3.739623023E0,3.739712634E0
1.261280883E1,-1.058938292E-2,-3.004909705E-2,-3.786930506E0,3.787064528E0
1.262280783E1,2.060072975E-2,-7.103169252E-2,-3.870163867E0,3.870870477E0
1.263280583E1,6.489385655E-2,-7.972282028E-2,-3.968524559E0,3.969855680E0
1.264280483E1,1.237375077E-1,-2.268699208E-1,-3.715413796E0,3.724389965E0
1.265280283E1,4.022397291E-3,-1.345136064E-1,-3.375184198E0,3.377865962E0
1.266280083E1,-2.633632068E-2,-6.221825746E-2,-3.063234658E0,3.063979648E0
1.267279983E1,5.216482439E-2,-1.177866227E-1,-2.917728451E0,2.920570864E0
1.268279783E1,5.977596684E-2,-4.623723236E-2,-2.898255469E0,2.899240557E0
1.269279683E1,6.507973405E-2,-6.542789463E-2,-2.741506820E0,2.743059574E0
1.270279483E1,6.280283741E-2,-3.598882662E-2,-2.547028427E0,2.548056750E0
1.271279283E1,7.105210296E-2,6.410971295E-2,-2.411530314E0,2.413428456E0
1.272279183E1,9.449079481E-2,-4.452470167E-2,-2.123043897E0,2.125611993E0
1.273278983E1,4.466575661E-2,4.357217196E-2,-1.955966726E0,1.956961777E0
1.274278883E1,-6.674882176E-4,5.535288624E-2,-1.847126069E0,1.847955384E0
1.275278683E1,6.205305534E-2,-1.382600271E-1,-1.679758292E0,1.686580664E0
1.276278483E1,-2.956314318E-2,5.830505406E-2,-1.525432144E0,1.526832239E0
1.277278383E1,-2.881919006E-2,-3.116790695E-2,-1.187889342E0,1.188647581E0
1.278278183E1,-6.719313249E-2,3.249986613E-2,-9.735584825E-1,9.764155249E-1
1.279277983E1,-7.087643067E-2,1.561298307E-1,-8.466633779E-1,8.638511839E-1
1.280277883E1,-1.695228759E-2,4.707866496E-2,-7.631891119E-1,7.648276939E-1
1.281277683E1,9.523566841E-3,9.792524829E-2,-7.717851037E-1,7.780310398E-1
1.282277583E1,2.592595349E-2,1.078615498E-1,-5.886450469E-1,5.990068950E-1
1.283277383E1,1.217125986E-1,-2.764298609E-2,-4.336406225E-1,4.512452557E-1
1.284277183E1,3.799946938E-2,1.046660738E-2,-3.458400017E-1,3.480787502E-1
1.285277083E1,2.076807203E-2,-8.788096519E-2,-1.944012094E-1,2.143506638E-1
1.286276883E1,-2.625000116E-2,-8.652470352E-2,5.690217912E-2,1.068337253E-1
1.287276683E1,4.326925422E-2,-9.622766454E-2,1.850287074E-1,2.129967473E-1
1.288276583E1,8.581056663E-2,-1.497567037E-1,1.094470131E-1,2.043750776E-1
1.289276383E1,1.319579894E-1,-1.809113905E-2,-7.898535848E-2,1.548511774E-1
1.290276283E1,1.395110389E-1,-1.784599453E-1,6.505904496E-2,2.356776642E-1
1.291276083E1,-1.145238033E-1,1.514630492E-1,1.348712915E-1,2.329099012E-1
1.292275883E1,-1.698135693E-2,-1.895522048E-2,3.672606915E-1,3.681413891E-1
1.293275783E1,-7.330779887E-2,9.596966528E-2,4.309561658E-1,4.475571772E-1
1.294275583E1,3.924565722E-2,3.382721149E-2,4.515401191E-1,4.545030043E-1
1.295275483E1,1.550292020E-1,1.447541732E-1,2.682316625E-1,3.419591334E-1
1.296275283E1,-2.664489926E-1,2.938335866E-1,2.212639028E-1,4.541926430E-1
1.297275083E1,1.677449409E-1,8.857614432E-2,-4.037853241E-2,1.939446427E-1
1.298274983E1,-1.811929887E-1,1.922198873E-1,1.203754592E-1,2.902923275E-1
1.299274783E1,-6.051427375E-3,3.926641027E-2,6.513447404E-2,7.629528463E-2
1.300274583E1,-1.116205374E-2,-8.530231568E-2,6.035262108E-2,1.050881315E-1
1.301274483E1,1.602027453E-3,-5.992555507E-2,7.053730130E-2,9.256970086E-2
1.302274283E1,-1.767693326E-1,3.308542458E-1,9.791338027E-2,3.876840968E-1
1.303274183E1,7.817160878E-2,-7.490400195E-2,4.002541906E-1,4.146381881E-1
1.304273983E1,3.125094655E-3,1.271350324E-1,4.988540339E-1,5.148091198E-1
1.305273783E1,-9.066633205E-3,8.707210341E-2,3.727646756E-1,3.829063311E-1
1.306273683E1,6.014304408E-2,-1.492240589E-1,2.820217359E-1,3.246864103E-1
1.307273483E1,9.996105691E-2,-1.370096914E-1,1.451945508E-1,2.232606683E-1
1.308273383E1,5.551435619E-2,-5.836732691E-2,9.939857304E-2,1.279400833E-1
1.309273183E1,1.642287178E-1,-1.990877710E-1,1.269763809E-1,2.876282559E-1
1.310272983E1,9.540529020E-2,-7.020675089E-2,6.027543783E-2,1.329070565E-1
1.311272883E1,3.820303243E-2,-3.641034692E-2,1.277078676E-1,1.381827938E-1
1.312272683E1,1.062422273E-1,-1.267091815E-1,1.515949130E-1,2.243293231E-1
1.313272483E1,-9.544089198E-3,8.322754998E-2,-9.561893284E-2,1.271255090E-1
1.314272383E1,-1.896967406E-2,-3.126601227E-2,-1.159233892E-1,1.215551077E-1
1.315272183E1,-1.431251298E-1,1.654867097E-1,-9.481435597E-2,2.384542219E-1
1.316272083E1,-9.097145621E-2,1.402597017E-1,-4.860498011E-2,1.741006429E-1
1.317271883E1,2.199167500E-2,-3.620928492E-2,2.370695114E-1,2.408250388E-1
1.318271683E1,-1.310812725E-1,2.566468665E-1,2.700466383E-1,3.949368316E-1
1.319271583E1,-5.118315454E-2,2.520031175E-3,5.649907207E-1,5.673099509E-1
1.320271383E1,6.680725280E-2,-1.356181271E-2,5.297279173E-1,5.340962443E-1
1.321271283E1,1.854273824E-2,3.105071596E-2,4.880460405E-1,4.893842231E-1
1.322271083E1,-4.855900181E-2,1.421126296E-1,4.780993420E-1,5.011316763E-1
1.323270883E1,9.480166568E-2,-7.066213936E-3,5.690597981E-1,5.769457002E-1
1.324270783E1,3.749193563E-2,-1.320594569E-2,7.068909502E-1,7.080076678E-1
1.325270583E1,-3.415734163E-2,9.903275661E-2,7.528278458E-1,7.600815590E-1
1.326270383E1,6.350506974E-2,-7.295432098E-2,6.835225528E-1,6.903320267E-1
1.327270283E1,3.577731730E-2,2.047058123E-2,6.155685514E-1,6.169470825E-1
1.328270083E1,4.460761792E-2,-1.129914125E-2,6.065965837E-1,6.083394822E-1
1.329269983E1,8.347602010E-2,5.073358588E-2,4.828162909E-1,4.925989377E-1
1.330269783E1,7.573832197E-2,-1.423524750E-2,6.208497566E-1,6.256143828E-1
1.331269583E1,-1.593847404E-2,1.708597527E-1,5.976673007E-1,6.218145161E-1
1.332269483E1,4.390252138E-2,3.497633555E-2,6.063831604E-1,6.089756256E-1
1.333269283E1,4.910956284E-2,2.166483848E-2,5.637616360E-1,5.663111306E-1
1.334269183E1,-1.176166172E-2,3.335481129E-2,4.178636652E-1,4.193577504E-1
1.335268983E1,-8.446161398E-2,1.758083244E-2,3.761583996E-1,3.859248521E-1
1.336268783E1,-9.067188690E-2,1.148678754E-1,4.214193571E-1,4.461056987E-1
1.337268683E1,-1.375398283E-2,1.452405428E-2,5.387133336E-1,5.390845722E-1
1.338268483E1,-1.291658252E-1,-8.090700936E-2,8.781371856E-1,8.912657691E-1
1.339268283E1,-1.816444851E-1,1.560731676E-1,6.852580065E-1,7.259008803E-1
1.340268183E1,2.395156027E-1,5.469273925E-1,2.878239280E-1,6.628272099E-1
1.341267983E1,4.508217155E-1,-5.538803897E-1,8.620737147E-1,1.119461833E0
1.342267883E1,-4.225579561E-1,4.370102998E-1,6.881120324E-1,9.181674126E-1
1.343267683E1,-1.601985975E-1,-1.431730952E-1,7.378373390E-1,7.684829632E-1
1.344267483E1,2.090210209E-1,1.913987555E-1,1.858917564E-1,3.389380709E-1
1.345267383E1,7.452964311E-2,-9.613239147E-2,4.579890132E-1,4.738671128E-1
1.346267183E1,4.289809763E-2,-2.222165604E-1,6.967103630E-1,7.325474568E-1
1.347267083E1,-1.667770074E-1,6.741527187E-2,8.429375321E-1,8.619182514E-1
1.348266883E1,3.770796512E-2,-6.339629782E-2,8.350291729E-1,8.382808007E-1
1.349266683E1,1.783081004E-3,1.390769379E-1,6.586765641E-1,6.732015969E-1
1.350266583E1,5.128906223E-2,-1.231926203E-1,7.275105715E-1,7.396476331E-1
1.351266383E1,-4.864099531E-2,2.360300957E-1,3.821529651E-1,4.517931399E-1
1.352266183E1,-2.366205549E-2,-1.492823484E-1,5.438121057E-1,5.644260081E-1
1.353266083E1,9.023649774E-2,-6.329423650E-2,3.682354224E-1,3.843775646E-1
1.354265883E1,-7.398632257E-2,-2.930653721E-2,4.435428822E-1,4.506252738E-1
1.355265829E1,2.305366184E-2,-7.549871860E-2,4.672170889E-1,4.738389347E-1
1.356265629E1,5.943649029E-3,-3.547743279E-2,5.670963031E-1,5.682360356E-1
1.357265429E1,-4.046172732E-2,9.947188251E-2,6.238523018E-1,6.330272516E-1
1.358265329E1,-1.420235692E-2,1.934659107E-1,6.079923141E-1,6.381891722E-1
1.359265129E1,5.722248777E-2,2.223341625E-2,5.546931893E-1,5.580799872E-1
1.360265029E1,-2.646246979E-2,2.549036836E-1,2.826672685E-1,3.815454559E-1
1.361264829E1,1.742619871E-2,3.189884545E-2,3.049241102E-1,3.070829232E-1
1.362264629E1,2.209125125E-2,1.709587351E-1,1.863104171E-1,2.538237262E-1
1.363264529E1,1.471281313E-2,1.025272811E-1,3.040552139E-1,3.212131432E-1
1.364264329E1,1.064051454E-1,-3.731720438E-3,3.965026170E-1,4.105487864E-1
1.365264129E1,3.440663859E-3,9.831153911E-2,5.158974981E-1,5.251925604E-1
1.366264029E1,2.150765802E-2,6.095021565E-2,6.141950405E-1,6.175864764E-1
1.367263829E1,4.810334383E-2,-5.737443315E-2,6.565242040E-1,6.607796817E-1
1.368263729E1,-3.445343915E-3,-1.620409638E-4,5.339116001E-1,5.339227410E-1
1.369263529E1,-7.630820165E-2,-2.184602908E-2,4.924460703E-1,4.988018873E-1
1.370263329E1,-9.302122963E-3,-9.813210268E-2,4.289996874E-1,4.401785670E-1
1.371263229E1,6.923699474E-3,-2.046187436E-2,3.206595522E-1,3.213863319E-1
1.372263029E1,1.483127749E-2,-3.652984025E-3,3.180148566E-1,3.183814694E-1
1.373262929E1,4.049217853E-2,-4.685273403E-2,3.791492504E-1,3.841730720E-1
1.374262729E1,-4.651514869E-2,1.397301085E-1,3.854899710E-1,4.126629133E-1
1.375262529E1,-3.046042583E-2,1.827870128E-1,4.804440755E-1,5.149421708E-1
1.376262429E1,1.014406674E-1,-3.025326538E-2,6.026356798E-1,6.118621019E-1
1.377262229E1,-5.547673301E-2,3.094576026E-1,5.296174049E-1,6.159028100E-1
1.378262029E1,9.930082404E-2,-9.184404351E-2,6.199124479E-1,6.344977739E-1
1.379261929E1,-4.366661820E-3,1.280542238E-1,5.380420732E-1,5.530878995E-1
1.380261729E1,2.949002101E-3,2.233428072E-2,5.356388676E-1,5.361124073E-1
1.381261629E1,7.586987061E-2,-1.751937820E-1,6.420646244E-1,6.698478040E-1
1.382261429E1,-4.903892574E-2,1.737383918E-1,6.628620011E-1,6.870050054E-1
1.383261229E1,-3.828471757E-2,9.168023011E-2,8.656791079E-1,8.713617515E-1
1.384261129E1,1.257142412E-1,-1.456227131E-2,9.930571926E-1,1.001088766E0
1.385260929E1,2.306481038E-2,1.459560958E-2,1.148427068E0,1.148751386E0
1.386260729E1,-1.724422833E-1,-1.003119447E-1,1.580691256E0,1.593230578E0
1.387260629E1,-1.078052429E-1,-2.311357935E-1,2.264937694E0,2.279251738E0
1.388260429E1,-1.235620730E-1,5.127019217E-1,9.692923540E-1,1.103475652E0
1.389260329E1,3.003428715E-1,4.292484134E-1,9.042233688E-1,1.045026287E0
1.390260129E1,2.380307845E-2,-1.908777503E-1,1.893231949E0,1.902978748E0
1.391259929E1,-1.509240455E-1,2.983275738E-1,1.882597618E0,1.912054183E0
1.392259829E1,-1.449060912E-1,-3.559550270E-1,2.600018234E0,2.628268741E0
1.393259629E1,1.291932523E-1,-3.141678638E-1,2.825346537E0,2.845694185E0
1.394259529E1,2.759678395E-1,8.552571586E-2,1.994447252E0,2.015264930E0
1.395259329E1,1.913555409E-1,-1.010428101E-2,2.283952255E0,2.291976645E0
1.396259129E1,1.166087742E-1,2.077090885E-1,2.299817505E0,2.312120505E0
1.397259029E1,-1.359107255E-1,-1.282552036E-2,2.709564650E0,2.713001440E0
1.398258829E1,-1.495250535E-1,3.563610430E-1,2.529207868E0,2.558562756E0
1.399258629E1,-3.680948334E-2,-5.297518909E-2,2.863628258E0,2.864354745E0
1.400258529E1,-2.093477158E-1,7.173574297E-2,3.130692231E0,3.138503836E0
1.401258329E1,-2.714346028E-1,2.601444516E-1,3.248648112E0,3.270331243E0
1.402258229E1,3.471381727E-3,7.144393036E-2,3.294458123E0,3.295234531E0
1.403258029E1,7.716631710E-2,2.100468784E-1,3.023956572E0,3.032224873E0
1.404257829E1,1.609002999E-1,6.548455780E-2,2.910747460E0,2.915926596E0
1.405257729E1,4.153096745E-1,1.643342417E-1,2.696483259E0,2.733223342E0
1.406257529E1,1.694531501E-1,1.035235644E-1,3.095949245E0,3.102310949E0
1.407257429E1,-1.941766763E-1,3.383467948E-1,3.329097614E0,3.351876199E0
1.408257229E1,1.438843359E-1,-1.567372651E-2,3.567510231E0,3.570445016E0
1.409257029E1,-1.049023013E-1,1.025026680E-1,3.720752304E0,3.723641900E0
1.410256929E1,-1.708156976E-1,2.108471977E-1,3.661441072E0,3.671482707E0
1.411256729E1,-1.494009281E-1,-3.819260200E-1,4.072264690E0,4.092863035E0
1.412256529E1,-3.739539993E-1,2.361956268E-2,4.074485462E0,4.091678294E0
1.413256429E1,-4.741059495E-2,3.281705931E-2,3.383063906E0,3.383555248E0
1.414256229E1,-2.853318081E-1,8.127269422E-1,2.874328662E0,3.000617367E0
1.415256129E1,1.253543268E-1,2.234803081E-1,2.814554915E0,2.826194708E0
1.416255929E1,2.244727451E-1,1.399842248E-1,2.826432365E0,2.838785569E0
1.417255729E1,9.330076765E-2,-6.766618685E-1,3.354832379E0,3.423664208E0
1.418255629E1,1.368578648E-1,-5.103556533E-1,3.419181572E0,3.459768141E0
1.419255429E1,-7.667934453E-2,9.496772844E-1,1.745410829E0,1.988523480E0
1.420255229E1,1.704182696E-1,-4.001821602E-2,2.277505699E0,2.284223294E0
1.421255129E1,2.329069517E-1,-1.010726492E-1,2.488386701E0,2.501305600E0
1.422254929E1,1.429809594E-1,1.760114603E-1,1.800619070E0,1.814842314E0
1.423254829E1,-1.723024070E-1,1.612431660E-1,1.682483679E0,1.698952268E0
1.424254629E1,-3.456819442E-1,4.068660758E-1,1.320651543E0,1.424484646E0
1.425254429E1,3.884035290E-1,-3.543082318E-1,1.053876421E0,1.177729653E0
1.426254329E1,-4.868592019E-1,2.417876663E-1,1.160248969E0,1.281277030E0
1.427254129E1,-3.734337798E-1,-3.598562893E-1,1.394356281E0,1.487675628E0
1.428254029E1,2.432057805E-1,-1.685204096E-3,8.023525929E-1,8.384041836E-1
1.429253829E1,-7.339577206E-2,-1.048784008E-1,9.278040200E-1,9.365931443E-1
1.430253629E1,-2.641780985E-1,1.138213883E-1,8.347087455E-1,8.828839482E-1
1.431253529E1,2.728382269E-1,-4.275396377E-2,4.208428216E-1,5.033659504E-1
1.432253329E1,6.792112911E-2,-1.978874655E-1,3.282018757E-1,3.892161353E-1
1.433253129E1,4.660092004E-2,3.724729726E-1,-2.126620638E-1,4.314312396E-1
1.434253029E1,-3.724943150E-2,-1.820313150E-2,-3.381386340E-2,5.350001403E-2
1.435252829E1,2.277137654E-1,3.672579506E-2,-3.800953299E-1,4.446063458E-1
1.436252729E1,2.194891632E-1,1.634990401E-1,-5.705905992E-1,6.328357297E-1
1.437252529E1,2.308390747E-2,-1.126478886E-1,-3.085593241E-1,3.292890373E-1
1.438252329E1,7.059567296E-3,8.685523566E-2,-6.883868515E-1,6.938804845E-1
1.439252229E1,4.664200586E-2,2.886746613E-2,-8.695745230E-1,8.713028511E-1
1.440252029E1,3.224126936E-1,-4.451005622E-2,-8.890820038E-1,9.467829211E-1
1.441251929E1,-1.798726144E-1,-6.324035989E-2,-7.066482908E-1,7.319189213E-1
1.442251729E1,-4.513933996E-3,1.070012142E-2,-1.039723236E0,1.039788092E0
1.443251529E1,1.845512274E-1,-2.213716743E-1,-1.097645169E0,1.134852189E0
1.444251429E1,-9.248294318E-2,-6.661364601E-2,-1.209300091E0,1.214659287E0
1.445251229E1,2.261705298E-2,3.589563662E-2,-1.492929811E0,1.493532541E0
1.446251029E1,3.135137248E-2,-5.095678506E-2,-1.577909735E0,1.579043583E0
1.447250929E1,1.535449023E-2,2.138920987E-1,-1.907499155E0,1.919515204E0
1.448250729E1,-6.287941310E-2,1.118889657E-1,-1.945359292E0,1.949588607E0
1.449250629E1,2.437680908E-2,1.121885990E-1,-2.120640691E0,2.123746089E0
1.450250429E1,-1.381132894E-1,9.839773986E-2,-2.084717152E0,2.091602974E0
1.451250229E1,-8.896580642E-2,1.341579678E-2,-2.114657820E0,2.116570952E0
1.452250129E1,-2.340109380E-2,-1.323730595E-1,-2.055517911E0,2.059908765E0
1.453249929E1,-5.632019844E-2,-1.386267571E-1,-2.074940608E0,2.080328788E0
1.454249729E1,-1.442037127E-2,-1.268817017E-1,-2.225323393E0,2.228984324E0
1.455249567E1,-4.021317955E-2,-3.940909146E-2,-2.334373965E0,2.335052887E0
1.456249367E1,2.516620603E-2,-6.135868935E-2,-2.526501192E0,2.527371460E0
1.457249267E1,1.069484705E-1,1.000988685E-1,-2.831222988E0,2.835009942E0
1.458249067E1,1.645152496E-2,1.828838573E-1,-2.849611897E0,2.855521865E0
1.459248867E1,1.656427207E-1,8.326827949E-2,-2.809788850E0,2.815898524E0
1.460248767E1,1.339137186E-1,1.976583643E-2,-2.757262142E0,2.760582926E0
1.461248567E1,9.638817061E-2,3.613579273E-3,-2.740692887E0,2.742389695E0
1.462248467E1,2.518157873E-1,-1.663063614E-1,-2.739999408E0,2.756567748E0
1.463248267E1,6.505394235E-2,-1.906415045E-1,-2.613875551E0,2.621625754E0
1.464248067E1,1.734682870E-1,-2.984580764E-1,-2.648344887E0,2.670748792E0
1.465247967E1,-4.530032569E-2,-3.082432456E-1,-2.638178918E0,2.656511626E0
1.466247767E1,-1.156761525E-1,-7.855355074E-2,-2.755670530E0,2.759215777E0
1.467247667E1,-4.679027389E-2,-1.380153851E-1,-2.627506580E0,2.631544870E0
1.468247467E1,2.012342107E-3,-1.593748162E-2,-2.600538052E0,2.600587667E0
1.469247267E1,-4.657561256E-2,1.746890759E-1,-2.688698861E0,2.694770329E0
1.470247167E1,8.356319843E-3,9.329845618E-2,-2.692289636E0,2.693918691E0
1.471246967E1,1.345617180E-1,-8.176598361E-2,-2.577929208E0,2.582733345E0
1.472246767E1,7.261125388E-2,-2.780045891E-2,-2.501885583E0,2.503093433E0
1.473246667E1,5.111016484E-2,-8.021119983E-2,-2.496483341E0,2.498294450E0
1.474246467E1,1.481158745E-1,-2.531089356E-1,-2.519952310E0,2.536959222E0
1.475246367E1,1.853444570E-1,-1.924272442E-1,-2.535025263E0,2.549065298E0
1.476246167E1,-8.406072339E-2,1.851567066E-1,-2.611490471E0,2.619395292E0
1.477245967E1,3.374784925E-2,1.505486634E-1,-2.763578305E0,2.767881656E0
1.478245867E1,4.053795583E-2,2.101864989E-1,-2.962866032E0,2.970588631E0
1.479245667E1,1.952102082E-2,1.310129697E-1,-3.110393037E0,3.113212218E0
1.480245467E1,-4.823347178E-2,1.030151856E-1,-3.144913244E0,3.146969639E0
1.481245367E1,-5.521171253E-2,-9.593157616E-2,-3.053822395E0,3.055827617E0
1.482245167E1,5.398144922E-2,-2.339722413E-1,-3.110594181E0,3.119848260E0
1.483245067E1,-1.131096131E-2,-2.269124227E-1,-3.153422112E0,3.161595832E0
1.484244867E1,2.221447675E-2,-1.144993455E-1,-3.339630203E0,3.341666273E0
1.485244667E1,2.252593920E-2,-1.632096760E-1,-3.438851021E0,3.442795544E0
1.486244567E1,1.992081734E-2,-1.435028142E-1,-3.549426547E0,3.552382117E0
1.487244367E1,6.184159627E-2,-9.285314502E-2,-3.582152828E0,3.583889643E0
1.488244267E1,4.018104270E-2,-9.502079009E-2,-3.450208068E0,3.451750162E0
1.489244067E1,6.904795152E-2,-1.290089462E-2,-3.373049380E0,3.373780694E0
1.490243867E1,-8.332156681E-4,1.726107197E-2,-3.256978641E0,3.257024486E0
1.491243767E1,8.821228305E-2,9.605732784E-3,-3.217267860E0,3.218491286E0
1.492243567E1,3.015352924E-2,1.099447939E-1,-3.120704602E0,3.122786305E0
1.493243367E1,-4.412403035E-2,3.456230700E-2,-2.922231392E0,2.922768857E0
1.494243267E1,2.370849060E-2,-1.089805881E-1,-2.583665911E0,2.586072002E0
1.495243067E1,8.435493884E-2,1.165015692E-2,-2.298250451E0,2.299827519E0
1.496242967E1,3.264590491E-2,-1.381756079E-1,-1.853103678E0,1.858534771E0
1.497242767E1,8.663375409E-2,1.944953861E-2,-1.822745519E0,1.824906824E0
1.498242567E1,3.266364756E-2,-8.184640110E-3,-1.560969182E0,1.561332345E0
1.499242467E1,9.761822378E-2,-1.136467575E-2,-1.386602288E0,1.390080709E0
1.500242267E1,8.186305196E-3,5.360975817E-2,-1.254441766E0,1.255613462E0
1.501242167E1,7.032565950E-2,1.544447911E-2,-1.115689677E0,1.118010593E0
1.502241967E1,4.584287878E-2,-3.912022074E-2,-1.012106836E0,1.013899507E0
1.503241767E1,-1.625179230E-2,2.750691955E-2,-1.000279673E0,1.000789776E0
1.504241667E1,-9.103826407E-3,-8.128751691E-2,-8.384462857E-1,8.424266817E-1
1.505241467E1,3.229234023E-2,-1.350150234E-1,-7.450112879E-1,7.578348573E-1
1.506241267E1,-1.721236832E-1,4.052083902E-2,-6.593630272E-1,6.826625099E-1
1.507241167E1,-5.780278738E-2,-8.273497688E-2,-5.557538742E-1,5.648438787E-1
1.508240967E1,8.485060228E-3,-2.224328343E-2,-4.675924802E-1,4.681981284E-1
1.509240867E1,-4.651072673E-2,1.191241002E-1,-2.731690514E-1,3.016208375E-1
1.510240667E1,5.988451035E-3,1.139856037E-1,-1.205327493E-1,1.660021778E-1
1.511240467E1,3.463235938E-2,7.329779008E-2,-2.553537548E-2,8.499424538E-2
1.512240367E1,1.544480436E-1,6.344883140E-2,-1.778249377E-1,2.439296227E-1
1.513240167E1,5.708121356E-2,4.121747995E-3,-2.161896890E-1,2.236363910E-1
1.514240067E1,1.133671076E-2,5.737538332E-2,-1.457237238E-1,1.570218434E-1
1.515239867E1,6.128298161E-2,-1.382792498E-2,1.470463639E-1,1.599044980E-1
1.516239667E1,2.246706551E-1,-1.399250126E-1,3.055690581E-1,4.042627384E-1
1.517239567E1,9.035412271E-3,-1.256192970E-2,2.540890020E-1,2.545597409E-1
1.518239367E1,-3.047008973E-2,2.438051384E-2,1.494840682E-1,1.544937619E-1
1.519239167E1,1.473812358E-1,-1.291869574E-1,2.520676196E-1,3.192938826E-1
1.520239067E1,4.865480935E-2,-8.002069937E-3,4.883348930E-1,4.908179818E-1
1.521238867E1,-9.412979320E-2,1.769867211E-1,6.356701094E-1,6.665292232E-1
1.522238767E1,4.870278393E-2,1.808622008E-1,5.436442906E-1,5.750062708E-1
1.523238567E1,-4.662043512E-2,8.263868054E-2,4.815310729E-1,4.907899659E-1
1.524238367E1,-8.820300059E-2,3.314539143E-1,1.893088692E-1,3.917643611E-1
1.525238267E1,-6.649560991E-2,-1.548327173E-2,3.308910102E-1,3.378613006E-1
1.526238067E1,-4.408776848E-2,-5.716430797E-2,5.033189678E-1,5.084697364E-1
1.527237867E1,-1.035821279E-1,7.684837474E-2,7.407165080E-1,7.518616064E-1
1.528237767E1,2.136253972E-2,-1.341349809E-1,8.693090594E-1,8.798561200E-1
1.529237567E1,-5.651730899E-2,3.188111194E-2,7.834046906E-1,7.860874766E-1
1.530237467E1,-3.150329045E-3,8.983442858E-3,6.017112350E-1,6.017865379E-1
1.531237267E1,1.474527089E-2,8.654923442E-2,4.065376085E-1,4.159098702E-1
1.532237067E1,8.529762877E-2,3.594273412E-2,3.951823157E-1,4.058776026E-1
1.533236967E1,1.170503852E-1,1.628303379E-3,3.422100502E-1,3.616782583E-1
1.534236767E1,5.188324898E-2,1.378436231E-1,2.582387710E-1,2.972877374E-1
1.535236667E1,1.877888124E-1,-1.125415424E-1,2.621336013E-1,3.415322266E-1
1.536236467E1,1.048809955E-1,1.068897516E-2,2.883262038E-1,3.069955655E-1
1.537236267E1,1.866613048E-2,5.478796299E-2,4.683999807E-1,4.719625909E-1
1.538236167E1,1.080576325E-1,-6.668948622E-2,4.330757815E-1,4.513076246E-1
1.539235967E1,1.181006913E-2,2.720974395E-2,4.019405276E-1,4.030335415E-1
1.540235867E1,-2.836983610E-2,3.506141254E-2,4.866719449E-1,4.887573346E-1
1.541235667E1,1.497284407E-2,-3.834617729E-2,4.592888492E-1,4.611299843E-1
1.542235467E1,-7.555123391E-2,5.362558220E-2,5.080908805E-1,5.164688131E-1
1.543235367E1,-7.769517034E-2,9.193436472E-2,6.531316495E-1,6.641305734E-1
1.544235167E1,-7.204155235E-2,-7.200819581E-2,7.722739309E-1,7.789622519E-1
1.545234967E1,-1.035628230E-1,6.263328186E-2,7.245068568E-1,7.345463715E-1
1.546234867E1,-7.206884697E-2,1.325170929E-3,7.496416980E-1,7.530991636E-1
1.547234667E1,3.100128415E-2,-8.165857757E-2,7.931976074E-1,7.979922602E-1
1.548234567E1,-5.740412604E-2,7.374952404E-2,7.654917455E-1,7.711756210E-1
1.549234367E1,3.419898477E-2,-1.962892022E-3,7.928882897E-1,7.936279125E-1
1.550234167E1,5.526471206E-2,-2.435167062E-2,8.957291186E-1,8.977626892E-1
1.551234067E1,-5.085691188E-3,1.876341170E-1,9.166867089E-1,9.357066573E-1
1.552233867E1,9.701871973E-2,9.546814777E-2,8.835938072E-1,8.940161158E-1
1.553233767E1,1.559192762E-1,8.318688442E-2,6.487164170E-1,6.723569499E-1
1.554233567E1,9.382093230E-2,1.608383011E-1,4.785016304E-1,5.134541233E-1
1.555233371E1,7.004183200E-2,5.758262143E-2,3.829803461E-1,3.935677350E-1
1.556233271E1,1.030964436E-1,-4.340197231E-2,3.504856145E-1,3.679032126E-1
1.557233071E1,-1.102053742E-2,5.977476999E-2,4.018177360E-1,4.063889373E-1
1.558232971E1,-1.872013957E-2,-7.842343192E-2,4.969495958E-1,5.034476925E-1
1.559232771E1,1.454808725E-2,-1.107563071E0,2.170979955E0,2.437224152E0
1.560232571E1,-2.677251109E-1,9.539952338E-1,-9.322917581E-2,9.952262660E-1
1.561232471E1,-4.819960727E-1,1.591779477E0,-4.181595343E-1,1.714916766E0
1.562232271E1,3.078924857E-1,-9.816336701E-2,1.331165421E-1,3.495051404E-1
1.563232071E1,3.444598030E-1,-4.426792119E-1,2.586919302E-1,6.176883966E-1
1.564231971E1,-6.533867891E-2,-1.276565875E0,1.686276768E0,2.115991237E0
1.565231771E1,1.332220113E-1,2.222520091E-1,1.125396055E-1,2.825052613E-1
1.566231671E1,2.667484249E-1,2.809669165E-1,2.086567211E-1,4.400394955E-1
1.567231471E1,9.511754324E-2,-2.674263365E-2,4.242038012E-1,4.355586991E-1
1.568231271E1,-3.088528909E-1,3.358694027E-1,2.210422933E-1,5.070089341E-1
1.569231171E1,-2.663576482E-1,5.004260579E-1,1.760485536E-1,5.936040173E-1
1.570230971E1,6.775429617E-2,-2.926712515E-1,4.943791598E-1,5.784962055E-1
1.571230871E1,-5.127891640E-2,1.294865724E-1,1.887966532E-1,2.346070671E-1
1.572230671E1,-9.761729188E-2,8.005788401E-2,1.183891600E-1,1.730733766E-1
1.573230471E1,3.638292896E-1,-3.514278568E-1,1.789704072E-1,5.365665822E-1
1.574230371E1,1.643029774E-1,-1.940841075E-1,3.588664287E-1,4.398286290E-1
1.575230171E1,1.058864288E-2,-1.054332285E-1,3.015251237E-1,3.196023862E-1
1.576230071E1,-1.470314992E-1,1.355143117E-1,1.277259940E-1,2.372684555E-1
1.577229871E1,6.802188395E-2,-1.236979842E-1,3.004737943E-1,3.319829349E-1
1.578229671E1,1.958980052E-1,-1.240353777E-1,3.356629229E-1,4.079588228E-1
1.579229571E1,-3.273364969E-2,6.836659558E-2,2.572494221E-1,2.681841688E-1
1.580229371E1,7.410978104E-2,2.519293695E-1,1.572696358E-1,3.060954184E-1
1.581229171E1,1.072956215E-1,-3.048361827E-2,3.988742477E-1,4.141766131E-1
1.582229071E1,8.718599620E-2,2.159666543E-1,2.548696053E-1,3.452557160E-1
1.583228871E1,5.522484593E-2,1.556647944E-1,3.165384346E-1,3.570404633E-1
1.584228771E1,6.522694227E-2,2.251479158E-1,3.006451178E-1,3.812264744E-1
1.585228571E1,5.339514708E-2,1.782694723E-1,3.955156070E-1,4.371082725E-1
1.586228371E1,2.188387153E-2,-2.342299573E-2,4.948907912E-1,4.959278534E-1
1.587228271E1,-1.935402982E-1,2.397924867E-1,3.007223010E-1,4.305719290E-1
1.588228071E1,-2.005167208E-1,-5.528869478E-2,4.845295250E-1,5.272880197E-1
1.589227971E1,-9.057982067E-2,-8.360922698E-2,4.848230553E-1,5.002485399E-1
1.590227771E1,3.668672105E-1,2.275162939E-1,-5.540821552E-3,4.317243505E-1
1.591227571E1,2.199757246E-1,-2.745752337E-1,3.678226089E-1,5.089934676E-1
1.592227471E1,-5.046897013E-1,6.375875576E-1,3.428187454E-1,8.824705550E-1
1.593227271E1,-5.191988544E-2,-3.570838320E-1,7.167528641E-1,8.024582268E-1
1.594227171E1,-3.670916704E-2,3.695427867E-1,3.766893268E-1,5.289652947E-1
1.595226971E1,-2.739136030E-1,-2.371586449E-1,8.325172091E-1,9.079415114E-1
1.596226771E1,-6.789234071E-3,2.813108424E-1,4.435077989E-1,5.252438019E-1
1.597226671E1,1.405013745E-1,-4.482491234E-1,7.528529888E-1,8.873869143E-1
1.598226471E1,-5.334114713E-2,2.248246013E-1,3.852671921E-1,4.492462450E-1
1.599226271E1,3.358073125E-1,-9.685589304E-2,3.790083325E-1,5.155530344E-1
1.600226171E1,3.482031174E-1,-1.011655468E-1,4.814059424E-1,6.026869504E-1
1.601225971E1,4.701608605E-2,1.924431596E-1,4.903638768E-1,5.288682385E-1
1.602225871E1,1.969571735E-1,6.425733687E-3,5.123476535E-1,5.489385542E-1
