"Time (s)","Linear Acceleration x (m/s^2)","Linear Acceleration y (m/s^2)","Linear Acceleration z (m/s^2)","Absolute acceleration (m/s^2)"
5.649582017E-4,-3.944422044E-3,1.352975353E-2,-5.503867149E-2,5.681432967E-2
1.056395820E-2,-1.906868387E-2,2.028901605E-2,-4.814188063E-2,5.561384313E-2
2.056195820E-2,-2.713619694E-2,3.167363629E-4,-4.768638253E-2,5.486770075E-2
3.055995819E-2,-3.134648457E-2,-1.009132577E-2,-2.956176817E-2,4.425307999E-2
4.055895819E-2,-4.362381019E-2,-9.565862082E-4,-7.845209241E-3,4.433395065E-2
5.055695819E-2,-4.698153723E-2,-7.775919735E-3,-6.186354160E-3,4.802083658E-2
6.055495818E-2,-4.714763470E-2,-5.755935134E-3,-1.516241491E-2,4.985909218E-2
7.055395818E-2,-6.085741851E-2,8.337873705E-3,-1.201661289E-2,6.259029087E-2
8.055195818E-2,-5.780539121E-2,1.269372046E-2,-2.383968294E-2,6.380379515E-2
9.055095818E-2,-5.166479152E-2,1.614171389E-2,-4.315654457E-2,6.922638911E-2
1.005489582E-1,-4.722807046E-2,1.682738216E-2,-3.598201096E-2,6.171188332E-2
1.105469582E-1,-3.812070318E-2,2.639340869E-2,-3.105748594E-2,5.580651813E-2
1.205459582E-1,-2.799895361E-2,3.173912510E-2,-6.961694956E-3,4.289264112E-2
1.305439582E-1,-1.248705793E-2,2.586641011E-2,6.653546691E-3,2.948334227E-2
1.405429582E-1,9.414565377E-3,2.484615320E-2,-3.235264421E-3,2.676625312E-2
1.505409582E-1,1.802736785E-2,6.127452599E-3,-2.823152661E-2,3.405217705E-2
1.605389582E-1,1.195028353E-2,-7.182902433E-3,-5.337630808E-2,5.516732392E-2
1.705379582E-1,3.898484856E-3,-1.244757095E-2,-3.960728467E-2,4.169984659E-2
1.805359581E-1,-1.643659629E-2,-1.845384914E-2,-4.289458930E-2,4.950406082E-2
1.905349582E-1,-3.024647713E-2,-1.996893581E-2,-3.073881269E-3,3.637384393E-2
2.005329581E-1,-4.776597776E-2,4.141052943E-3,1.235048890E-2,4.951031737E-2
2.105309581E-1,-6.414300554E-2,1.834351949E-2,4.721041918E-3,6.688122385E-2
2.205299581E-1,-5.181170281E-2,2.005824289E-2,-4.118193984E-3,5.571126617E-2
2.305279581E-1,-4.031629611E-2,1.204311722E-2,-3.002369821E-2,5.169006538E-2
2.405269581E-1,-2.987375367E-2,-2.018952202E-3,-4.379681468E-2,5.305354185E-2
2.505249581E-1,-2.063953836E-2,-9.188223314E-3,-5.457674146E-2,5.906805143E-2
2.605229581E-1,-2.088698521E-2,-2.382917622E-2,-3.138025224E-2,4.459614357E-2
2.705219581E-1,-1.795047697E-2,-2.719861597E-2,-1.520860791E-2,3.596228703E-2
2.805199581E-1,-2.992001977E-2,-3.178910966E-2,3.520023823E-4,4.365637389E-2
2.905189581E-1,-2.763686478E-2,-2.313503863E-2,-4.150938392E-3,3.628025078E-2
3.005169581E-1,-2.573549643E-2,-1.324416272E-2,-1.373101652E-2,3.203536230E-2
3.105149581E-1,-3.044908315E-2,-2.409363482E-3,-2.032141328E-2,3.668666699E-2
3.205139581E-1,-1.966966800E-2,-1.959137013E-3,-2.810522676E-2,3.436041077E-2
3.305119583E-1,-8.899316043E-3,7.846835498E-3,-5.370141327E-2,5.499647662E-2
3.405099583E-1,4.774361216E-3,4.758244827E-3,-6.177875698E-2,6.214539591E-2
3.505089583E-1,2.334354669E-3,3.067613784E-3,-5.308920979E-2,5.322897390E-2
3.605069583E-1,6.873438545E-3,6.162983570E-3,-2.569325030E-2,2.730145847E-2
3.705059583E-1,-2.021017000E-3,1.029208627E-2,-2.104763746E-2,2.351626229E-2
3.805039583E-1,-1.205900520E-2,1.612927943E-2,-1.625116646E-2,2.587805388E-2
3.905019583E-1,-1.810188331E-2,9.181462470E-3,-4.719872475E-3,2.083877704E-2
4.005009583E-1,-3.938604064E-2,6.413043402E-3,7.404913902E-3,4.058595906E-2
4.104989583E-1,-3.947831701E-2,8.725306559E-3,-9.064353704E-3,4.143465937E-2
4.204979583E-1,-4.741865315E-2,-8.726667864E-3,-3.495933294E-2,5.955533862E-2
4.304959583E-1,-5.762920730E-2,4.402642753E-3,-3.585629582E-2,6.801604772E-2
4.404939583E-1,-6.096745580E-2,5.715041170E-3,-7.986653388E-2,1.006397317E-1
4.504929583E-1,-4.852282673E-2,1.499027836E-2,-8.720478952E-2,1.009150557E-1
4.604909583E-1,-3.742419016E-2,1.469407121E-2,-4.454935133E-2,6.000941961E-2
4.704899583E-1,-2.508130264E-2,1.771980431E-2,-8.179669976E-3,3.178002844E-2
4.804879583E-1,-1.132927269E-2,2.743302536E-2,4.510659099E-2,5.399562807E-2
4.904859583E-1,1.358772319E-2,1.184076701E-2,9.240296423E-2,9.414423925E-2
5.004849583E-1,2.494681668E-2,-3.469299227E-2,1.554230851E-1,1.611902068E-1
5.104829583E-1,5.535851419E-3,-4.640101835E-2,1.009434074E-1,1.112352087E-1
5.204809583E-1,3.921069726E-3,-4.587814936E-2,-7.238969922E-2,8.579305292E-2
5.304799583E-1,-8.363674544E-3,-2.668236164E-2,-2.075457501E-1,2.094209585E-1
5.404779583E-1,-4.033219323E-2,-2.678878097E-2,-1.918196636E-1,1.978360633E-1
5.504769583E-1,-1.103946641E-1,2.637276985E-3,-1.081413299E-1,1.545589995E-1
5.604749583E-1,-1.252596384E-1,1.802522996E-2,6.214420795E-3,1.267024268E-1
5.704729583E-1,-1.204956926E-1,1.339290127E-2,1.088833416E-1,1.629544838E-1
5.804719583E-1,-8.395161800E-2,1.513332501E-3,1.143972659E-1,1.419045411E-1
5.904699583E-1,-3.103435289E-2,-1.878137545E-2,3.354489148E-2,4.940780168E-2
6.004689999E-1,4.657555774E-2,-3.343414156E-2,-8.143651128E-2,9.959432599E-2
6.104669999E-1,9.488444947E-2,-2.051275427E-2,-1.746890759E-1,1.998502066E-1
6.204649999E-1,1.212895983E-1,-1.164568928E-2,-1.787148839E-1,2.163002507E-1
6.304639999E-1,9.177833542E-2,1.649983758E-3,-9.111306846E-2,1.293351327E-1
6.404619999E-1,5.418384511E-2,1.578761931E-2,-5.601047873E-3,5.671428155E-2
6.504609999E-1,1.312590279E-2,2.978992836E-2,2.647034526E-2,4.195722028E-2
6.604589999E-1,-4.066172037E-2,4.770788932E-2,4.011599243E-2,7.442251713E-2
6.704569999E-1,-8.667517796E-2,5.525747613E-2,3.069788218E-2,1.072769086E-1
6.804559999E-1,-9.973445904E-2,5.026063750E-2,-6.210269272E-2,1.277882563E-1
6.904539999E-1,-8.722587604E-2,3.324644594E-2,-1.064146471E-1,1.415547835E-1
7.004519999E-1,-7.783700187E-2,3.028739850E-2,-6.810369015E-2,1.077684461E-1
7.104509999E-1,-5.554694071E-2,2.807350561E-2,-3.682868779E-2,7.231830048E-2
7.204489999E-1,-4.785715777E-2,3.079936791E-2,7.322468162E-3,5.738054683E-2
7.304479999E-1,-3.325772010E-2,3.942440386E-2,4.309339464E-2,6.721160783E-2
7.404459999E-1,-2.138633743E-2,3.542384855E-2,5.535968363E-2,6.911525914E-2
7.504439999E-1,-1.081767786E-2,2.564315611E-2,1.104597509E-2,2.994339952E-2
7.604429999E-1,-1.211396903E-2,8.411438987E-3,-8.866250038E-2,8.988069607E-2
7.704409999E-1,-2.917146653E-2,5.735552106E-3,-1.253409147E-1,1.288185387E-1
7.804399999E-1,-4.129036915E-2,2.030536084E-2,-9.451673269E-2,1.051219055E-1
7.904379999E-1,-5.301955484E-2,2.055842651E-2,-7.477127016E-2,9.393862324E-2
8.004359999E-1,-4.132223647E-2,3.078535287E-2,-2.989622891E-2,5.957390101E-2
8.104349999E-1,-1.188230965E-2,3.866107726E-2,3.908571303E-2,5.624554330E-2
8.204329999E-1,1.779603738E-2,-1.582338782E-3,4.057324469E-2,4.433272975E-2
8.304319999E-1,5.754888117E-2,-3.210182606E-2,-1.916015625E-2,6.862588832E-2
8.404299999E-1,8.969223160E-2,-4.654506999E-2,-4.070656121E-2,1.089411037E-1
8.504279999E-1,8.170752972E-2,-8.008538419E-2,-4.532352269E-2,1.230610047E-1
8.604269999E-1,3.874021567E-2,-8.930482616E-2,-3.331918895E-2,1.028898665E-1
8.704249999E-1,-1.542645324E-2,-6.408442374E-2,1.027706623E-2,6.671137022E-2
8.804239999E-1,-5.427513476E-2,-2.375109762E-2,9.704039097E-3,6.003393429E-2
8.904219999E-1,-1.111174165E-1,1.398100326E-2,3.187551141E-2,1.164413884E-1
9.004199998E-1,-1.465592178E-1,2.658405533E-2,4.623744249E-2,1.559622307E-1
9.104189998E-1,-1.468885988E-1,2.353334365E-2,1.120443463E-2,1.491831695E-1
9.204169998E-1,-1.276174551E-1,7.025584923E-3,-3.357237339E-2,1.321464261E-1
9.304149998E-1,-9.842424419E-2,-4.185973263E-2,-7.012799621E-2,1.278964617E-1
9.404139998E-1,-6.017716806E-2,-6.414679709E-2,-1.065292525E-1,1.381469680E-1
9.504119998E-1,-6.300996132E-3,-4.895529228E-2,-8.469282568E-2,9.802651639E-2
9.604109998E-1,2.947786063E-2,-2.899798695E-2,-3.436408639E-3,4.149260680E-2
9.704089998E-1,5.672387559E-2,6.583891734E-3,5.074213743E-2,7.639182027E-2
9.804069998E-1,8.415287185E-2,2.954235359E-2,6.961051762E-2,1.131374415E-1
9.904059998E-1,9.227637202E-2,5.163485195E-2,2.307603657E-2,1.082293409E-1
1.000404000E0,7.916289456E-2,5.703258117E-2,-4.979430377E-2,1.095397274E-1
1.010403000E0,4.505842455E-2,3.738695984E-2,-1.205649090E-1,1.340296373E-1
1.020401000E0,9.701005854E-3,2.147274831E-2,-1.597494400E-1,1.614777756E-1
1.030399000E0,-4.481192786E-2,2.359534241E-2,-1.175109082E-1,1.279596132E-1
1.040398000E0,-1.095517148E-1,2.052052011E-2,-2.139203846E-2,1.134913621E-1
1.050396000E0,-1.326451834E-1,3.675183345E-2,4.776122689E-2,1.456934341E-1
1.060395000E0,-1.278800681E-1,5.337378647E-2,6.945615113E-2,1.550039672E-1
1.070393000E0,-1.015856510E-1,5.739214838E-2,6.030467391E-2,1.313398526E-1
1.080391000E0,-6.815945797E-2,3.795081415E-2,-1.958817244E-4,7.801291159E-2
1.090390000E0,-3.610370614E-2,-1.040648156E-2,-4.333313048E-2,5.735444754E-2
1.100388000E0,-1.032936227E-2,-2.948815721E-2,-9.843962967E-2,1.032792711E-1
1.110386000E0,1.174120903E-3,-3.855349763E-2,-9.545462608E-2,1.029530785E-1
1.120385000E0,-1.916702673E-2,-2.565686965E-2,-4.861550510E-2,5.821612500E-2
1.130383000E0,-3.315067951E-2,1.759190560E-2,7.959814668E-3,3.836406318E-2
1.140382000E0,-2.141981274E-2,4.999854519E-2,3.295022964E-2,6.359544428E-2
1.150380000E0,-1.733586151E-2,5.857181501E-2,3.002545238E-3,6.115721450E-2
1.160378000E0,-6.742278188E-3,2.686417351E-2,-6.583964825E-3,2.846911882E-2
1.170377000E0,1.857291307E-2,-6.061580060E-3,-3.623285651E-2,4.116449616E-2
1.180375000E0,4.132194411E-2,-5.107387556E-2,-8.188440800E-2,1.049814274E-1
1.190374000E0,4.443043359E-2,-9.221007921E-2,-4.744372308E-2,1.128169712E-1
1.200372000E0,2.365359530E-2,-1.052799127E-1,-1.270015240E-2,1.086491898E-1
1.210370000E0,3.796743304E-3,-7.303137632E-2,-5.195835829E-3,7.331434987E-2
1.220369000E0,-1.237935953E-2,-3.450503170E-2,-1.565708935E-2,3.986213995E-2
1.230367000E0,-4.499242410E-2,1.225500570E-2,-1.952853084E-2,5.055558236E-2
1.240365000E0,-7.278274175E-2,4.444370859E-2,5.034452677E-3,8.542784349E-2
1.250364000E0,-1.025017269E-1,4.172671761E-2,2.509858847E-2,1.134797873E-1
1.260362000E0,-1.188207942E-1,1.263071671E-2,3.766834795E-2,1.252869529E-1
1.270361000E0,-1.129527844E-1,-1.943680264E-2,-2.372332335E-2,1.170423721E-1
1.280359000E0,-9.148590155E-2,-3.905803012E-2,-4.619241893E-2,1.096765219E-1
1.290357000E0,-5.760300446E-2,-4.738251918E-2,-4.949317217E-2,8.951415161E-2
1.300356000E0,-2.738992956E-2,-2.261307414E-2,-3.618257046E-2,5.070244341E-2
1.310354000E0,1.339549597E-2,1.310271492E-2,1.604592919E-2,2.466966344E-2
1.320353000E0,3.544461530E-2,2.541897020E-2,6.364811182E-2,7.715910146E-2
1.330351000E0,4.347912814E-2,1.981647880E-2,6.185535550E-2,7.816145099E-2
1.340349000E0,3.021497525E-2,8.546135081E-3,2.683345735E-2,4.130394155E-2
1.350348000E0,2.602230236E-2,1.363990959E-3,-4.440901816E-2,5.148962600E-2
1.360346000E0,-7.829165943E-3,-5.083249519E-3,-1.321184224E-1,1.324477739E-1
1.370344000E0,-4.445203174E-2,2.874184236E-2,-1.680437154E-1,1.761839008E-1
1.380343000E0,-6.437331274E-2,5.545555056E-2,-1.902040780E-1,2.083190648E-1
1.390341000E0,-6.303283855E-2,8.703935900E-2,-1.843662179E-1,2.134007756E-1
1.400340000E0,-5.862849645E-2,9.271063741E-2,-4.800388634E-2,1.197369450E-1
1.410338000E0,-3.825467750E-2,7.123674707E-2,8.102018952E-2,1.144655651E-1
1.420336000E0,-1.165200245E-2,1.887101144E-2,1.248678750E-1,1.268222001E-1
1.430335000E0,3.558651991E-2,-2.911090217E-2,9.716902971E-2,1.074972807E-1
1.440333000E0,6.421525519E-2,-6.337513821E-2,-5.957728028E-3,9.041848078E-2
1.450332000E0,7.833851025E-2,-6.709656207E-2,-1.259852779E-1,1.628224833E-1
1.460330000E0,4.745713513E-2,-3.637647875E-2,-1.535028595E-1,1.647378395E-1
1.470328000E0,4.864919968E-3,3.721099519E-2,-1.265407634E-1,1.319882207E-1
1.480327000E0,-5.291532822E-2,6.217161678E-2,-2.608033597E-2,8.570604307E-2
1.490325000E0,-1.358143012E-1,8.249530499E-2,7.167283058E-2,1.743215259E-1
1.500324000E0,-1.554316732E-1,8.430802407E-2,8.918173313E-2,1.980409793E-1
1.510322000E0,-1.378401056E-1,2.203664831E-2,3.721811235E-2,1.444669390E-1
1.520320000E0,-1.071712037E-1,-3.160209012E-2,-1.459991276E-2,1.126832572E-1
1.530319000E0,-5.901536286E-2,-6.146283374E-2,-6.298269868E-2,1.059590172E-1
1.540317000E0,-3.212058283E-3,-8.640768612E-2,-1.052177221E-1,1.361887461E-1
1.550315000E0,4.225497700E-2,-8.142290737E-2,-7.274988770E-2,1.170799688E-1
1.560314000E0,5.544585697E-2,-4.800860980E-2,-1.287849247E-2,7.446425477E-2
1.570312000E0,6.779521298E-2,-4.497934096E-3,1.452097535E-2,6.947863728E-2
1.580311000E0,5.948346902E-2,1.450149681E-2,2.861802757E-2,6.758378502E-2
1.590309000E0,3.173484933E-2,1.138504051E-2,1.277850509E-2,3.605565145E-2
1.600306375E0,1.058744375E-2,9.104169589E-3,-2.986114562E-2,3.296464601E-2
1.610305375E0,-1.205081910E-2,-7.791506220E-3,-8.223114789E-2,8.347389707E-2
1.620303375E0,-4.166791655E-2,-8.494661311E-3,-9.523769438E-2,1.043004936E-1
1.630302375E0,-6.549053293E-2,-4.638486542E-5,-4.778110743E-2,8.106815825E-2
1.640300375E0,-6.412897222E-2,8.064808734E-3,-7.662191391E-3,6.508667601E-2
1.650298375E0,-5.709188472E-2,1.871917569E-2,1.044488132E-2,6.098349273E-2
1.660297375E0,-4.937356006E-2,1.570087038E-2,1.418008268E-2,5.371536567E-2
1.670295375E0,-2.975998878E-2,-7.499337299E-3,1.007475257E-3,3.070687218E-2
1.680293375E0,-1.485846933E-2,-3.309778961E-2,-2.473313749E-2,4.390860825E-2
1.690292375E0,-2.048202898E-2,-3.360869008E-2,-2.697905302E-2,4.771715480E-2
1.700290375E0,-3.569630139E-2,-1.682641371E-2,-3.790399075E-2,5.471806507E-2
1.710289375E0,-4.406209555E-2,1.157682004E-2,-4.538725734E-2,6.430780788E-2
1.720287375E0,-4.886189215E-2,5.339198593E-2,-3.370568991E-2,7.983897668E-2
1.730285375E0,-3.908505522E-2,8.294842766E-2,-2.967695832E-2,9.637844701E-2
1.740284375E0,-3.324836455E-2,9.946097380E-2,-3.898397148E-2,1.118824789E-1
1.750282375E0,-9.021230489E-3,6.929380867E-2,-5.800788760E-2,9.081811242E-2
1.760280375E0,2.995967120E-3,3.135266069E-2,-5.622214794E-2,6.444295982E-2
1.770279375E0,7.072390057E-3,-4.973148275E-3,-5.907441974E-2,5.970375174E-2
1.780277375E0,1.467384350E-2,-4.651978992E-2,-3.347530961E-2,5.916087297E-2
1.790276375E0,1.305599201E-2,-5.705842769E-2,-3.380860090E-3,5.863065165E-2
1.800274375E0,-7.243311480E-3,-4.728974945E-2,9.957223535E-3,4.886647383E-2
1.810272375E0,-3.130540788E-2,1.560849351E-2,2.314503372E-2,4.194456124E-2
1.820271375E0,-3.433813937E-2,6.091610994E-2,3.272920489E-2,7.720803792E-2
1.830269375E0,-3.488638893E-2,7.754283210E-2,-3.520023823E-4,8.502984681E-2
1.840268375E0,-3.867341124E-2,5.734649442E-2,-1.043856633E-1,1.252222818E-1
1.850266375E0,-2.432233404E-2,1.072875450E-2,-1.786306840E-1,1.805979052E-1
1.860264375E0,-2.794062763E-2,-9.888116755E-3,-1.307361406E-1,1.340536907E-1
1.870263375E0,-5.609424010E-2,-3.500336065E-2,9.808704257E-3,6.684317249E-2
1.880261375E0,-7.365755830E-2,-5.055125325E-2,9.256551683E-2,1.286438495E-1
1.890259375E0,-4.802811574E-2,-2.772176818E-2,1.115672135E-1,1.245890825E-1
1.900258375E0,-3.751719743E-2,-1.133779683E-2,8.700481474E-2,9.542496282E-2
1.910256375E0,-2.260873441E-2,-1.184700709E-2,7.683241367E-4,2.553618551E-2
1.920255375E0,3.948405460E-3,1.301983064E-3,-1.001347375E-1,1.002210094E-1
1.930253375E0,1.280737571E-2,-2.164169630E-2,-1.290316772E-1,1.314593687E-1
1.940251375E0,1.361747090E-2,-3.776134609E-2,-1.157123047E-1,1.224773131E-1
1.950250375E0,4.685483538E-3,-4.675165943E-2,-3.801918089E-2,6.044112450E-2
1.960248375E0,7.505632192E-3,-2.419269031E-2,4.671808362E-2,5.314320386E-2
1.970247375E0,1.524522610E-2,1.282632435E-3,7.756799340E-2,7.906235302E-2
1.980245375E0,1.437114045E-2,1.245877203E-2,5.363533974E-2,5.690782325E-2
1.990243375E0,2.739519205E-2,1.634348852E-2,-3.437227249E-2,4.689412842E-2
2.000242375E0,3.833712325E-2,2.890105108E-3,-1.449752802E-1,1.499863980E-1
2.010240375E0,6.164134741E-3,-3.863438107E-3,-1.864220989E-1,1.865639881E-1
2.020238375E0,-4.794490255E-2,-1.689626967E-2,-9.075346470E-2,1.040210987E-1
2.030237375E0,-1.059370027E-1,-3.365921368E-2,6.673251808E-2,1.296488340E-1
2.040235375E0,-1.199240541E-1,-1.432171321E-2,1.278131175E-1,1.758496040E-1
2.050234375E0,-1.188988545E-1,-8.653312717E-3,8.320061624E-2,1.453759264E-1
2.060232375E0,-9.559583634E-2,1.667640522E-2,1.956829190E-2,9.899285057E-2
2.070230375E0,-5.323900815E-2,4.744084516E-2,-6.682022631E-2,9.772393986E-2
2.080229375E0,-9.006246999E-3,4.283551415E-2,-1.419797516E-1,1.485740341E-1
2.090227375E0,1.128998671E-2,3.050539001E-2,-1.136973542E-1,1.182587459E-1
2.100226375E0,3.042236868E-2,1.932449955E-2,-5.202969432E-2,6.329333212E-2
2.110224375E0,2.800056159E-2,-7.609429406E-3,2.452906966E-3,2.911960882E-2
2.120222375E0,2.713652585E-2,-4.226979604E-3,4.466571093E-2,5.243361636E-2
2.130221375E0,2.595509592E-2,1.070384902E-2,4.916923642E-2,5.662025431E-2
2.140219375E0,1.662005268E-2,1.750413341E-2,-6.511459351E-3,2.500039881E-2
2.150217375E0,3.135825209E-3,3.685350191E-2,-7.012331843E-2,7.927984480E-2
2.160216375E0,-4.390856959E-3,2.983430324E-2,-1.177214080E-1,1.215224061E-1
2.170214375E0,-3.325413868E-2,1.386440612E-2,-1.409155583E-1,1.454484585E-1
2.180213375E0,-6.333590705E-2,-3.240325917E-3,-7.160441816E-2,9.565108224E-2
2.190211375E0,-9.189275812E-2,-4.812742705E-3,3.137966752E-2,9.722203979E-2
2.200209375E0,-8.025394846E-2,-1.357979290E-3,9.319701612E-2,1.229968462E-1
2.210208375E0,-5.439036146E-2,7.456817077E-3,5.067489445E-2,7.471184958E-2
2.220206375E0,-3.728393007E-2,7.921670722E-3,2.161715627E-3,3.817744521E-2
2.230204375E0,-9.479688741E-3,-2.238798374E-3,-4.933354318E-2,5.028593441E-2
2.240203375E0,-2.061362788E-3,-1.330132839E-2,-9.035117626E-2,9.134828737E-2
2.250201375E0,-7.329959907E-3,-1.659046942E-2,-8.272582233E-2,8.469081218E-2
2.260200375E0,-2.251645803E-2,-2.169111441E-2,-3.497804403E-2,4.691437830E-2
2.270198375E0,-3.213859957E-2,-1.731999180E-2,1.112374306E-2,3.816555198E-2
2.280196375E0,-3.368559010E-2,-7.057470521E-3,2.683755040E-2,4.364379661E-2
2.290195375E0,-2.363207024E-2,6.492793942E-3,2.053659081E-2,3.197471937E-2
2.300193375E0,-2.474870570E-3,5.853985632E-3,-2.123299420E-2,2.216380326E-2
2.310191375E0,2.291706540E-2,-2.549596159E-3,-5.926270008E-2,6.359056493E-2
2.320190375E0,3.213242345E-2,-1.304087148E-2,-8.201830924E-2,8.904807699E-2
2.330188375E0,2.936694626E-2,-2.174302672E-2,-5.461474836E-2,6.571109101E-2
2.340187375E0,1.594173912E-2,-3.090573242E-2,-1.657685637E-2,3.852396020E-2
2.350185375E0,-4.248550348E-3,-1.576681601E-2,8.736909628E-3,1.851961816E-2
2.360183375E0,-2.556205340E-2,-4.838570952E-4,2.282811463E-2,3.427499831E-2
2.370182375E0,-3.783714976E-2,1.780543861E-2,1.041973829E-2,4.309587558E-2
2.380180375E0,-4.949700940E-2,1.806228669E-2,-1.261478305E-2,5.417871253E-2
2.390179375E0,-5.866829406E-2,2.245381974E-2,-4.239406765E-2,7.578522099E-2
2.400177375E0,-6.815185659E-2,7.268637232E-4,-3.670589626E-2,7.741141200E-2
2.410175375E0,-6.406121761E-2,-1.576416649E-2,-1.381287754E-2,6.740284958E-2
2.420174375E0,-4.507578347E-2,-3.964689041E-2,-1.336615026E-2,6.150086298E-2
2.430172375E0,-3.147676785E-2,-5.135532763E-2,-1.755392611E-2,6.273991482E-2
2.440170375E0,-1.601066317E-2,-7.109949281E-3,-3.408926725E-4,1.752167007E-2
2.450169375E0,1.052122403E-2,1.240080236E-2,-2.787835479E-2,3.227504795E-2
2.460167375E0,2.863739647E-2,2.357576338E-2,-9.852382958E-2,1.052751732E-1
2.470166375E0,1.948083948E-2,5.311640848E-2,-8.788131237E-2,1.045178503E-1
2.480164375E0,-6.505027413E-5,3.174160103E-2,-3.951314449E-2,5.068354817E-2
2.490162375E0,-2.380430728E-2,-5.176485199E-3,-8.808830380E-3,2.590437293E-2
2.500161375E0,-7.122281425E-2,4.845432295E-3,2.367771506E-2,7.521171235E-2
2.510159375E0,-7.782739051E-2,4.540984221E-3,3.565164328E-2,8.572492589E-2
2.520157375E0,-6.283582393E-2,9.179041358E-3,-2.368122339E-3,6.354686123E-2
2.530156375E0,-5.622934733E-2,3.652603042E-2,-3.621239126E-2,7.620516833E-2
2.540154375E0,-3.098742899E-2,4.005799536E-2,-6.660972655E-2,8.367627751E-2
2.550153375E0,-1.027136520E-3,4.228374713E-2,-1.050879139E-1,1.132803598E-1
2.560151375E0,1.635637980E-2,2.077930508E-2,-5.404406011E-2,6.016702679E-2
2.570149375E0,1.078749161E-2,-5.065333284E-4,8.225862980E-3,1.357539587E-2
2.580148375E0,-9.991429746E-5,-6.795570077E-3,1.930224359E-2,2.046378174E-2
2.590146375E0,-4.327889755E-3,-1.233359593E-2,2.469630003E-2,2.794200160E-2
2.600145708E0,-1.169344459E-2,4.164405260E-4,-6.284002662E-3,1.328151943E-2
2.610143708E0,-1.598910157E-2,3.925012942E-2,-6.435737908E-2,7.705904405E-2
2.620141708E0,-2.074164536E-2,5.357617322E-2,-7.048935413E-2,9.093608324E-2
2.630140708E0,-3.257856600E-2,4.862849688E-2,-5.552340567E-2,8.067801590E-2
2.640138708E0,-3.674949456E-2,2.224595122E-2,-4.489609122E-2,6.213748227E-2
2.650136708E0,-4.698570337E-2,-2.259725011E-2,1.054837704E-3,5.214791191E-2
2.660135708E0,-4.649223492E-2,-4.850077176E-2,1.871109009E-2,6.974207956E-2
2.670133708E0,-4.014022183E-2,-6.773275740E-2,1.196749628E-2,7.963783524E-2
2.680132708E0,-2.558694061E-2,-5.042721919E-2,-1.452682257E-2,5.838342692E-2
2.690130708E0,-5.900169499E-3,-2.819530129E-2,-4.850148439E-2,5.641082346E-2
2.700128708E0,6.428648159E-4,8.741697036E-3,-6.137646854E-2,6.199920510E-2
2.710127708E0,-1.600236744E-3,2.809020672E-2,-5.284421146E-2,5.986761358E-2
2.720125708E0,5.177234374E-3,2.663458806E-2,-2.649782717E-2,3.792545164E-2
2.730123708E0,-1.754804235E-2,8.198563792E-3,-1.002329707E-2,2.180863872E-2
2.740122708E0,-1.876192432E-2,-1.965752590E-2,2.708430290E-3,2.730867487E-2
2.750120708E0,-2.208793022E-2,-3.323511695E-2,-2.373969555E-3,3.997606023E-2
2.760119708E0,-2.036830064E-2,-3.105189454E-2,-2.482259989E-2,4.466821342E-2
2.770117708E0,-1.994598549E-2,-2.134765444E-2,-2.946411967E-2,4.149336134E-2
2.780115708E0,-2.564767856E-2,1.610542461E-3,-4.726655245E-2,5.380078292E-2
2.790114708E0,-2.580365304E-2,2.309578920E-2,-3.259179533E-2,4.755490628E-2
2.800112708E0,-3.019118439E-2,1.947719411E-2,-2.181420743E-2,4.203246783E-2
2.810110708E0,-3.321357362E-2,2.304980633E-2,-3.154280484E-2,5.127751536E-2
2.820109708E0,-3.155815378E-2,1.117025583E-2,-2.390517175E-2,4.113573777E-2
2.830107708E0,-3.368668646E-2,1.195018304E-2,-2.076346278E-2,4.133667991E-2
2.840106708E0,-3.201745257E-2,2.372293049E-2,-3.079319179E-2,5.035985862E-2
2.850104708E0,-2.767289825E-2,3.917082656E-2,-4.201984584E-2,6.376370751E-2
2.860102708E0,-1.901291605E-2,4.966475140E-2,-4.666136563E-2,7.074857985E-2
2.870101708E0,-2.131766919E-2,6.372821867E-2,-6.223425508E-2,9.159056382E-2
2.880099708E0,-1.284329955E-2,5.003028461E-2,-6.298152924E-2,8.145337774E-2
2.890097708E0,-1.551960669E-2,3.144304586E-2,-4.861492038E-2,5.994108614E-2
2.900096708E0,-3.819788642E-2,2.574606710E-2,-2.812218368E-2,5.397032252E-2
2.910094708E0,-3.564082593E-2,6.364785600E-3,3.152818680E-3,3.634170104E-2
2.920093708E0,-4.543706831E-2,2.218419001E-2,2.813446283E-2,5.786374911E-2
2.930091708E0,-4.755832851E-2,2.957444932E-2,2.436300874E-2,6.107371659E-2
2.940089708E0,-3.339480076E-2,3.193211976E-2,-5.747228265E-3,4.656075196E-2
2.950088708E0,-1.589064907E-2,2.600157215E-2,-3.689476132E-2,4.785204171E-2
2.960086708E0,-1.999554064E-2,2.950963659E-2,-4.125327587E-2,5.452039130E-2
2.970085708E0,-2.990883697E-2,1.377832415E-2,-8.169144988E-2,8.807879273E-2
2.980083708E0,-3.466667980E-3,3.132937233E-2,-1.430731809E-1,1.465042063E-1
2.990081708E0,-1.873323642E-2,1.106244779E-2,-7.572787464E-2,7.879100770E-2
3.000080708E0,-7.013201617E-2,1.686017225E-2,3.920850456E-2,8.209794108E-2
3.010078708E0,-1.068885639E-2,-8.012512699E-6,1.044616771E-1,1.050071126E-1
3.020076708E0,-2.249153428E-2,-5.354149193E-2,1.188206846E-1,1.322532251E-1
3.030075708E0,5.705347583E-3,-5.438199263E-2,9.381331265E-2,1.085858635E-1
3.040073708E0,3.583323587E-2,-6.779463739E-2,-1.082670450E-2,7.744256699E-2
3.050071708E0,6.896293849E-2,-4.807464679E-2,-1.459880179E-1,1.684623398E-1
3.060070708E0,7.876075231E-2,-5.711966814E-2,-1.986626601E-1,2.212075160E-1
3.070068708E0,2.318735294E-2,-5.956881096E-2,-1.622707593E-1,1.744072702E-1
3.080067708E0,-2.456185061E-2,-4.410393055E-2,-4.179005027E-3,5.065476560E-2
3.090065708E0,-7.255385980E-2,-6.202526280E-2,1.155830812E-1,1.499021163E-1
3.100063708E0,-1.075308440E-1,-5.987328644E-2,1.382012808E-1,1.850602250E-1
3.110062708E0,-1.180834237E-1,-2.069984690E-2,8.849877834E-2,1.490107795E-1
3.120060708E0,-8.643233579E-2,-1.632229236E-2,9.009389877E-3,8.842021830E-2
3.130059708E0,-7.376956902E-2,-3.453043967E-2,-6.091161489E-2,1.017080400E-1
3.140057708E0,-4.063877005E-2,4.634174220E-3,-1.269424671E-1,1.333693186E-1
3.150055708E0,-1.142739628E-2,-2.143421151E-2,-9.506520152E-2,9.811933219E-2
3.160054708E0,3.726284355E-3,-2.607299041E-2,-4.222391367E-2,4.976489636E-2
3.170052708E0,-9.470333196E-3,1.094343868E-2,2.873321772E-2,3.217209756E-2
3.180050708E0,-2.661616020E-3,4.313783348E-4,9.190302730E-2,9.194257291E-2
3.190049708E0,-1.780853581E-2,4.286960159E-2,7.333694816E-2,8.679432385E-2
3.200047708E0,-6.501409449E-3,8.067845631E-2,-2.106751800E-3,8.096740110E-2
3.210046708E0,-6.903442070E-3,7.202549991E-2,-4.043466568E-2,8.288722663E-2
3.220044708E0,-1.837958951E-2,7.967531165E-2,-1.060030031E-1,1.338753199E-1
3.230042708E0,2.407335229E-2,5.541669399E-2,-1.654253322E-1,1.761138177E-1
3.240041708E0,3.328384984E-2,1.764347987E-2,-1.158736879E-1,1.218434183E-1
3.250039708E0,4.743005522E-2,-1.439968217E-4,-5.719278574E-2,7.430104719E-2
3.260037708E0,5.142260715E-2,-8.338038158E-4,1.228090703E-2,5.287532915E-2
3.270036708E0,5.138174973E-2,-9.121948779E-3,3.205969870E-2,6.124637488E-2
3.280034708E0,6.062173918E-2,3.646763136E-2,9.046227336E-3,7.132122844E-2
3.290033708E0,1.279882416E-2,4.626612126E-2,6.688629985E-3,4.846753189E-2
3.300031708E0,-3.899888188E-2,5.313428817E-2,-2.367245257E-2,7.003249516E-2
3.310029708E0,-6.767647795E-2,5.478778026E-2,-4.849212885E-2,9.966590738E-2
3.320028708E0,-1.260581854E-1,-7.920108419E-3,-7.288671255E-2,1.458282109E-1
3.330026708E0,-1.972771258E-1,-3.651033430E-2,-3.787416995E-2,2.041708148E-1
3.340024708E0,-2.021192782E-1,-5.946643900E-2,-1.830763221E-3,2.106936441E-1
3.350023708E0,-2.076997146E-1,-6.326962338E-2,6.114257991E-2,2.255673553E-1
3.360021708E0,-1.698911431E-1,-2.373981432E-2,7.784865975E-2,1.883799170E-1
3.370020708E0,-7.520827644E-2,1.493281120E-2,7.737035751E-3,7.706578629E-2
3.380018708E0,2.490098912E-2,3.788168910E-2,-2.868351638E-2,5.364537017E-2
3.390016708E0,1.129101728E-1,3.901047581E-2,-7.946424544E-2,1.434750523E-1
3.400015708E0,1.800567103E-1,2.648025812E-2,-1.224424499E-1,2.193485275E-1
3.410013708E0,2.219983131E-1,-1.435422921E-2,-1.472784984E-1,2.667962725E-1
3.420011708E0,1.849054042E-1,-4.295772096E-2,-8.542080402E-2,2.081636089E-1
3.430010708E0,1.179559179E-1,-6.293799489E-2,-4.542701840E-3,1.337737863E-1
3.440008708E0,5.941293698E-2,-2.627009640E-2,8.537519574E-3,6.552025859E-2
3.450007708E0,-2.288706187E-2,4.231447242E-3,1.368482351E-2,2.699994706E-2
3.460005708E0,-1.149204455E-1,5.409418171E-2,3.093001664E-2,1.307270256E-1
3.470003708E0,-1.654168903E-1,8.182932540E-2,-1.591670573E-2,1.852353303E-1
3.480002708E0,-1.707744016E-1,7.914389111E-2,-6.636940598E-2,1.995809355E-1
3.490000708E0,-1.928708834E-1,3.751323229E-2,-4.380266190E-2,2.013084535E-1
3.499998708E0,-1.712904549E-1,-1.850589850E-2,-3.546453238E-2,1.758994636E-1
3.509997708E0,-1.150867623E-1,-4.764748941E-2,1.909115911E-3,1.245748402E-1
3.519995708E0,-6.603300836E-2,-5.154300498E-2,5.261207700E-2,9.891951375E-2
3.529994708E0,-1.380703032E-2,1.028653141E-3,4.284430325E-2,4.502584296E-2
3.539992708E0,2.009030208E-2,5.661667968E-2,-1.063374639E-2,6.100938631E-2
3.549990708E0,5.491767067E-2,9.770711973E-2,-5.691387355E-2,1.257052935E-1
3.559989708E0,7.039718740E-2,1.174908541E-1,-1.058731949E-1,1.731155631E-1
3.569987708E0,6.240912337E-2,1.031319471E-1,-1.247450835E-1,1.734717068E-1
3.579985708E0,3.161001127E-2,7.144327255E-2,-5.095789969E-2,9.327401324E-2
3.589984708E0,2.472085834E-2,8.101079743E-3,1.369710267E-2,2.939998216E-2
3.599982583E0,3.759719465E-2,-4.598890842E-2,-9.729766846E-4,5.940938837E-2
3.609981583E0,4.474410016E-2,-5.510226910E-2,-1.878242612E-2,7.342393404E-2
3.619979583E0,6.321962055E-2,-7.292267293E-2,-4.002945364E-2,1.044834619E-1
3.629977583E0,6.497133672E-2,-6.936876266E-2,-6.037191689E-2,1.125969279E-1
3.639976583E0,5.458160195E-2,-4.092720224E-2,-4.806762099E-2,8.345467838E-2
3.649974583E0,4.038964212E-3,-1.910637100E-2,7.044140697E-3,2.076021587E-2
3.659972583E0,-2.834828820E-2,-2.763123684E-2,2.009746492E-2,4.439615737E-2
3.669971583E0,-8.196626902E-2,-3.383614677E-2,3.044411302E-2,9.375605635E-2
3.679969583E0,-1.394232027E-1,-3.244445463E-2,3.793615043E-2,1.480899173E-1
3.689968583E0,-1.634113684E-1,-4.824540376E-2,1.458880305E-2,1.710079749E-1
3.699966583E0,-1.832787819E-1,-3.454397963E-2,-1.985772908E-2,1.875599313E-1
3.709964583E0,-1.766362718E-1,-3.991875853E-3,-4.458618879E-2,1.822202948E-1
3.719963583E0,-1.285789200E-1,1.358923981E-2,-5.675132096E-2,1.412016946E-1
3.729961583E0,-6.926019631E-2,1.382174886E-2,-3.928393364E-2,8.081610593E-2
3.739959583E0,2.947617956E-3,1.805547103E-3,-7.878538370E-3,8.603477134E-3
3.749958583E0,5.885452788E-2,-3.304031331E-2,2.652940214E-2,7.252121713E-2
3.759956583E0,1.258727190E-1,-5.991714969E-2,5.647065461E-2,1.504092452E-1
3.769955583E0,1.537829046E-1,-1.077436370E-1,1.547290206E-2,1.884072285E-1
3.779953583E0,1.635782333E-1,-9.525663388E-2,-4.750745773E-2,1.951630684E-1
3.789951583E0,1.508613067E-1,-3.960068827E-2,-1.052387720E-1,1.881556470E-1
3.799950583E0,1.086699182E-1,-1.012171302E-3,-1.286837679E-1,1.684330363E-1
3.809948583E0,1.034938898E-2,4.822933305E-2,-7.444148719E-2,8.930125102E-2
3.819946583E0,-6.731639910E-2,1.162990545E-1,-1.002972901E-2,1.347500024E-1
3.829945583E0,-1.200441779E-1,1.416342725E-1,-1.306267977E-3,1.856679243E-1
3.839943583E0,-1.631053397E-1,1.131437142E-1,9.780637622E-3,1.987473592E-1
3.849942583E0,-2.050045868E-1,7.135346297E-2,6.036548495E-2,2.253046583E-1
3.859940583E0,-1.793897257E-1,1.238787454E-4,2.067516983E-2,1.805772734E-1
3.869938583E0,-1.492738973E-1,-5.185716491E-2,-4.446749032E-2,1.641621749E-1
3.879937583E0,-9.677580446E-2,-5.986842594E-2,-8.043079019E-2,1.393517017E-1
3.889935583E0,-4.873160888E-2,-2.047769839E-2,-6.833465517E-2,8.639288704E-2
3.899933583E0,2.559395727E-2,2.310797699E-2,-8.527871668E-2,9.198635099E-2
3.909932583E0,8.564234041E-2,6.651076242E-2,-6.344404399E-2,1.256321563E-1
3.919930583E0,1.060935984E-1,9.775579780E-2,-3.067566276E-2,1.474891315E-1
3.929929583E0,1.192290395E-1,9.754891600E-2,-1.509224832E-2,1.547873730E-1
3.939927583E0,1.318070947E-1,4.952145807E-2,-3.317885578E-2,1.446593291E-1
3.949925583E0,8.555492453E-2,-1.366985830E-2,-1.158508837E-2,8.741123732E-2
3.959924583E0,5.583878987E-2,-3.940263212E-2,-5.074681520E-2,8.512213064E-2
3.969922583E0,-6.852384914E-2,-1.647618559E-1,1.007826090E-1,2.049368716E-1
3.979920583E0,-1.085631334E-1,-1.128632306E-1,6.038711965E-2,1.678411957E-1
3.989919583E0,-2.207989030E-1,-1.699251666E-1,3.313792527E-2,2.805794716E-1
3.999917583E0,-2.078676394E-1,-6.254974891E-2,3.481432199E-3,2.171026185E-1
4.009916583E0,-1.390150305E-1,-1.973200480E-2,-1.405846059E-2,1.411104923E-1
4.019914583E0,-2.887895957E-2,-1.195380100E-2,-1.413079065E-1,1.447232259E-1
4.029912583E0,1.000933684E-3,1.536160396E-2,-2.209493226E-1,2.214849518E-1
4.039911583E0,8.170504466E-2,5.083788559E-3,-1.288960218E-1,1.526949366E-1
4.049909583E0,9.078964435E-2,-6.027017534E-3,7.005432129E-2,1.148333244E-1
4.059907583E0,1.570200693E-1,-8.321443942E-2,1.914951432E-1,2.612476506E-1
4.069906583E0,1.084983755E-1,-3.714291167E-2,1.557768416E-1,1.934371158E-1
4.079904583E0,1.945405193E-3,-5.117865949E-2,8.442385375E-2,9.874424981E-2
4.089903583E0,-3.796476524E-2,1.426388972E-2,-9.605922818E-2,1.042696373E-1
4.099901583E0,-1.601035985E-1,9.689614747E-2,-1.548658454E-1,2.429103862E-1
4.109899583E0,-2.183719796E-1,9.161724463E-2,-9.424600661E-2,2.548771287E-1
4.119898583E0,-3.138637720E-1,1.512123132E-1,-6.554787219E-2,3.545026863E-1
4.129896583E0,-2.754730371E-1,1.844357814E-1,-3.462604165E-2,3.333180379E-1
4.139894583E0,-1.954243259E-1,1.845791661E-1,3.594692767E-2,2.712053048E-1
4.149893583E0,-6.328350138E-2,2.133503908E-1,5.830317199E-2,2.300488006E-1
4.159891583E0,1.210529688E-1,1.828330414E-1,-5.554153204E-2,2.262003626E-1
4.169890583E0,2.608622704E-1,1.262843173E-1,-1.142633647E-1,3.115332558E-1
4.179888583E0,3.688583701E-1,7.966401922E-2,-1.754872209E-1,4.161713804E-1
4.189886583E0,3.631251386E-1,1.298416262E-2,-1.375738746E-1,3.885293113E-1
4.199885583E0,2.516850289E-1,-1.075039012E-1,-1.057059646E-2,2.738871667E-1
4.209883583E0,8.497835252E-2,-1.322742507E-1,4.069252789E-2,1.623997525E-1
4.219881583E0,-7.699277356E-2,-1.011449810E-1,8.492145181E-2,1.528719966E-1
4.229880583E0,-1.909831464E-1,-6.427981211E-2,7.328432322E-2,2.144225932E-1
4.239878583E0,-2.621207740E-1,-2.547831944E-2,-6.636589766E-3,2.634397260E-1
4.249876583E0,-2.891308172E-1,1.310234947E-2,-1.121852642E-1,3.104091406E-1
4.259875583E0,-2.390625714E-1,4.120916594E-3,-8.797369838E-2,2.547690456E-1
4.269873583E0,-1.578401048E-1,-5.422066430E-2,-4.042881846E-2,1.717203205E-1
4.279872583E0,-8.554502081E-2,-7.709908325E-2,1.729664862E-2,1.164533953E-1
4.289870583E0,4.859898672E-2,-1.661087621E-1,4.495456338E-2,1.788152541E-1
4.299868583E0,7.826571241E-2,-2.215893003E-1,1.099054348E-1,2.594350485E-1
4.309867583E0,1.259289619E-1,-2.686529361E-1,7.085305095E-2,3.050453382E-1
4.319865583E0,1.066243794E-1,-2.893551311E-1,3.766483963E-2,3.106666868E-1
4.329863583E0,7.957424618E-2,-2.217840492E-1,-4.715662479E-2,2.402997553E-1
4.339862583E0,7.087044641E-3,-1.190567293E-1,-1.056264424E-1,1.593162777E-1
4.349860583E0,-7.365032237E-2,-6.091489482E-2,-6.874863803E-2,1.177343180E-1
4.359859583E0,-1.207992361E-1,-2.279941759E-2,-5.733779669E-2,1.356462009E-1
4.369857583E0,-1.369237738E-1,7.589082009E-2,-4.609944820E-2,1.631952681E-1
4.379855583E0,-1.122606933E-1,1.765934410E-1,-4.775713384E-2,2.146356226E-1
4.389854583E0,-3.644788787E-2,1.804748958E-1,-4.162866712E-2,1.887659463E-1
4.399852583E0,5.715803135E-2,1.964242546E-1,-6.168870986E-2,2.136703659E-1
4.409850583E0,1.276055779E-1,2.012467092E-1,-5.719395518E-2,2.450603395E-1
4.419849583E0,1.813607856E-1,1.213964287E-1,-4.100067616E-2,2.220582871E-1
4.429847583E0,1.537869976E-1,4.899998694E-2,-3.243041217E-2,1.646304072E-1
4.439846583E0,6.572708935E-2,1.956540484E-2,1.140791774E-3,6.858685549E-2
4.449844583E0,-5.552501366E-2,2.068303616E-2,-3.759233415E-2,7.017121000E-2
4.459842583E0,-1.735301213E-1,1.169246335E-1,-1.234949487E-1,2.429713466E-1
4.469841583E0,-2.739488142E-1,1.581711120E-1,-5.778393924E-2,3.215665360E-1
4.479839583E0,-2.930896015E-1,1.585824088E-1,2.706325293E-2,3.343386226E-1
4.489837583E0,-2.554567023E-1,1.609222818E-1,-7.072850525E-2,3.100913236E-1
4.499836583E0,-1.694316982E-1,1.773440408E-1,-1.130214161E-1,2.700589744E-1
4.509834583E0,-8.201491054E-2,1.134185699E-1,-3.394308686E-3,1.400062102E-1
4.519833583E0,2.597625554E-2,-3.123208014E-2,3.738943577E-2,5.521031234E-2
4.529831583E0,9.331611659E-2,-7.152004466E-2,6.965904951E-2,1.366579584E-1
4.539829583E0,1.730780219E-1,-8.449663332E-2,1.286030763E-1,2.315910921E-1
4.549828583E0,2.295309521E-1,-1.560721626E-1,1.145340908E-1,3.002682731E-1
4.559826583E0,2.410756216E-1,-1.941158470E-1,3.133581340E-2,3.110954043E-1
4.569824583E0,2.467004238E-1,-1.704694693E-1,-1.093166202E-1,3.191724652E-1
4.579823583E0,2.317453657E-1,-1.303171511E-1,-2.924613547E-1,3.952494382E-1
4.589821583E0,1.553462673E-1,-1.326870732E-1,-3.329375356E-1,3.906222277E-1
4.599820958E0,7.638765983E-3,-1.241804251E-1,-1.675999117E-1,2.087315480E-1
4.609818958E0,-1.136361046E-1,-8.044947387E-2,4.802493632E-2,1.472809445E-1
4.619816958E0,-1.931528288E-1,-1.291287045E-1,1.748656619E-1,2.907924299E-1
4.629815958E0,-2.472543013E-1,-1.353512566E-1,2.247546905E-1,3.605125838E-1
4.639813958E0,-2.733411788E-1,-1.020524506E-1,2.032188106E-1,3.555671353E-1
4.649811958E0,-2.251691485E-1,-1.126578106E-1,9.799056351E-2,2.701760135E-1
4.659810958E0,-1.644311593E-1,-1.087141926E-1,-4.856229544E-2,2.030139856E-1
4.669808958E0,-1.387792416E-1,-8.531359898E-2,-1.006615716E-1,1.914963187E-1
4.679807958E0,-8.553508054E-2,-1.001390498E-1,-1.105474591E-1,1.719442352E-1
4.689805958E0,-7.533501484E-2,-6.668939486E-2,-9.230063796E-2,1.365366164E-1
4.699803958E0,-6.566828828E-2,6.381413620E-3,-9.379518628E-3,6.664099261E-2
4.709802958E0,-2.660885118E-2,9.424553152E-2,9.209423125E-2,1.344306461E-1
4.719800958E0,1.576760173E-2,1.916747258E-1,8.878996968E-2,2.118288849E-1
4.729798958E0,1.025947708E-1,2.680219302E-1,-3.560720444E-2,2.891873356E-1
4.739797958E0,1.660254392E-1,3.398670709E-1,-1.638869298E-1,4.122293028E-1
4.749795958E0,2.198226372E-1,3.366690094E-1,-2.643198752E-1,4.811787715E-1
4.759793958E0,2.331354682E-1,2.760361240E-1,-2.687836397E-1,4.503251417E-1
4.769792958E0,1.744373168E-1,2.278327197E-1,-1.524357426E-1,3.249196535E-1
4.779790958E0,9.028119240E-2,1.833218503E-1,-4.627077162E-2,2.095198769E-1
4.789789958E0,-1.965395361E-2,1.350169055E-1,5.793830574E-2,1.482318789E-1
4.799787958E0,-1.097699987E-1,8.081321636E-2,1.296596682E-1,1.881272392E-1
4.809785958E0,-2.022016509E-1,6.365505539E-2,9.209657013E-2,2.311260520E-1
4.819784958E0,-2.369921454E-1,8.788248181E-2,2.157330215E-2,2.536809314E-1
4.829782958E0,-2.451520080E-1,7.662969802E-2,-2.112891376E-2,2.577169933E-1
4.839780958E0,-2.187201812E-1,4.579875514E-2,-7.897307932E-2,2.370079976E-1
4.849779958E0,-1.738307047E-1,1.665022066E-2,-9.806248426E-2,2.002762956E-1
4.859777958E0,-1.089778106E-1,-2.843062431E-2,-3.318645716E-2,1.174129658E-1
4.869776958E0,-6.828495383E-2,-7.367040390E-2,3.813144743E-2,1.074438021E-1
4.879774958E0,5.908538327E-3,-1.055686464E-1,3.476695955E-2,1.113031509E-1
4.889772958E0,9.309808854E-2,-1.140734398E-1,-1.199263930E-2,1.477288975E-1
4.899771958E0,1.560766211E-1,-1.239124582E-1,-2.579382241E-2,2.009465855E-1
4.909769958E0,1.917267660E-1,-1.439006990E-1,-4.464933872E-2,2.438444738E-1
4.919767958E0,1.845675813E-1,-1.513422676E-1,-6.258333385E-2,2.467515911E-1
4.929766958E0,1.503500408E-1,-1.650869246E-1,-2.901096046E-2,2.251676337E-1
4.939764958E0,7.211075049E-2,-1.835818870E-1,2.341809869E-2,1.986219447E-1
4.949763958E0,-6.000705063E-3,-2.181650429E-1,3.947572231E-2,2.217889246E-1
4.959761958E0,-7.143495854E-2,-2.042483225E-1,3.097913325E-2,2.185864526E-1
4.969759958E0,-1.125765526E-1,-1.876353961E-1,-1.839650989E-2,2.195881455E-1
4.979758958E0,-1.303206594E-1,-1.473669741E-1,-6.298503757E-2,2.065614056E-1
4.989756958E0,-1.238380707E-1,-8.218950475E-2,-5.130405486E-2,1.572357735E-1
4.999754958E0,-8.912954673E-2,-6.304850726E-2,-1.312992275E-2,1.099617444E-1
5.009753958E0,-5.223650303E-2,-4.152847873E-2,-9.084818959E-3,6.734835358E-2
5.019751958E0,-2.214040898E-2,-3.173733439E-2,2.431155324E-2,4.570019393E-2
5.029750958E0,-1.241137303E-2,4.467327576E-3,2.357948184E-2,2.701834858E-2
5.039748958E0,-2.060153145E-2,3.791029477E-2,2.481558323E-3,4.321772414E-2
5.049746958E0,-4.137603085E-2,4.681770556E-2,-2.399872720E-2,6.693140063E-2
5.059745958E0,-5.134268302E-2,8.703185812E-2,-7.188566923E-2,1.240087290E-1
5.069743958E0,-7.714827295E-2,1.150526109E-1,-7.098285913E-2,1.556519373E-1
5.079741958E0,-9.450014122E-2,1.469806193E-1,-4.134917021E-2,1.795642866E-1
5.089740958E0,-9.784708746E-2,1.772193854E-1,-1.682594776E-2,2.031351166E-1
5.099738958E0,-7.728052966E-2,1.838225182E-1,-3.468042076E-2,2.023999260E-1
5.109736958E0,-2.521286499E-2,1.702624231E-1,-1.085231531E-1,2.034754433E-1
5.119735958E0,8.355707712E-3,1.802724543E-1,-1.138090360E-1,2.133552725E-1
5.129733958E0,2.751491379E-2,1.709807352E-1,1.608101249E-2,1.739255049E-1
5.139732958E0,6.433439221E-2,8.726212878E-2,5.466854274E-2,1.214176375E-1
5.149730958E0,9.126670405E-2,6.006428026E-2,-6.574609280E-3,1.094557194E-1
5.159728958E0,8.699041598E-2,8.494326923E-2,-6.436848879E-2,1.375717769E-1
5.169727958E0,7.029888108E-2,3.526607422E-2,-1.263437122E-1,1.488232586E-1
5.179725958E0,1.639617741E-2,3.561652344E-2,-1.299309790E-1,1.357182032E-1
5.189723958E0,-7.198415827E-2,8.805233429E-2,-2.890395641E-2,1.173472254E-1
5.199722958E0,-1.234179848E-1,4.952770729E-2,1.986591518E-2,1.344605791E-1
5.209720958E0,-1.544828528E-1,-7.132808240E-3,5.215657890E-2,1.632058133E-1
5.219719958E0,-1.684551766E-1,-2.131635357E-2,8.308893442E-2,1.890378388E-1
5.229717958E0,-1.583094535E-1,-3.461549839E-2,5.952173173E-2,1.726353160E-1
5.239715958E0,-1.229844503E-1,-1.008565214E-1,-5.219809413E-3,1.591366059E-1
5.249714958E0,-7.249608200E-2,-1.312579224E-1,-3.613579273E-2,1.542404604E-1
5.259712958E0,-3.274550401E-2,-9.846612487E-2,-5.657590449E-2,1.181891651E-1
5.269710958E0,1.172640827E-2,-9.045248841E-2,-7.640322804E-2,1.189815724E-1
5.279709958E0,3.437669445E-2,-7.844336727E-2,-3.095048189E-2,9.106619196E-2
5.289707958E0,4.474815667E-2,-3.236383614E-2,2.812452257E-2,6.197422194E-2
5.299705958E0,7.211703625E-2,5.713095143E-4,1.087348223E-2,7.293439468E-2
5.309704958E0,8.667762648E-2,-4.522629445E-3,-2.403322577E-2,9.006142932E-2
5.319702958E0,8.657562912E-2,-1.135590493E-2,-4.591116786E-2,9.865156597E-2
5.329701958E0,6.365037762E-2,-4.980304719E-2,-6.747862279E-2,1.052857000E-1
5.339699958E0,3.029435121E-2,-7.681726573E-2,-5.685774028E-2,1.002568834E-1
5.349697958E0,-8.300707340E-3,-8.305090925E-2,-1.764572740E-2,8.530959480E-2
5.359696958E0,-4.318954479E-2,-8.746499975E-2,9.028100967E-4,9.755141222E-2
5.369694958E0,-6.641885150E-2,-6.368450160E-2,-2.875251353E-2,9.640480597E-2
5.379692958E0,-7.002559684E-2,-3.525998033E-2,-3.819869041E-2,8.721232926E-2
5.389691958E0,-8.418685880E-2,-2.004869549E-2,-3.041136861E-3,8.659460663E-2
5.399689958E0,-8.059308697E-2,-3.471418843E-4,2.597684026E-2,8.467681149E-2
5.409688958E0,-6.951535419E-2,1.619564532E-2,9.923309684E-3,7.206355161E-2
5.419686958E0,-6.706774626E-2,2.835712298E-2,-4.630410075E-3,7.296334497E-2
5.429684958E0,-6.247969195E-2,2.938101612E-2,-1.679027975E-2,7.105539746E-2
5.439683958E0,-6.499870900E-2,5.560199590E-3,7.865089774E-3,6.570850499E-2
5.449681958E0,-6.822688367E-2,-2.735469094E-2,1.950397253E-2,7.604992910E-2
5.459679958E0,-5.004306626E-2,-3.518437766E-2,-9.274268746E-3,6.187294216E-2
5.469678958E0,-3.430404279E-2,-3.806808737E-2,-3.297420323E-2,6.093639887E-2
5.479676958E0,-6.344448254E-3,-8.819894409E-3,-5.532635450E-2,5.638304766E-2
5.489675958E0,2.824362304E-2,1.832848119E-2,-5.431829453E-2,6.390706209E-2
5.499673958E0,7.673122030E-2,6.336093131E-2,-6.078531504E-2,1.166067850E-1
5.509671958E0,1.120023560E-1,9.003510685E-2,-6.813409567E-2,1.590380559E-1
5.519670958E0,1.228889579E-1,9.413342943E-2,-5.901185453E-2,1.656659213E-1
5.529668958E0,1.184058246E-1,7.181109896E-2,-5.572922766E-2,1.492733066E-1
5.539666958E0,8.035740763E-2,3.588766065E-2,-4.359683990E-2,9.821365281E-2
5.549665958E0,2.184136044E-2,3.859938914E-3,-3.745726347E-2,4.353149137E-2
5.559663958E0,-2.508280098E-2,-2.121831221E-2,-1.080623925E-2,3.458523507E-2
5.569661958E0,-8.622589253E-2,-3.635145449E-2,5.364235640E-3,9.372890595E-2
5.579660958E0,-1.313272210E-1,-1.597861312E-2,2.076697111E-2,1.339157278E-1
5.589658958E0,-1.396080113E-1,1.211451720E-3,8.911156654E-3,1.398973665E-1
5.599657708E0,-1.162984150E-1,2.405881648E-2,-3.812676966E-2,1.247309045E-1
5.609655708E0,-8.251090061E-2,2.967160447E-2,-6.286984742E-2,1.078937929E-1
5.619653708E0,-6.360487897E-2,3.953241290E-2,-5.723196208E-2,9.425438866E-2
5.629652708E0,-2.636568010E-2,3.414586647E-2,-1.596465290E-2,4.599955898E-2
5.639650708E0,5.074652284E-4,-4.348446373E-3,2.574821413E-2,2.611775330E-2
5.649648708E0,3.182577353E-2,-3.522937381E-2,5.894227266E-2,7.568474183E-2
5.659647708E0,7.398968015E-2,-4.696149224E-2,3.377234817E-2,9.391712316E-2
5.669645708E0,1.431897598E-1,-2.764791054E-2,-5.021237969E-2,1.542368222E-1
5.679644708E0,2.047112758E-1,-2.435039154E-2,-1.186096001E-1,2.378400413E-1
5.689642708E0,2.452672347E-1,7.609785721E-4,-1.673777175E-1,2.969375285E-1
5.699640708E0,2.487022180E-1,2.217518164E-2,-1.872284299E-1,3.120881557E-1
5.709639708E0,1.956039816E-1,1.576022875E-2,-1.269828129E-1,2.337390365E-1
5.719637708E0,1.355673295E-1,1.922797482E-2,-4.817111671E-2,1.451505161E-1
5.729635708E0,8.073769592E-2,-2.247338964E-2,1.718145847E-2,8.555016832E-2
5.739634708E0,-2.976886924E-2,-9.554401539E-2,1.130664396E-1,1.509929277E-1
5.749632708E0,-1.299916804E-1,-1.234074050E-1,1.186791819E-1,2.149697021E-1
5.759630708E0,-2.287664652E-1,-1.164647135E-1,5.166482806E-2,2.618537369E-1
5.769629708E0,-3.363342198E-1,-9.826688100E-2,2.623470247E-2,3.513763608E-1
5.779627708E0,-3.633435687E-1,-5.763262426E-2,-1.074484348E-2,3.680428235E-1
5.789626708E0,-3.117989009E-1,-2.277189913E-2,-5.163149893E-2,3.168642070E-1
5.799624708E0,-2.265421113E-1,-2.645054695E-2,-2.322747946E-2,2.292607149E-1
5.809622708E0,-1.381424798E-1,-2.372847620E-2,1.039401054E-2,1.405504207E-1
5.819621708E0,-2.906676482E-2,-3.753630138E-2,1.363570690E-2,4.939416202E-2
5.829619708E0,8.285164710E-2,-4.214631929E-2,-9.295318723E-3,9.341900560E-2
5.839617708E0,1.118002251E-1,-1.799069485E-2,-1.903619528E-2,1.148274016E-1
5.849616708E0,1.251796778E-1,3.887758870E-3,-1.303929090E-2,1.259169945E-1
5.859614708E0,1.246547440E-1,2.661719260E-2,-1.780535638E-2,1.287024120E-1
5.869613708E0,1.138492356E-1,5.963445509E-2,-2.929630458E-2,1.318187777E-1
5.879611708E0,7.482733034E-2,9.412685132E-2,-3.585044861E-2,1.254760860E-1
5.889609708E0,2.569719717E-2,1.329433092E-1,-6.336452186E-2,1.494969298E-1
5.899608708E0,1.207852028E-3,1.828139283E-1,-6.349199116E-2,1.935293885E-1
5.909606708E0,-3.316708826E-2,1.817086766E-1,-3.024940073E-2,1.871713791E-1
5.919604708E0,-6.886777505E-2,1.439576454E-1,1.255864978E-2,1.600759001E-1
5.929603708E0,-5.687389322E-2,1.072106724E-1,-2.097279310E-2,1.231609762E-1
5.939601708E0,-4.164741475E-2,4.855911601E-2,-3.564930439E-2,7.323501763E-2
5.949599708E0,-4.601930480E-2,-1.246334016E-2,-1.126115263E-2,4.898902756E-2
5.959598708E0,-3.980839234E-2,-3.334613183E-2,-2.773802161E-2,5.887334245E-2
5.969596708E0,-3.966118868E-2,7.813003873E-3,-3.044177413E-2,5.060389836E-2
5.979595708E0,-5.628376298E-2,5.733378586E-2,-2.895365775E-2,8.540104960E-2
5.989593708E0,-8.331142098E-2,9.838198892E-2,-2.657676458E-2,1.316287697E-1
5.999591708E0,-9.447905470E-2,1.334422046E-1,-3.063590169E-2,1.663480454E-1
6.009590708E0,-6.348270871E-2,1.345819274E-1,-5.999769509E-2,1.604433636E-1
6.019588708E0,-3.564893894E-2,7.737131682E-2,-5.688522220E-2,1.024358141E-1
6.029586708E0,-3.403550941E-2,-1.014597896E-2,-1.486186802E-2,3.849976508E-2
6.039585708E0,-1.107396863E-2,-9.118687129E-2,2.387652040E-2,9.490925404E-2
6.049583708E0,1.803504232E-2,-1.759475429E-1,-1.821290731E-2,1.778046979E-1
6.059582708E0,5.186626464E-3,-2.044070013E-1,-2.691765726E-2,2.062369597E-1
6.069580708E0,-2.227438331E-2,-1.916764800E-1,-2.932203233E-2,1.951814609E-1
6.079578708E0,-2.599810950E-2,-1.369543438E-1,-2.079445302E-2,1.409425531E-1
6.089577708E0,-1.551090896E-2,-6.732241991E-2,1.167688966E-2,7.006601367E-2
6.099575708E0,1.100921072E-3,7.044634055E-3,3.172465324E-2,3.251603481E-2
6.109573708E0,3.407483194E-2,6.464782124E-2,-7.062267065E-3,7.341873453E-2
6.119572708E0,7.709053170E-2,6.783387769E-2,-4.569365144E-2,1.123934821E-1
6.129570708E0,8.966917165E-2,2.994354567E-2,-5.526671290E-2,1.095060995E-1
6.139568708E0,8.001256809E-2,-3.650151780E-2,-5.375111461E-2,1.030706271E-1
6.149567708E0,7.331896797E-2,-1.319046701E-1,-4.204440415E-2,1.566596469E-1
6.159565708E0,6.775976423E-2,-1.978890004E-1,-3.436408639E-2,2.119724807E-1
6.169564708E0,3.713943075E-2,-2.316939833E-1,-3.620595932E-3,2.346796709E-1
6.179562708E0,-1.364484318E-3,-1.884404481E-1,2.721294165E-3,1.884650358E-1
6.189560708E0,-3.846024368E-2,-9.739887097E-2,-1.271184683E-3,1.047250988E-1
6.199559708E0,-7.106735140E-2,-5.032416201E-2,6.257690191E-3,8.730548897E-2
6.209557708E0,-1.023665832E-1,2.934119110E-2,-1.946947396E-2,1.082537910E-1
6.219555708E0,-1.127694742E-1,1.619462023E-1,-2.901914656E-2,1.994633741E-1
6.229554708E0,-1.700388219E-1,1.307254603E-1,-1.742148668E-1,2.763207678E-1
6.239552708E0,-1.693620432E-1,1.505676760E-1,7.709963143E-2,2.393710089E-1
6.249551708E0,-1.690462936E-1,2.324645185E-1,3.149292809E-1,4.263764225E-1
6.259549708E0,-1.159582167E-1,1.502057151E-1,-1.316290104E-1,2.309421166E-1
6.269547708E0,-6.103250608E-2,-1.069453002E-1,-2.270070380E-1,2.582527044E-1
6.279546708E0,-2.268222660E-2,-1.351344528E-1,5.271791160E-2,1.468161501E-1
6.289544708E0,6.270316523E-2,1.306087809E-1,1.022251171E-1,1.773141708E-1
6.299542708E0,1.759077819E-1,1.107212950E-1,-2.234893531E-1,3.052052487E-1
6.309541708E0,1.776324181E-1,-6.421476183E-3,-1.911431408E-1,2.610176461E-1
6.319539708E0,1.903926872E-1,1.954165053E-1,-9.546748996E-2,2.890519460E-1
6.329537708E0,1.597268185E-1,2.534911242E-1,2.790700614E-2,3.009139538E-1
6.339536708E0,1.632667960E-1,5.538815226E-2,8.200661480E-2,1.909161569E-1
6.349534708E0,5.558012366E-2,2.933074834E-2,-1.898590922E-2,6.564988723E-2
6.359533708E0,-9.655192919E-2,8.633157182E-2,-9.693806469E-2,1.617788729E-1
6.369531708E0,-1.586368610E-1,-1.558909720E-2,-7.296506524E-2,1.753070859E-1
6.379529708E0,-2.226008686E-1,-2.284381988E-2,6.819666088E-2,2.339311253E-1
6.389528708E0,-2.888295760E-1,-2.129651872E-2,8.776904583E-2,3.026210024E-1
6.399526708E0,-3.438544334E-1,-5.868766297E-2,5.867213130E-2,3.537266348E-1
6.409524708E0,-2.847268771E-1,-6.002295689E-2,4.827110410E-2,2.949614372E-1
6.419523708E0,-1.632815602E-1,-5.087370892E-2,1.539864242E-2,1.717152304E-1
6.429521708E0,-5.654929966E-2,-5.226237696E-2,-2.331167936E-2,8.045255578E-2
6.439520708E0,6.941342991E-2,-8.794137424E-2,-1.284650820E-1,1.704558208E-1
6.449518708E0,1.786512224E-1,-8.243458531E-2,-1.246158600E-1,2.328966137E-1
6.459516708E0,2.532090326E-1,-4.419895694E-2,-2.043894231E-2,2.578490108E-1
6.469515708E0,2.809497951E-1,-1.008610348E-1,-3.283211589E-2,3.003059832E-1
6.479513708E0,2.419660063E-1,-1.510152712E-1,-2.275093138E-2,2.861306786E-1
6.489511708E0,1.701519290E-1,-1.423534983E-1,8.895953894E-3,2.220255287E-1
6.499510708E0,9.131560139E-2,-6.721395406E-2,1.570211291E-2,1.144675108E-1
6.509508708E0,-4.322747860E-2,-2.344899757E-2,-5.054391682E-2,7.052062054E-2
6.519506708E0,-2.060592783E-1,-1.096011238E-2,-4.646022141E-2,2.115161989E-1
6.529505708E0,-2.726100210E-1,3.410725658E-2,-5.378736734E-2,2.799510840E-1
6.539503708E0,-2.613257719E-1,2.966337268E-2,-3.090721250E-2,2.648137658E-1
6.549502708E0,-2.342162164E-1,1.659530251E-2,5.153560460E-2,2.403925095E-1
6.559500708E0,-1.695341706E-1,1.826905886E-2,2.304972410E-2,1.720665084E-1
6.569498708E0,-7.162126545E-2,-3.303859569E-4,-3.189656138E-3,7.169301727E-2
6.579497708E0,1.315605249E-2,-2.985224688E-2,5.889724910E-2,6.732848070E-2
6.589495708E0,8.437513914E-2,2.237014060E-2,5.691621244E-2,1.042067298E-1
6.599493708E0,1.408908173E-1,6.775930742E-2,-3.439039886E-2,1.600757498E-1
6.609492500E0,1.718880038E-1,6.064979668E-2,-1.140084261E-1,2.149925694E-1
6.619490500E0,1.876573597E-1,1.556810204E-1,-1.570965582E-1,2.900537767E-1
6.629488500E0,1.958307074E-1,1.855550664E-1,-1.413464981E-1,3.045639197E-1
6.639487500E0,1.551594488E-1,1.367333282E-1,-5.657941282E-2,2.144100920E-1
6.649485500E0,9.207628760E-2,1.335569197E-1,-7.928473592E-2,1.805590288E-1
6.659484500E0,3.050481442E-2,1.073405628E-1,-6.321541786E-2,1.282525991E-1
6.669482500E0,-2.652889051E-2,2.778025861E-2,1.437245607E-2,4.101331849E-2
6.679480500E0,-6.379761782E-2,-1.096838985E-2,4.570066810E-2,7.924009515E-2
6.689479500E0,-1.179277782E-1,-5.917542125E-2,4.753026187E-2,1.402419949E-1
6.699477500E0,-1.415944566E-1,-6.433603674E-2,-2.310234904E-2,1.572317853E-1
6.709475500E0,-1.718214552E-1,-2.980397081E-2,-5.034511149E-2,1.815090064E-1
6.719474500E0,-2.057855920E-1,-1.701657613E-2,-1.637688160E-2,2.071363706E-1
6.729472500E0,-2.316965415E-1,-1.814584706E-2,1.712064743E-2,2.330357820E-1
6.739471500E0,-2.231182010E-1,3.934737593E-3,4.506916881E-2,2.276586123E-1
6.749469500E0,-1.707565676E-1,8.507251097E-3,5.803887784E-2,1.805510732E-1
6.759467500E0,-9.027702626E-2,1.305975616E-2,4.002243698E-2,9.961071309E-2
6.769466500E0,-1.912956800E-2,-6.931746248E-3,-8.391923904E-3,2.200940401E-2
6.779464500E0,7.165901653E-2,-3.222058849E-2,-5.380081594E-2,9.522451769E-2
6.789462500E0,1.498517484E-1,-4.327621149E-2,-1.009726435E-1,1.858059518E-1
6.799461500E0,1.798898819E-1,-4.736197170E-2,-1.045686811E-1,2.133966613E-1
6.809459500E0,1.716580986E-1,-6.695509600E-2,-8.209607720E-2,2.017157743E-1
6.819457500E0,1.674272361E-1,-6.690028748E-2,-4.373717308E-2,1.855275402E-1
6.829456500E0,1.447635013E-1,-6.677018694E-2,7.683241367E-4,1.594218288E-1
6.839454500E0,8.716930423E-2,-4.549679213E-2,3.046516299E-2,1.029396515E-1
6.849453500E0,1.001416080E-2,-5.783882998E-3,7.458123565E-3,1.376082578E-2
6.859451500E0,-5.068530980E-2,2.443487467E-2,-6.091746211E-2,8.292768488E-2
6.869449500E0,-1.175766529E-1,2.311873952E-2,-1.008551145E-1,1.566221553E-1
6.879448500E0,-1.689423593E-1,4.589188118E-2,-6.775344193E-2,1.877181782E-1
6.889446500E0,-1.862438684E-1,5.627217818E-2,-1.730600417E-2,1.953275054E-1
6.899444500E0,-1.929551929E-1,2.170174903E-2,3.941374183E-2,1.981315609E-1
6.909443500E0,-1.685515460E-1,1.709618049E-2,4.926630020E-2,1.764343260E-1
6.919441500E0,-1.223194757E-1,3.469407035E-2,7.932274282E-2,1.498593680E-1
6.929439500E0,-7.690024137E-2,5.684906082E-2,8.961676598E-2,1.310596337E-1
6.939438500E0,-1.841017775E-2,5.807601680E-2,4.737121761E-2,7.717376905E-2
6.949436500E0,7.048971958E-2,3.127054386E-2,-5.219633996E-2,9.311877032E-2
6.959435500E0,1.285516574E-1,3.339743201E-2,-1.159625655E-1,1.763185574E-1
6.969433500E0,1.480608559E-1,3.165160873E-2,-1.502377743E-1,2.132961092E-1
6.979431500E0,1.392416467E-1,2.857758128E-2,-1.190832245E-1,1.854338930E-1
6.989430500E0,1.169697484E-1,3.989146848E-2,-5.289157391E-2,1.344275638E-1
6.999428500E0,1.358914114E-1,5.468550880E-2,-4.146786869E-2,1.522385125E-1
7.009426500E0,1.025134579E-1,8.420615461E-2,-2.853967488E-2,1.356989262E-1
7.019425500E0,3.513551686E-2,7.259838087E-2,-3.462077916E-2,8.777031274E-2
7.029423500E0,-1.228755824E-2,2.751320531E-2,-2.633644402E-2,4.001960566E-2
7.039422500E0,-4.961925276E-2,-2.161920279E-2,1.262764692E-2,5.557803199E-2
7.049420500E0,-1.268318451E-1,-5.184910672E-2,2.628264964E-2,1.395185452E-1
7.059418500E0,-2.048048678E-1,-1.036478726E-1,5.775236428E-2,2.366923128E-1
7.069417500E0,-2.280343938E-1,-1.229606503E-1,5.390197277E-2,2.646212934E-1
7.079415500E0,-2.172765402E-1,-1.062374582E-1,4.361672044E-2,2.457598640E-1
7.089413500E0,-1.872699817E-1,-7.993300027E-2,-1.454027116E-2,2.041341472E-1
7.099412500E0,-9.165770005E-2,-8.719014407E-2,-4.466278732E-2,1.341566986E-1
7.109410500E0,8.592271440E-2,-7.478209664E-2,8.474954367E-3,1.142230260E-1
7.119408500E0,2.333583202E-1,-7.935950719E-4,5.113214672E-2,2.388958598E-1
7.129407500E0,-1.186615307E-1,2.041515145E-2,9.923952878E-2,1.560314755E-1
7.139405500E0,3.794404417E-2,3.889832804E-2,1.460172540E-1,1.558007345E-1
7.149404500E0,3.019622762E-1,5.151062602E-2,1.601663464E-1,3.456701019E-1
7.159402500E0,2.153148725E-1,9.542210095E-2,2.247587836E-1,3.255493549E-1
7.169400500E0,1.575699634E-1,1.119473191E-1,2.747583246E-1,3.359354589E-1
7.179399500E0,2.994728972E-1,6.191197299E-2,3.068934524E-1,4.332443879E-1
7.189397500E0,4.125853837E-1,-3.013594648E-2,2.628750283E-1,4.901409538E-1
7.199395500E0,3.239123583E-2,3.888886286E-2,3.897028899E-1,3.929756713E-1
7.209394500E0,-5.058997826E-1,-7.960033938E-2,2.800348520E-1,5.836868359E-1
7.219392500E0,2.069858792E-1,-1.027708450E-1,1.461108094E-1,2.734106242E-1
7.229390500E0,4.728681305E-1,-7.576900249E-1,-3.644668919E-1,9.646421917E-1
7.239389500E0,8.449600840E-1,3.791252768E-1,-1.433706288E0,1.706812010E0
7.249387500E0,5.163353084E-1,7.399541773E-3,-9.506455833E-1,1.081842839E0
7.259386500E0,-2.098692875E-1,1.841364040E-2,1.556353390E-2,2.112496238E-1
7.269384500E0,-4.373677839E-1,6.251604702E-1,2.095028132E-1,7.912064336E-1
7.279382500E0,6.839708881E-1,-3.697715956E-1,-2.382623434E-2,7.778913151E-1
7.289381500E0,7.167180732E-2,-1.087946831E-1,-3.764203548E-2,1.356099328E-1
7.299379500E0,-2.220428981E-1,-7.932857176E-2,1.123127335E-1,2.611708655E-1
7.309377500E0,2.231073837E-1,-2.275913576E-2,1.960419381E-1,2.978713219E-1
7.319376500E0,1.802529940E-1,-1.966181081E-3,5.270972550E-2,1.878119349E-1
7.329374500E0,1.618883514E-1,3.106991127E-3,-1.086897987E-1,1.950152919E-1
7.339372500E0,2.308948517E-2,5.516758433E-2,-2.096776450E-1,2.180396787E-1
7.349371500E0,1.257063657E-2,1.458026246E-1,-8.311875522E-2,1.683007835E-1
7.359369500E0,-3.320239082E-2,1.395755044E-1,4.535451293E-2,1.504684420E-1
7.369368500E0,1.348699759E-1,1.136376578E-1,-2.437353373E-2,1.780379084E-1
7.379366500E0,6.073809877E-2,1.426272759E-1,-5.716647327E-2,1.652260940E-1
7.389364500E0,1.589480790E-1,1.119467161E-1,6.490175486E-2,2.049604763E-1
7.399363500E0,6.807284608E-2,6.840778191E-2,1.727092087E-1,1.978433921E-1
7.409361500E0,9.486098751E-2,-3.001507357E-2,6.830483437E-2,1.206857986E-1
7.419359500E0,3.631021518E-1,-1.675765776E-1,-1.508681041E-1,4.274181405E-1
7.429358500E0,1.628050487E-1,-5.928004073E-2,-1.507160765E-1,2.296408997E-1
7.439356500E0,-7.602257431E-3,-9.263506215E-3,-6.019825459E-2,6.137944868E-2
7.449354500E0,-9.205388546E-2,1.216046353E-2,-3.309816420E-2,9.857628100E-2
7.459353500E0,-7.783696532E-2,8.675300075E-2,-6.167409182E-2,1.318649685E-1
7.469351500E0,-1.234429085E-1,1.888445638E-1,-2.688198924E-2,2.272070912E-1
7.479350500E0,-2.761305200E-1,1.651516460E-1,7.805974424E-2,3.310837566E-1
7.489348500E0,-2.189139068E-1,1.158680508E-1,6.202843308E-2,2.553355249E-1
7.499346500E0,-1.474740878E-1,2.471467308E-2,-1.227155149E-2,1.500333716E-1
7.509345500E0,-2.240841611E-1,-6.905086599E-3,1.121437490E-2,2.244708303E-1
7.519343500E0,-2.458289328E-1,-1.176279348E-1,-4.401257694E-2,2.760530786E-1
7.529341500E0,2.195234790E-2,-1.928959168E-1,-7.879064620E-2,2.095201809E-1
7.539340500E0,8.964015484E-2,-3.116044810E-1,-1.711538494E-2,3.246931572E-1
7.549338500E0,-8.574941754E-4,-1.706979858E-1,3.222166657E-2,1.737146322E-1
7.559337500E0,6.687767521E-2,-1.632363539E-1,5.147713244E-2,1.837624168E-1
7.569335500E0,1.191628928E-1,-1.391308419E-1,2.593064725E-2,1.850123906E-1
7.579333500E0,3.927384719E-2,-4.266497646E-2,2.287606180E-2,6.233818647E-2
7.589332500E0,-3.881030917E-2,1.359935367E-2,1.724168479E-2,4.459213173E-2
7.599330500E0,2.113528723E-1,6.721876888E-3,-6.515552402E-3,2.115600923E-1
7.609328583E0,4.214848459E-2,6.735641599E-2,-3.523590624E-2,8.691921891E-2
7.619327583E0,-1.275403449E-1,9.523218521E-2,-7.821937323E-2,1.773526967E-1
7.629325583E0,1.352270946E-2,9.543151131E-2,-5.354470789E-2,1.102591165E-1
7.639323583E0,-3.655459955E-2,1.005780295E-1,2.127275527E-2,1.091087022E-1
7.649322583E0,-1.614903022E-1,9.480505524E-2,-1.018584967E-3,1.872649293E-1
7.659320583E0,1.738859609E-2,7.675198705E-2,3.093703330E-2,8.455962878E-2
7.669319583E0,6.495174855E-2,6.576836703E-2,7.369655192E-2,1.182175516E-1
7.679317583E0,5.043369681E-3,6.309820860E-2,1.826436281E-2,6.588176117E-2
7.689315583E0,2.225019045E-1,7.501594872E-2,5.226650655E-2,2.405541057E-1
7.699314583E0,1.479690546E-1,5.933552532E-2,7.011630177E-2,1.741603900E-1
7.709312583E0,8.047537521E-2,6.016835156E-2,1.428357840E-2,1.014915620E-1
7.719310583E0,1.381088948E-1,7.431826626E-2,5.873762012E-2,1.674735189E-1
7.729309583E0,-3.874993667E-2,7.920728772E-2,7.824977875E-2,1.178913902E-1
7.739307583E0,-7.996374384E-2,6.031457763E-2,7.153775990E-2,1.230841163E-1
7.749305583E0,-1.714624362E-1,5.806305243E-2,2.222585142E-1,2.866522845E-1
7.759304583E0,-1.911532272E-1,-6.638563201E-3,2.949452519E-1,3.515342493E-1
7.769302583E0,-1.311726353E-1,-1.253569489E-1,4.789372480E-1,5.121537976E-1
7.779301583E0,-2.071455082E-1,-1.290565188E-1,6.750417513E-1,7.178065286E-1
7.789299583E0,-1.568809421E-1,-1.767210199E-1,7.642076969E-1,7.999095905E-1
7.799297583E0,3.464182913E-2,-1.866707152E-1,8.954993230E-1,9.154043094E-1
7.809296583E0,-7.239145339E-2,-1.826635817E-1,9.709389299E-1,9.906204683E-1
7.819294583E0,-8.772943094E-2,-5.624721788E-2,9.779199207E-1,9.834569507E-1
7.829292583E0,-1.193500037E-1,-2.317033206E-2,1.015188319E0,1.022442473E0
7.839291583E0,-2.167368422E-1,4.585116081E-2,9.548456383E-1,9.802078252E-1
7.849289583E0,-3.151486976E-1,9.627875458E-2,9.344400251E-1,9.908412894E-1
7.859287583E0,-4.239903778E-1,5.185392153E-2,9.915129429E-1,1.079608533E0
7.869286583E0,-4.793711114E-1,7.159522707E-3,1.034411625E0,1.140111982E0
7.879284583E0,-5.093471548E-1,-3.201370670E-2,1.169696900E0,1.276185817E0
7.889283583E0,-5.482761624E-1,-3.530812849E-2,1.250274455E0,1.365664537E0
7.899281583E0,-4.730135800E-1,1.990605997E-2,1.370927657E0,1.450372621E0
7.909279583E0,-4.156325139E-1,4.028505919E-2,1.501556209E0,1.558539162E0
7.919278583E0,-3.658104359E-1,2.918724488E-2,1.578913702E0,1.620998967E0
7.929276583E0,-2.137410213E-1,-4.864919968E-2,1.652119088E0,1.666598167E0
7.939274583E0,-1.133759035E-1,6.260918951E-2,1.632722704E0,1.637851469E0
7.949273583E0,4.729681179E-2,2.068532936E-1,1.681137065E0,1.694475466E0
7.959271583E0,-3.802691384E-1,1.510891471E-1,1.688274761E0,1.737154057E0
7.969269583E0,-5.609793846E-1,7.108666549E-2,1.589321162E0,1.686918178E0
7.979268583E0,-4.107233378E-1,2.019757291E-1,1.726358846E0,1.786001882E0
7.989266583E0,-8.150468981E-1,2.115194631E-1,1.837553592E0,2.021297884E0
7.999265583E0,-6.776311907E-1,2.178531123E-1,1.840328096E0,1.973183091E0
8.009263583E0,-3.186289604E-1,2.338707921E-1,1.800864653E0,1.843728142E0
8.019261583E0,-5.185325459E-2,-6.975145379E-2,1.727955136E0,1.730139583E0
8.029260583E0,-2.376230966E-1,-5.828283099E-1,1.644494319E0,1.760827970E0
8.039258583E0,-2.873346622E-1,1.633730326E-1,1.971926116E0,1.999436062E0
8.049256583E0,-1.166182723E0,6.151267212E-1,2.204040697E0,2.568298741E0
8.059255583E0,-8.726928431E-1,3.341671686E-1,2.098735852E0,2.297379522E0
8.069253583E0,-9.445609707E-1,-3.923092498E-1,2.602314436E0,2.796094132E0
8.079252583E0,-4.113633156E-2,-1.769654701E-1,2.727900349E0,2.733943907E0
8.089250583E0,-6.408751546E-1,-2.564646161E-1,2.289392504E0,2.391194911E0
8.099248583E0,-4.211804983E-1,3.021507392E-1,2.260998425E0,2.319655569E0
8.109247583E0,-4.259610356E-1,5.915619305E-1,2.120105086E0,2.241926381E0
8.119245583E0,-2.186019579E-1,4.839818237E-1,2.250773399E0,2.312575645E0
8.129243583E0,-7.876535699E-1,-1.343941222E-1,2.216447319E0,2.356076961E0
8.139242583E0,-6.185731432E-1,-9.847379934E-2,2.104937993E0,2.196154316E0
8.149240583E0,-4.387765244E-1,-2.157569037E-1,2.014309659E0,2.072804690E0
8.159238583E0,-7.826805130E-1,8.184905061E-3,1.706945506E0,1.877849498E0
8.169237583E0,-1.135508230E0,-2.356437592E-1,1.588216038E0,1.966554628E0
8.179235583E0,3.640236729E-1,-7.382674018E-1,7.299178702E-1,1.100150939E0
8.189234583E0,-3.073273158E-1,-1.376293062E0,6.464599764E-1,1.551303701E0
8.199232583E0,-3.960322085E-1,-5.048737059E-1,1.207439507E0,1.367351137E0
8.209230583E0,1.521607773E-1,7.604966153E-1,7.196869969E-1,1.058044128E0
8.219229583E0,-4.196210459E-2,4.509035765E-1,4.282910049E-1,6.233041300E-1
8.229227583E0,1.851278177E-1,1.841323292E-1,5.938654411E-1,6.487319829E-1
8.239225583E0,-9.124565408E-1,1.086884831E-1,2.000256461E-1,9.404256399E-1
8.249224583E0,-6.865875171E-1,3.979204206E-1,-3.196357048E-1,8.555174245E-1
8.259222583E0,4.694640277E-1,3.475755649E-1,-1.812075520E-1,6.115892605E-1
8.269220583E0,7.654354660E-1,1.267470513E-1,-1.465739089E-1,7.895822810E-1
8.279219583E0,1.315684918E-1,-5.108488294E-1,-4.301153362E-2,5.292700507E-1
8.289217583E0,-1.358926539E-1,7.289000161E-2,-5.843754101E-1,6.043793392E-1
8.299216583E0,1.769374765E-1,3.196541600E-1,-6.337235713E-1,7.314992942E-1
8.309214583E0,5.396189211E-1,2.105612506E-1,-7.569694287E-1,9.531670033E-1
8.319212583E0,3.509921296E-1,-9.050380686E-2,-8.226003313E-1,8.989203075E-1
8.329211583E0,8.950537652E-2,-1.489004978E-1,-1.052005312E0,1.066254073E0
8.339209583E0,4.228697589E-1,2.727227627E-1,-1.035100427E0,1.150925468E0
8.349207583E0,1.623844877E-1,-1.217355855E-1,-1.048285314E0,1.067750146E0
8.359206583E0,1.994893102E-1,-1.478008375E-1,-1.044007491E0,1.073122879E0
8.369204583E0,1.536117639E-1,2.703268295E-1,-8.724887753E-1,9.262342208E-1
8.379202583E0,1.038165830E-1,2.911702895E-1,-1.031848791E0,1.077158274E0
8.389201583E0,2.529194127E-1,4.206511152E-2,-1.051038183E0,1.081859032E0
8.399199583E0,5.724636085E-1,-2.285325766E-2,-1.176529371E0,1.308609268E0
8.409198583E0,6.156001264E-1,1.497667445E-2,-1.150912135E0,1.305291752E0
8.419196583E0,3.575825264E-1,-8.669517727E-2,-1.209300091E0,1.264036403E0
8.429194583E0,1.006605484E-1,-1.907509023E-1,-1.453047123E0,1.468967118E0
8.439193583E0,1.663784283E-1,1.270637968E-1,-1.695614771E0,1.708489521E0
8.449191583E0,3.400218759E-1,-5.761636626E-2,-1.998199410E0,2.027741454E0
8.459189583E0,1.863857000E-1,-4.667147948E-2,-2.263617977E0,2.271757955E0
8.469188583E0,3.922106145E-1,-2.131724709E-1,-2.320015542E0,2.362571435E0
8.479186583E0,5.470470777E-1,-3.389711313E-1,-2.352230192E0,2.438677676E0
8.489184583E0,3.230095482E-1,5.705882968E-2,-3.055198245E0,3.072755635E0
8.499183583E0,6.684427299E-1,-4.718260836E-2,-3.265359455E0,3.333408803E0
8.509181583E0,4.423053190E-1,-2.312960438E-1,-2.959357118E0,3.001154179E0
8.519180583E0,1.010734787E0,-6.131189335E-2,-3.333535066E0,3.483934556E0
8.529178583E0,9.240492305E-1,-9.193272019E-2,-3.115625126E0,3.251067291E0
8.539176583E0,9.350683084E-1,-1.767752346E-1,-2.753226979E0,2.913050123E0
8.549175583E0,8.553121407E-1,-8.927080267E-2,-2.477440129E0,2.622448803E0
8.559173583E0,9.109694476E-1,2.149289928E-1,-2.276532138E0,2.461434212E0
8.569171583E0,6.868741769E-1,-2.236677662E-1,-2.280878373E0,2.392536219E0
8.579170583E0,1.063776781E0,1.409108349E-1,-2.271046280E0,2.511797784E0
8.589168583E0,1.136524037E0,1.789654371E-1,-2.189816176E0,2.473663356E0
8.599166583E0,1.011396400E0,1.558008883E-3,-2.134686872E0,2.362162811E0
8.609166250E0,1.002769564E0,-8.499806860E-2,-2.068795184E0,2.300583618E0
8.619164250E0,9.436971907E-1,-7.383144901E-2,-2.041805021E0,2.250551758E0
8.629163250E0,6.265851443E-1,-4.922195273E-2,-1.967510299E0,2.065460849E0
8.639161250E0,3.903188941E-1,2.958871287E-1,-1.961143266E0,2.021380949E0
8.649159250E0,8.033533439E-2,2.491870253E-1,-1.880544076E0,1.898682164E0
8.659158250E0,2.272856578E-2,1.120681646E-1,-1.835980691E0,1.839538246E0
8.669156250E0,2.320898764E-1,-7.124245724E-2,-1.726340135E0,1.743327698E0
8.679154250E0,1.834068359E-1,-1.901614116E-1,-1.685424829E0,1.706005944E0
8.689153250E0,-7.158015221E-3,-3.996161497E-1,-1.360288063E0,1.417789801E0
8.699151250E0,-1.829187396E-1,-8.226239394E-2,-1.126070239E0,1.143792179E0
8.709149250E0,-7.156114876E-3,1.269855355E-1,-9.863095057E-1,9.944762326E-1
8.719148250E0,-4.909667248E-1,-1.457710862E-1,-7.291881377E-1,8.910740006E-1
8.729146250E0,-3.152271965E-1,-7.411002316E-2,-4.774695969E-1,5.769208758E-1
8.739145250E0,2.619669557E-2,-5.365228753E-2,-4.222496617E-1,4.264500107E-1
8.749143250E0,1.144010666E-1,-4.870894178E-2,-3.233983880E-1,3.464775352E-1
8.759141250E0,1.673449731E-1,-1.904977544E-1,-1.992210692E-1,3.224635931E-1
8.769140250E0,2.952598321E-1,-2.278633993E-1,-9.506169319E-2,3.848854670E-1
8.779138250E0,2.931758845E-1,-2.046817474E-1,-1.185464501E-2,3.577530567E-1
8.789136250E0,3.705843951E-1,-1.316676934E-1,2.858235955E-2,3.943172918E-1
8.799135250E0,3.589658314E-1,2.265393156E-2,6.278681695E-2,3.651189575E-1
8.809133250E0,2.414154544E-1,1.119050638E-1,1.024227530E-1,2.851220533E-1
8.819131250E0,1.772054252E-1,1.965972774E-1,1.524404204E-1,3.054346640E-1
8.829130250E0,8.652534306E-2,1.349208832E-1,2.109517533E-1,2.649356939E-1
8.839128250E0,8.787634224E-2,1.119748741E-1,1.885183257E-1,2.362197771E-1
8.849127250E0,1.001043320E-2,4.051320110E-2,2.295108157E-1,2.332739651E-1
8.859125250E0,-5.104736209E-2,1.168483273E-1,2.543158740E-1,2.844924051E-1
8.869123250E0,-1.624265876E-1,1.366578352E-1,2.998001951E-1,3.673389678E-1
8.879122250E0,-2.073358351E-1,1.967866175E-1,3.503984910E-1,4.522081643E-1
8.889120250E0,-3.052995014E-1,1.905015185E-1,3.875025827E-1,5.288259314E-1
8.899118250E0,-2.976086587E-1,1.182641758E-1,3.955150223E-1,5.089100725E-1
8.909117250E0,-3.174564475E-1,4.477263275E-2,3.714239091E-1,4.906515107E-1
8.919115250E0,-3.576779822E-1,1.944275949E-2,3.128131735E-1,4.755666529E-1
8.929113250E0,-3.525300935E-1,6.848891202E-2,2.313041568E-1,4.271648521E-1
8.939112250E0,-2.843185222E-1,5.505495233E-2,1.437017566E-1,3.232928467E-1
8.949110250E0,-7.568986773E-2,1.643561871E-2,5.715945661E-2,9.626156616E-2
8.959109250E0,-3.664450049E-2,-9.441796043E-2,4.740863979E-2,1.118264271E-1
8.969107250E0,4.909380734E-2,-1.324763908E-1,5.461124003E-2,1.514680942E-1
8.979105250E0,-2.840577364E-3,-1.859460990E-1,9.771165133E-2,2.100751947E-1
8.989104250E0,1.060272691E-1,-1.488228577E-1,7.559689701E-2,1.977496286E-1
8.999102250E0,9.289559215E-2,-1.309331826E-1,2.223403752E-2,1.620723350E-1
9.009100250E0,1.843530616E-1,-9.746816961E-2,-7.616290748E-2,2.220064952E-1
9.019099250E0,2.016633050E-1,-1.000554346E-1,-1.929411596E-1,2.964885658E-1
9.029097250E0,2.113005397E-1,-9.977449419E-2,-3.006743538E-1,3.807990741E-1
9.039096250E0,1.900685687E-1,-1.126233029E-1,-4.029070723E-1,4.595042743E-1
9.049094250E0,1.894524184E-1,-1.332606394E-1,-4.837009746E-1,5.362995895E-1
9.059092250E0,1.805849697E-1,-1.037328034E-1,-5.959610832E-1,6.313010680E-1
9.069091250E0,1.060357475E-1,-7.652228284E-2,-6.441468179E-1,6.572856020E-1
9.079089250E0,2.807102054E-2,-2.867645404E-2,-7.175896007E-1,7.187107598E-1
9.089087250E0,-2.093887925E-2,4.507378262E-2,-7.557350814E-1,7.573675434E-1
9.099086250E0,-6.130074710E-3,1.083843274E-1,-7.997464889E-1,8.070806569E-1
9.109084250E0,6.631385744E-2,1.217431869E-1,-8.233300638E-1,8.349199514E-1
9.119082250E0,1.243650144E-1,8.979687849E-2,-8.317623335E-1,8.457888127E-1
9.129081250E0,1.930041634E-1,4.678891716E-2,-8.594787204E-1,8.821244134E-1
9.139079250E0,2.324832478E-1,2.958448095E-2,-9.064172441E-1,9.362242906E-1
9.149078250E0,2.655564152E-1,6.317192920E-2,-9.754693526E-1,1.012941933E0
9.159076250E0,2.845386699E-1,9.335666338E-2,-1.107509422E0,1.147281501E0
9.169074250E0,3.581646167E-1,9.570614772E-2,-1.272147719E0,1.325066556E0
9.179073250E0,3.932563891E-1,9.340969032E-2,-1.420039006E0,1.476443949E0
9.189071250E0,4.415431345E-1,6.849917206E-2,-1.488253208E0,1.553882263E0
9.199069250E0,3.657965487E-1,-9.394301120E-3,-1.463345239E0,1.508401358E0
9.209068250E0,3.319487715E-1,-3.644531144E-2,-1.391623292E0,1.431130195E0
9.219066250E0,3.353620836E-1,-3.022513479E-2,-1.281209149E0,1.324718147E0
9.229064250E0,4.400646660E-1,1.200982464E-2,-1.276481676E0,1.350261684E0
9.239063250E0,4.782896689E-1,-3.580748985E-2,-1.340234452E0,1.423471662E0
9.249061250E0,5.087096621E-1,-5.582216185E-2,-1.415029696E0,1.504729436E0
9.259059250E0,5.038572040E-1,-1.079173358E-1,-1.518737667E0,1.603771285E0
9.269058250E0,5.638439356E-1,-1.020251058E-1,-1.560386215E0,1.662267802E0
9.279056250E0,5.492982557E-1,-8.935944281E-2,-1.706929718E0,1.795361453E0
9.289055250E0,4.845203157E-1,-4.987170629E-2,-1.740179910E0,1.807062047E0
9.299053250E0,3.060093534E-1,-1.051284515E-1,-1.643696759E0,1.675241102E0
9.309051250E0,2.763462822E-1,-1.129236397E-1,-1.585708752E0,1.613564768E0
9.319050250E0,3.170452420E-1,-1.284621676E-1,-1.589079087E0,1.625482254E0
9.329048250E0,3.720105310E-1,-1.120036716E-1,-1.540339621E0,1.588578863E0
9.339046250E0,3.744849265E-1,-9.677444316E-2,-1.429041964E0,1.480461140E0
9.349045250E0,2.557589668E-1,-7.638879273E-2,-1.219865425E0,1.248727173E0
9.359043250E0,1.878958896E-1,-4.735659043E-2,-9.606723887E-1,9.800198724E-1
9.369042250E0,1.023617958E-1,-2.222517533E-2,-7.502837223E-1,7.575602679E-1
9.379040250E0,1.524119152E-1,2.786400170E-2,-5.888964772E-1,6.089374807E-1
9.389038250E0,2.148113541E-1,9.092942934E-2,-4.838202578E-1,5.371164872E-1
9.399037250E0,2.928705136E-1,1.705965914E-1,-4.834320027E-1,5.904090412E-1
9.409035250E0,2.704885416E-1,1.644949671E-1,-5.950442398E-1,6.740180210E-1
9.419033250E0,1.325192490E-1,1.574371403E-1,-4.850575286E-1,5.269047452E-1
9.429032250E0,1.698572293E-2,1.244762029E-1,-3.426351428E-1,3.649406540E-1
9.439030250E0,1.328535636E-1,1.706429854E-1,-5.175464129E-1,5.609129945E-1
9.449028250E0,1.847402935E-1,1.521190976E-1,-5.297097909E-1,5.812586847E-1
9.459027250E0,9.522599995E-2,1.008163675E-1,-4.279466039E-1,4.498557845E-1
9.469025250E0,-1.450349218E-1,-2.775627589E-3,-2.373104167E-1,2.781349789E-1
9.479023250E0,-2.327893496E-1,-7.959437340E-2,-2.460373861E-1,3.479375531E-1
9.489022250E0,-1.648213148E-2,-9.762997303E-2,-4.168614525E-1,4.284585661E-1
9.499020250E0,1.918436372E-1,-3.710798370E-2,-6.418476927E-1,6.709317732E-1
9.509019250E0,2.630595079E-1,-2.805192573E-3,-9.357743597E-1,9.720503208E-1
9.519017250E0,1.503611505E-1,-1.322045409E-1,-9.402059644E-1,9.612875594E-1
9.529015250E0,1.751153380E-1,-2.567349767E-1,-8.751586139E-1,9.286984599E-1
9.539014250E0,2.357889712E-1,-2.447901932E-1,-7.966375244E-1,8.661120152E-1
9.549012250E0,2.719630632E-1,-2.110244597E-1,-8.626648682E-1,9.288088637E-1
9.559010250E0,3.747632539E-1,-1.356237094E-1,-9.336027038E-1,1.015113440E0
9.569009250E0,3.636851192E-1,-1.873592614E-1,-8.553488320E-1,9.481518777E-1
9.579007250E0,1.628709760E-1,6.085032877E-4,-8.538437587E-1,8.692390289E-1
9.589005250E0,7.285572231E-2,2.605865011E-1,-8.037342900E-1,8.480578340E-1
9.599004250E0,1.294061914E-1,1.494244448E-1,-8.149165052E-1,8.385478743E-1
9.609001708E0,2.698782384E-1,2.606568139E-2,-9.194196975E-1,9.585646893E-1
9.619000708E0,1.652920157E-2,1.126868822E-1,-6.101780033E-1,6.207163150E-1
9.628998708E0,-6.693249285E-2,3.332422121E-1,-5.007391763E-1,6.052024894E-1
9.638996708E0,-4.783241674E-2,2.626749438E-1,-3.764490062E-1,4.615191442E-1
9.648995708E0,3.928815825E-1,-7.552337741E-2,-2.528873992E-1,4.732988011E-1
9.658993708E0,6.137812038E-1,-1.430219630E-1,-2.516244006E-1,6.785996515E-1
9.668991708E0,4.102238394E-1,-9.266271765E-2,-4.071480578E-1,5.853541822E-1
9.678990708E0,1.591895691E-1,1.774652060E-1,-3.862688202E-1,4.539149917E-1
9.688988708E0,7.567641914E-2,1.074922067E-1,-1.953379333E-2,1.329024605E-1
9.698987708E0,1.134196115E-1,-1.800669795E-1,1.262706220E-1,2.474518041E-1
9.708985708E0,-1.807994163E-1,-1.591832833E-1,3.573134083E-1,4.309299460E-1
9.718983708E0,-7.045163959E-2,-1.874945148E-1,5.914423549E-1,6.244370951E-1
9.728982708E0,-2.702083138E-1,-1.614179978E-1,8.246556276E-1,8.826806937E-1
9.738980708E0,-5.433256173E-1,3.951193850E-1,9.408322012E-1,1.156065433E0
9.748978708E0,-8.713023752E-2,1.462728687E-1,1.562345032E0,1.571594550E0
9.758977708E0,-5.560093975E-1,5.418062183E-1,2.069298044E0,2.210134572E0
9.768975708E0,-8.317895231E-1,1.616665958E-1,2.463777525E0,2.605419274E0
9.778973708E0,-9.000101575E-1,-1.057464931E-1,2.622093228E0,2.774269904E0
9.788972708E0,-3.766214991E-1,-4.177675516E-1,2.314211596E0,2.381585352E0
9.798970708E0,-6.749131125E-1,-5.667721481E-1,1.843271000E0,2.043131507E0
9.808968708E0,-3.825923833E-1,-2.018323626E-1,1.930254180E0,1.978129023E0
9.818967708E0,-2.099663805E0,4.296354990E-2,1.959603109E0,2.872364584E0
9.828965708E0,-1.077546535E0,-5.519972574E-2,1.619038466E0,1.945620492E0
9.838964708E0,-4.591432536E-1,3.241610842E-1,1.558609246E0,1.656851145E0
9.848962708E0,-3.948414230E-1,2.951194990E-1,1.385984237E0,1.471036224E0
9.858960708E0,-1.924418074E-1,2.173689811E-1,1.683134474E0,1.707988519E0
9.868959708E0,-7.157015347E-1,2.113507709E-1,1.921265840E0,2.061106563E0
9.878957708E0,-3.281121209E-1,2.956378912E-1,2.054692284E0,2.101623113E0
9.888955708E0,2.260409318E-1,5.512874785E-1,2.339850467E0,2.414521194E0
9.898954708E0,6.156334555E-1,4.663816680E-1,2.155508807E0,2.289701865E0
9.908952708E0,8.853152275E-1,-1.581237861E-2,1.661945334E0,1.883107904E0
9.918951708E0,9.555307858E-1,-6.179178165E-1,1.161245334E0,1.625838933E0
9.928949708E0,-3.362388736E-1,-8.890375284E-2,7.735287434E-1,8.481197877E-1
9.938947708E0,-9.160036080E-1,-1.242035947E-1,8.288919353E-1,1.241592116E0
9.948946708E0,-3.972495988E-1,-3.304219173E-1,1.044323825E0,1.165160135E0
9.958944708E0,-6.814739808E-1,-9.932590677E-1,1.191352063E0,1.694193053E0
9.968942708E0,-8.786488169E-1,-2.607607482E-1,1.433671789E0,1.701597693E0
9.978941708E0,-1.671915129E0,5.827394688E-1,1.039077703E0,2.052941295E0
9.988939708E0,-1.363882785E0,6.070366598E-1,2.740940809E-1,1.517826513E0
9.998937708E0,2.264027283E-2,5.326049301E-1,2.677118450E-1,5.965318311E-1
1.000893671E1,6.522493047E-1,2.149922158E-1,3.204274178E-3,6.867758555E-1
1.001893471E1,5.091607748E-1,1.802828148E-2,-1.814449489E-1,5.408252796E-1
1.002893371E1,-1.537920043E-1,-6.647787184E-2,-1.269652712E-1,2.102176684E-1
1.003893171E1,2.511373276E-1,-8.918109359E-2,-1.843708956E-1,3.240614940E-1
1.004892971E1,6.208199358E-1,-1.482765633E-1,-2.828105253E-1,6.981297337E-1
1.005892871E1,-2.658012673E-2,-5.600803021E-2,-5.385461032E-2,8.212016585E-2
1.006892671E1,2.472701253E-1,-9.981948121E-2,-1.573035496E-1,3.095978850E-1
1.007892471E1,2.008838712E-1,-9.043617102E-2,-1.582671708E-1,2.712591530E-1
1.008892371E1,6.276448059E-1,-1.627539952E-1,-2.930314583E-1,7.115436043E-1
1.009892171E1,1.789524271E-1,7.308647719E-2,1.296982598E-1,2.327815347E-1
1.010891971E1,-2.240287587E-1,-1.048840014E-1,-2.210504794E-1,3.317421482E-1
1.011891871E1,-3.991163224E-2,-3.189989430E-1,-3.225628209E-1,4.554119426E-1
1.012891671E1,-1.834173609E-1,-3.905506996E-2,-1.035027337E-1,2.141962714E-1
1.013891571E1,-1.756041652E-1,7.760047286E-2,-2.635796177E-1,3.260872140E-1
1.014891371E1,1.270800228E-1,1.330607012E-1,2.258954823E-2,1.853773721E-1
1.015891171E1,8.363024041E-2,2.861423053E-1,1.231341755E-1,3.225421851E-1
1.016891071E1,2.303968151E-1,-2.334030331E-2,3.488273442E-2,2.341885294E-1
1.017890871E1,1.623801023E-1,-4.888617637E-2,-8.186394274E-2,1.883052335E-1
1.018890671E1,2.170194089E-3,-9.647240706E-2,-2.022855949E-1,2.241229506E-1
1.019890571E1,-7.500393087E-1,-6.099515699E-2,6.772619390E-1,1.012404617E0
1.020890371E1,-1.526338755E0,5.822916817E-2,4.980171220E0,5.209146380E0
1.021890171E1,-3.126762317E0,2.807916096E-2,8.837688729E0,9.374549221E0
1.022890071E1,3.850892906E-1,5.235042506E-1,4.991515403E0,5.033644453E0
1.023889871E1,5.842222130E-1,-4.017283467E-1,8.171197361E-1,1.081843760E0
1.024889771E1,2.944502851E-1,-5.458001590E-1,-6.976055717E-1,9.334089766E-1
1.025889571E1,2.749375418E-1,-6.483502351E-3,-7.111319357E-1,7.624574202E-1
1.026889371E1,5.326063554E-1,-8.799249169E-2,-1.749119133E0,1.830527233E0
1.027889271E1,7.593422288E-1,1.382677746E-1,-2.432612450E0,2.552121065E0
1.028889071E1,1.701057360E-1,-1.165627457E-1,-2.419838038E0,2.428608442E0
1.029888871E1,-2.497161618E-1,5.923600389E-2,-1.088651567E0,1.118494211E0
1.030888771E1,-1.769342898E0,7.245481345E-2,9.173638165E-1,1.994337074E0
1.031888571E1,-1.682566271E0,9.020915470E-1,1.404596509E0,2.370166612E0
1.032888371E1,-5.966949087E-1,7.528043839E-1,1.172554434E0,1.515797861E0
1.033888271E1,1.257324004E0,7.660809986E-1,3.512907761E-1,1.513654174E0
1.034888071E1,8.692960493E-1,2.190548978E-1,-1.028829288E-1,9.023555655E-1
1.035887971E1,5.871075216E-1,-4.693468641E-1,-7.479232013E-2,7.553645557E-1
1.036887771E1,7.475725146E-1,-7.880018447E-1,-4.392334843E-1,1.171638863E0
1.037887571E1,4.589130194E-1,-7.116040984E-1,-5.505621314E-1,1.010000105E0
1.038887471E1,-1.778484727E-1,-8.304506203E-2,-8.907648325E-3,1.964838614E-1
1.039887271E1,-7.671283811E-1,6.356046754E-2,4.303082943E-1,8.818679688E-1
1.040887071E1,-1.354599015E0,-2.990711021E-2,2.380255312E-1,1.375677680E0
1.041886971E1,-1.005366020E0,2.553010750E-1,-2.353919452E-1,1.063648834E0
1.042886771E1,-4.418568376E-1,2.974718704E-1,-3.382678574E-1,6.309929650E-1
1.043886571E1,-4.064253420E-2,2.104465721E-1,-2.187098390E-1,3.062247034E-1
1.044886471E1,3.760758077E-1,2.436020390E-2,-1.575158036E-1,4.084576612E-1
1.045886271E1,6.922233559E-1,-1.217062489E-1,-2.787601590E-2,7.033936720E-1
1.046886171E1,6.919641781E-1,-3.374279049E-1,1.154369009E-1,7.784585364E-1
1.047885971E1,7.439583506E-1,-3.768908730E-1,2.219030035E-1,8.629957708E-1
1.048885771E1,7.196314484E-1,-2.441267901E-1,2.864100713E-1,8.120948467E-1
1.049885671E1,6.277472784E-1,-1.275995845E-2,2.977226794E-1,6.948872253E-1
1.050885471E1,2.056777109E-1,-8.926203185E-2,1.095458311E-1,2.495422213E-1
1.051885271E1,2.521364705E-1,5.109556507E-2,-1.675162965E-1,3.069939187E-1
1.052885171E1,2.495786060E-1,1.113009734E-1,-2.904230154E-1,3.987767735E-1
1.053884971E1,-1.010803784E-1,1.399746591E-1,-2.127556193E-1,2.739983606E-1
1.054884771E1,-4.726224013E-1,4.026365289E-2,-3.936930299E-2,4.759653747E-1
1.055884671E1,-3.802833179E-1,4.489116677E-2,-6.923103333E-2,3.891317960E-1
1.056884471E1,-3.856326431E-1,-1.327600264E-2,-5.398909628E-2,3.896198278E-1
1.057884371E1,-3.598508075E-1,4.928438089E-2,1.023379683E-1,3.773521083E-1
1.058884171E1,-3.954707296E-1,-1.754157387E-1,6.160100162E-2,4.369925203E-1
1.059883971E1,-1.892101975E-1,-1.031713976E-1,1.438473523E-2,2.159901774E-1
1.060883883E1,-2.106941834E-2,2.779034506E-2,2.808417678E-3,3.498729594E-2
1.061883683E1,9.449831396E-3,4.096078718E-2,-3.168079913E-2,5.263799420E-2
1.062883483E1,1.294710955E-1,1.952230721E-1,-1.173243821E-2,2.345473567E-1
1.063883383E1,8.215981185E-2,2.694039013E-1,-7.468063831E-3,2.817524955E-1
1.064883183E1,1.049329627E-1,2.567070928E-1,-6.917373061E-2,2.858224329E-1
1.065882983E1,1.431562114E-1,1.360297437E-1,-6.875623941E-2,2.091057448E-1
1.066882883E1,1.994330308E-1,5.464698114E-2,-6.338381767E-2,2.162806849E-1
1.067882683E1,2.778320597E-1,-5.697612813E-2,-3.713800550E-2,2.860352496E-1
1.068882583E1,2.556763749E-1,-1.516732200E-1,-7.104951739E-3,2.973645148E-1
1.069882383E1,2.569554533E-1,-1.324699862E-1,-3.265962303E-2,2.909313548E-1
1.070882183E1,2.476266593E-1,-9.449105976E-2,2.992371082E-2,2.667263602E-1
1.071882083E1,1.854773350E-1,-4.540692774E-2,1.381714600E-1,2.357010464E-1
1.072881883E1,9.960322559E-2,-8.168834355E-3,1.056194258E-1,1.454063118E-1
1.073881683E1,2.558610007E-2,4.754380183E-3,-3.307769895E-3,2.623345173E-2
1.074881583E1,-1.560022518E-2,6.664076247E-2,-4.262210906E-2,8.062879404E-2
1.075881383E1,-9.508829802E-2,8.286777263E-2,-6.030175030E-2,1.398039815E-1
1.076881183E1,-1.964199606E-1,9.622755490E-2,-6.652728081E-2,2.286185083E-1
1.077881083E1,-3.006188053E-1,7.653847232E-2,-6.228395641E-2,3.164002134E-1
1.078880883E1,-3.126089595E-1,5.509794764E-2,-3.970084012E-2,3.199004566E-1
1.079880783E1,-2.389613780E-1,3.351858814E-2,1.570796013E-2,2.418114471E-1
1.080880583E1,-1.446166997E-1,-9.413268026E-3,2.981261373E-2,1.479573972E-1
1.081880383E1,6.136214286E-3,-5.671972772E-2,1.775740921E-2,5.975036586E-2
1.082880283E1,1.646385893E-1,-1.409118764E-1,4.964286089E-4,2.167077951E-1
1.083880083E1,3.013403517E-1,-1.131104765E-1,5.326813459E-3,3.219135946E-1
1.084879883E1,3.715589797E-1,-5.051091660E-2,2.508338571E-2,3.758145878E-1
1.085879783E1,3.348720869E-1,-5.437278327E-2,2.586048067E-2,3.402417944E-1
1.086879583E1,3.081906572E-1,4.448370720E-2,3.973066092E-2,3.139089148E-1
1.087879383E1,2.146507019E-1,8.506275343E-2,4.657775044E-2,2.355421038E-1
1.088879283E1,1.007035254E-1,1.232819000E-1,9.501725435E-4,1.591870903E-1
1.089879083E1,-4.137899101E-2,1.392064355E-1,-4.291563928E-2,1.514344897E-1
1.090878983E1,-1.959757183E-1,1.265965860E-1,-6.947953999E-2,2.434349692E-1
1.091878783E1,-2.687112804E-1,3.021106493E-2,-6.457372606E-2,2.780076020E-1
1.092878583E1,-3.225164817E-1,-6.525132699E-2,-3.955349028E-2,3.314198172E-1
1.093878483E1,-3.208169885E-1,-2.330327765E-1,2.588328481E-2,3.973635105E-1
1.094878283E1,-2.972616264E-1,-3.746195951E-1,8.837423265E-2,4.863273801E-1
1.095878083E1,-2.081426047E-1,-3.707735891E-1,1.779740417E-1,4.609459380E-1
1.096877983E1,-1.288566993E-1,-2.382550344E-1,2.363052803E-1,3.594575022E-1
1.097877783E1,-2.211302939E-1,-2.388439586E-2,2.430827880E-1,3.294818858E-1
1.098877583E1,1.229654834E-1,1.796679801E-1,2.085906476E-1,3.015147615E-1
1.099877483E1,4.617921884E-1,1.837235723E-1,2.284717655E-1,5.469970054E-1
1.100877283E1,1.660834363E-1,1.882837427E-1,3.476643330E-1,4.288414206E-1
1.101877183E1,9.295918062E-2,1.052662265E-1,4.267426622E-1,4.492568168E-1
1.102876983E1,-1.914736547E-1,1.047110608E-1,5.458182853E-1,5.878300497E-1
1.103876783E1,8.999741971E-2,-5.534787957E-2,5.032675123E-1,5.142383808E-1
1.104876683E1,-3.326065832E-1,-1.446197512E-1,6.830378187E-1,7.733580499E-1
1.105876483E1,-3.160363050E-1,-1.188040109E-1,7.088468438E-1,7.851478759E-1
1.106876283E1,-9.608334795E-2,-1.223099283E-1,7.927918106E-1,8.079050584E-1
1.107876183E1,-2.492036533E-1,-6.366961861E-2,8.269705403E-1,8.660465090E-1
1.108875983E1,-3.046561615E-1,5.426894037E-2,8.051469773E-1,8.625671856E-1
1.109875783E1,-2.607817250E-1,9.194718291E-2,8.732056439E-1,9.159418590E-1
1.110875683E1,-3.664252706E-1,1.491097550E-1,9.111394554E-1,9.933158134E-1
1.111875483E1,-4.907138327E-1,1.748055086E-1,1.009148145E0,1.135665889E0
1.112875383E1,-4.981425740E-1,1.733998563E-1,1.170087494E0,1.283478974E0
1.113875183E1,-2.986146721E-1,2.148798945E-1,1.239413252E0,1.292860898E0
1.114874983E1,-5.461449985E-1,4.555505050E-1,1.405008153E0,1.574753483E0
1.115874883E1,-1.266594619E-1,-2.053033064E-1,1.523320130E0,1.542302268E0
1.116874683E1,-6.796218753E-2,1.561527445E-1,1.602073354E0,1.611099491E0
1.117874483E1,-1.913969100E-1,2.622245255E-1,1.651490512E0,1.683096964E0
1.118874383E1,-2.152886331E-1,1.296001728E-1,1.713996663E0,1.732319244E0
1.119874183E1,-2.112856293E-1,1.206388397E-2,1.660422134E0,1.673854480E0
1.120873983E1,-4.624747047E-1,-4.316994200E-1,1.375020708E0,1.513581576E0
1.121873883E1,-4.788679585E-1,-2.942659517E-1,1.570038214E0,1.667611155E0
1.122873683E1,1.009287894E-2,2.019282570E-1,1.719702376E0,1.731546462E0
1.123873583E1,-6.435647276E-1,-2.826876607E-2,1.494548905E0,1.627467699E0
1.124873383E1,-9.982767096E-1,-1.039564046E-1,1.481913072E0,1.789812749E0
1.125873183E1,-6.240768349E-1,8.088143692E-2,1.780857820E0,1.888774279E0
1.126873083E1,-2.370861760E-1,1.427541970E-1,1.974336923E0,1.993638609E0
1.127872883E1,-4.582302108E-1,-3.198265067E-1,1.710950848E0,1.799893532E0
1.128872683E1,-4.725710919E-1,-2.298913233E-1,1.621965582E0,1.704976776E0
1.129872583E1,-2.523307443E-2,2.493374815E-1,1.880537059E0,1.897162491E0
1.130872383E1,-4.284222749E-1,-2.747597499E-2,1.752696460E0,1.804506984E0
1.131872183E1,-3.647981367E-1,2.610284775E-1,1.930386912E0,1.981819158E0
1.132872083E1,-5.220300579E-1,1.762008370E-1,1.900822805E0,1.979062771E0
1.133871883E1,-6.795844531E-1,1.025468236E-1,2.035264910E0,2.148174605E0
1.134871783E1,-4.510948536E-1,9.064647892E-2,2.136465011E0,2.185448717E0
1.135871583E1,-7.893536478E-1,8.226239394E-2,2.158155842E0,2.299452744E0
1.136871383E1,-3.122898477E-1,1.321226799E-1,2.207159017E0,2.233054473E0
1.137871283E1,-4.694422469E-1,-1.165577573E-2,2.173746858E0,2.223890123E0
1.138871083E1,-7.228053170E-1,-4.027125427E-2,1.782198586E0,1.923616672E0
1.139870883E1,-4.479768258E-1,3.479826042E-2,1.648486213E0,1.708625456E0
1.140870783E1,-3.733029118E-1,3.545564278E-2,1.504162313E0,1.550198836E0
1.141870583E1,-5.765296161E-1,6.152031918E-2,1.126056206E0,1.266559800E0
1.142870383E1,-1.065095474E0,-1.615364587E-2,9.024089777E-1,1.396077101E0
1.143870283E1,-7.235183850E-1,-2.715482398E-1,5.356833065E-1,9.403052189E-1
1.144870083E1,7.593062684E-1,-3.269691364E-1,6.219636512E-1,1.034549955E0
1.145869983E1,9.428489059E-2,-5.396102965E-1,5.538049972E-1,7.789537134E-1
1.146869783E1,6.563616514E-2,-3.485640002E-1,5.713934219E-1,6.725291153E-1
1.147869583E1,1.929051992E-1,1.317524963E-1,3.495056212E-1,4.203871019E-1
1.148869483E1,-1.952046168E-1,4.973977849E-1,9.154283881E-2,5.421157535E-1
1.149869283E1,-5.483752728E-1,5.546079661E-1,-9.924654543E-2,7.862285371E-1
1.150869083E1,2.239963067E-1,2.240256158E-1,2.255095661E-2,3.176009565E-1
1.151868983E1,1.638246569E-1,1.991573346E-1,-2.131929910E-1,3.345944015E-1
1.152868783E1,1.837987456E-1,2.992053871E-1,-5.597212100E-1,6.607523556E-1
1.153868583E1,5.020109457E-1,1.565222885E-1,-4.960210580E-1,7.228769649E-1
1.154868483E1,3.326881519E-1,-2.295896435E-1,-2.896424121E-1,4.972781291E-1
1.155868283E1,2.864632809E-1,-1.172382727E-1,-4.529364341E-1,5.485958779E-1
1.156868083E1,-2.572599471E-2,-1.123709499E-1,-6.522919893E-1,6.624001030E-1
1.157867983E1,3.876870623E-1,1.605084451E-1,-5.625600332E-1,7.018105230E-1
1.158867783E1,-1.617310613E-2,1.016713401E-1,-6.317805415E-1,6.401134926E-1
1.159867683E1,4.149973601E-2,5.561595613E-2,-6.305590582E-1,6.343658948E-1
1.160867550E1,-1.659439802E-2,-7.919567551E-2,-6.094237125E-1,6.147719825E-1
1.161867350E1,2.099267364E-2,1.910915391E-1,-7.104320240E-1,7.359825605E-1
1.162867250E1,-9.684743285E-2,4.449084263E-2,-6.093664098E-1,6.186164253E-1
1.163867050E1,1.056036383E-1,1.922831286E-2,-6.953345132E-1,7.035708505E-1
1.164866850E1,3.154979226E-1,-7.839794171E-2,-7.802752608E-1,8.452896894E-1
1.165866750E1,3.154616699E-1,-1.801374932E-1,-9.713821489E-1,1.037086718E0
1.166866550E1,4.010423952E-1,-8.069315658E-2,-1.002270066E0,1.082539455E0
1.167866450E1,2.380866346E-1,-8.095519407E-2,-8.150960147E-1,8.530067422E-1
1.168866250E1,2.897190106E-1,-5.692570503E-2,-8.895527047E-1,9.372735222E-1
1.169866050E1,1.347894305E-1,-2.177733343E-2,-8.295438999E-1,8.407053733E-1
1.170865950E1,2.134157699E-1,2.425244154E-2,-8.147405040E-1,8.425773322E-1
1.171865750E1,3.540693730E-1,-1.100244165E-1,-8.731325537E-1,9.485941964E-1
1.172865550E1,4.765550923E-1,-1.907838294E-1,-9.856809300E-1,1.111337087E0
1.173865450E1,4.335029206E-1,-1.986775340E-1,-1.176446925E0,1.269419124E0
1.174865250E1,2.681448314E-1,-1.604425543E-1,-1.353158553E0,1.388769792E0
1.175865050E1,2.290813377E-1,3.755118437E-2,-1.436463250E0,1.455099660E0
1.176864950E1,2.540530416E-1,6.908952157E-2,-1.503874630E0,1.526746610E0
1.177864750E1,3.374574333E-1,8.016982164E-2,-1.471393932E0,1.511722468E0
1.178864650E1,4.596274030E-1,5.666241587E-2,-2.082154902E0,2.133034696E0
1.179864450E1,3.104532373E-1,4.975099783E-2,-1.609546680E0,1.639968564E0
1.180864250E1,5.872782603E-1,-4.192303788E-2,-1.944781587E0,2.031951948E0
1.181864150E1,6.558263388E-1,-5.176197407E-2,-1.856528977E0,1.969641422E0
1.182863950E1,6.440170097E-1,-3.027629793E-2,-1.765418832E0,1.879462214E0
1.183863750E1,5.566058135E-1,-7.888277639E-3,-1.541152968E0,1.638604506E0
1.184863650E1,4.865579242E-1,2.753782757E-3,-1.564327238E0,1.638250868E0
1.185863450E1,2.402705696E-1,-2.827545382E-2,-1.509731786E0,1.528992973E0
1.186863250E1,2.098673871E-1,-3.456142992E-3,-1.681927024E0,1.694973386E0
1.187863150E1,3.395045435E-1,-6.389807115E-2,-1.722845255E0,1.757140310E0
1.188862950E1,5.482618368E-1,-1.126041259E-2,-1.943707454E0,2.019583250E0
1.189862750E1,4.459010643E-1,-1.681002872E-1,-1.943229736E0,2.000806656E0
1.190862650E1,3.871347928E-1,-1.501838520E-1,-2.092242519E0,2.133051170E0
1.191862450E1,3.227815068E-1,-1.149543777E-1,-2.099208891E0,2.126988571E0
1.192862350E1,3.010418513E-1,-3.767947594E-2,-2.215729866E0,2.236404431E0
1.193862150E1,3.562214407E-1,-4.244512115E-2,-2.251235329E0,2.279639403E0
1.194861950E1,2.809306455E-1,-4.909168772E-2,-2.354420559E0,2.371629859E0
1.195861850E1,2.075086203E-1,-6.675030640E-2,-2.213028452E0,2.223737926E0
1.196861650E1,2.554572505E-1,-5.779305724E-2,-2.190755823E0,2.206356617E0
1.197861450E1,6.484404284E-1,2.392274446E-1,-1.960294835E0,2.078571769E0
1.198861350E1,4.095851773E-1,7.404501856E-2,-1.972388046E0,2.015826701E0
1.199861150E1,4.724860150E-1,2.171990281E-2,-1.846006912E0,1.905638032E0
1.200860950E1,5.508091763E-1,1.994295225E-2,-1.733925143E0,1.819418828E0
1.201860850E1,7.136664113E-1,8.701351248E-3,-1.593842813E0,1.746347724E0
1.202860650E1,5.739033392E-1,-1.647237942E-1,-1.103994076E0,1.255110311E0
1.203860550E1,4.560649869E-1,-8.042059410E-3,-1.103359069E0,1.193926791E0
1.204860350E1,6.434270257E-1,-1.359965425E-1,-1.136029217E0,1.312652192E0
1.205860150E1,8.947795308E-1,-7.956617885E-2,-1.053681709E0,1.384632200E0
1.206860050E1,5.210035792E-1,7.331677526E-4,-9.206505364E-1,1.057848135E0
1.207859850E1,3.990885481E-1,-7.142379401E-2,-7.032381946E-1,8.117370177E-1
1.208859650E1,1.767978743E-1,-2.440932965E-1,-4.468974298E-1,5.390327806E-1
1.209859550E1,2.580642316E-1,-2.312740436E-1,-2.583527917E-1,4.322395121E-1
1.210859350E1,2.043800676E-1,-1.662689027E-1,-1.756135207E-1,3.166333348E-1
1.211859150E1,1.599040988E-1,-8.541959804E-3,-9.712283671E-2,1.872835586E-1
1.212859050E1,6.220765024E-2,8.497602277E-2,-3.474357069E-2,1.108955901E-1
1.213858850E1,-4.454847425E-2,6.780981274E-2,8.274219453E-2,1.158835968E-1
1.214858750E1,-1.921237189E-1,2.446404680E-2,1.822471869E-1,2.659399370E-1
1.215858550E1,-3.637985551E-1,-3.918319708E-3,2.989909405E-1,4.709143493E-1
1.216858350E1,-4.181405309E-1,1.159854610E-2,3.139025098E-1,5.229826149E-1
1.217858250E1,-4.177391195E-1,2.266779128E-2,3.104924136E-1,5.209849707E-1
1.218858050E1,-3.826689819E-1,5.878283554E-2,3.248444045E-1,5.053858511E-1
1.219857850E1,-4.333965012E-1,2.335449195E-2,3.372685683E-1,5.496617567E-1
1.220857750E1,-3.585652971E-1,3.102742760E-2,3.742662406E-1,5.192369328E-1
1.221857550E1,-2.996461210E-1,-2.094750389E-2,4.018955040E-1,5.017435519E-1
1.222857350E1,-1.846816751E-1,-5.853210876E-2,4.323899031E-1,4.738083549E-1
1.223857250E1,-1.008463436E-1,-4.748950495E-2,4.095682204E-1,4.244659765E-1
1.224857050E1,-4.222976089E-2,-2.061812293E-2,4.020258969E-1,4.047632413E-1
1.225856950E1,-1.295275211E-2,3.679163106E-2,3.695276570E-1,3.715805259E-1
1.226856750E1,4.704055756E-2,1.108109493E-1,3.028243750E-1,3.258749494E-1
1.227856550E1,9.943687230E-2,1.750955488E-1,1.849369061E-1,2.734004426E-1
1.228856450E1,9.276958466E-2,1.621664596E-1,1.468808877E-1,2.376513237E-1
1.229856250E1,1.208119538E-1,1.549250302E-1,1.026554722E-1,2.216651510E-1
1.230856050E1,3.108204424E-2,1.378871574E-1,8.368944347E-2,1.642646785E-1
1.231855950E1,2.722697496E-2,1.854406985E-1,3.141007304E-2,1.900425045E-1
1.232855750E1,1.717093349E-2,2.205158977E-1,-5.703900397E-2,2.284196797E-1
1.233855550E1,6.257660955E-2,2.428668978E-1,-1.605095780E-1,2.977641462E-1
1.234855450E1,3.015964597E-2,2.016797320E-1,-2.360556042E-1,3.119400052E-1
1.235855250E1,4.142255276E-2,1.456674078E-1,-3.003784847E-1,3.363956832E-1
1.236855150E1,-3.631120920E-4,8.232137773E-2,-3.699159122E-1,3.789653324E-1
1.237854950E1,-1.467534184E-2,1.207037986E-2,-4.115252835E-1,4.119637346E-1
1.238854750E1,-2.916006446E-2,-4.914151696E-2,-4.981184542E-1,5.013852735E-1
1.239854650E1,4.855118573E-2,-5.814370746E-2,-5.639873385E-1,5.690515147E-1
1.240854450E1,4.544572949E-2,-9.983737003E-2,-6.435159034E-1,6.527982327E-1
1.241854250E1,9.461028814E-2,-1.443038828E-1,-6.915349925E-1,7.127379343E-1
1.242854150E1,1.104375315E-1,-2.038595558E-1,-7.847495502E-1,8.182829727E-1
1.243853950E1,1.791695049E-1,-2.213103881E-1,-8.983089101E-1,9.423581577E-1
1.244853750E1,2.306112617E-1,-2.363502308E-1,-1.028683108E0,1.080385081E0
1.245853650E1,3.072849235E-1,-2.449191609E-1,-1.145599939E0,1.211118756E0
1.246853450E1,3.408938420E-1,-2.470094857E-1,-1.275520978E0,1.343196212E0
1.247853350E1,3.661178532E-1,-2.360350659E-1,-1.353947927E0,1.422297376E0
1.248853150E1,3.317876807E-1,-2.210158712E-1,-1.399586030E0,1.455256725E0
1.249852950E1,3.635962415E-1,-1.772264752E-1,-1.458407266E0,1.513460671E0
1.250852850E1,3.982044491E-1,-1.552906457E-1,-1.531537222E0,1.590059191E0
1.251852650E1,5.012130931E-1,-1.397768862E-1,-1.627042719E0,1.708221342E0
1.252852450E1,5.479218212E-1,-1.551330267E-1,-1.734114593E0,1.825222726E0
1.253852350E1,6.252218659E-1,-1.061914845E-1,-1.852576844E0,1.958116435E0
1.254852150E1,6.183632281E-1,-1.008246724E-1,-2.044091282E0,2.137954131E0
1.255851950E1,5.774239478E-1,-5.683631572E-2,-2.065019637E0,2.144983656E0
1.256851850E1,4.643490297E-1,-6.442207304E-2,-1.995316148E0,2.049647959E0
1.257851650E1,4.578888796E-1,6.776639717E-3,-1.862068629E0,1.917552536E0
1.258851550E1,4.613359594E-1,5.138472816E-2,-1.703591543E0,1.765699692E0
1.259851350E1,5.301053551E-1,9.474395184E-2,-1.735427878E0,1.817057518E0
1.260851146E1,5.367472073E-1,1.025727523E-1,-1.718232971E0,1.803037236E0
1.261851046E1,5.986103104E-1,1.168803865E-1,-1.816626408E0,1.916279425E0
1.262850846E1,5.908981253E-1,1.196022746E-1,-1.684343094E0,1.788987690E0
1.263850646E1,5.919200724E-1,8.220027641E-2,-1.544716262E0,1.656283365E0
1.264850546E1,6.119393308E-1,5.203117440E-2,-1.364142548E0,1.496015334E0
1.265850346E1,6.022126338E-1,1.912733875E-3,-1.244804385E0,1.382823803E0
1.266850146E1,5.290435007E-1,-4.129776039E-2,-1.089482456E0,1.211843453E0
1.267850046E1,3.793039092E-1,-1.987670512E-2,-9.940985817E-1,1.064189142E0
1.268849846E1,1.239621413E-1,2.178946640E-3,-8.974511236E-1,9.059745468E-1
1.269849646E1,3.158081174E-2,9.763013748E-3,-8.492525250E-1,8.498955908E-1
1.270849546E1,1.278388453E-1,6.097463692E-2,-8.054077631E-1,8.177666792E-1
1.271849346E1,1.562829182E-1,7.531039258E-2,-8.776436806E-1,8.946253047E-1
1.272849246E1,4.952006936E-3,6.278060429E-2,-1.006436207E0,1.008404564E0
1.273849046E1,-2.287094548E-1,9.847186245E-3,-7.108477610E-1,7.467995187E-1
1.274848846E1,-3.361926806E-1,-5.076721651E-2,-5.348313671E-1,6.337565937E-1
1.275848746E1,-2.038055786E-1,-2.501672745E-2,-4.966929030E-1,5.374629201E-1
1.276848546E1,-1.188788643E-1,4.006820058E-2,-3.965868169E-1,4.159552241E-1
1.277848346E1,-3.829078406E-2,1.116738339E-1,-2.884788162E-1,3.117005882E-1
1.278848246E1,6.636355877E-2,1.298313753E-1,-3.097463089E-1,3.423493594E-1
1.279848046E1,1.441835672E-1,1.538326059E-1,-2.898821479E-1,3.584480874E-1
1.280847846E1,2.238448638E-1,1.132617366E-1,-3.454388827E-1,4.269224352E-1
1.281847746E1,2.469808343E-1,1.143448511E-1,-5.117401278E-1,5.796138679E-1
1.282847546E1,1.518966293E-1,4.823565535E-2,-3.681494683E-1,4.011649230E-1
1.283847446E1,2.823319307E-1,-7.692624321E-3,-2.994452691E-1,4.116284304E-1
1.284847246E1,3.867757738E-1,-6.874162138E-2,-1.698008037E-1,4.279640436E-1
1.285847046E1,4.284181818E-1,-3.189713880E-1,-8.373505175E-2,5.406444708E-1
1.286846946E1,3.502137190E-1,-2.412983822E-1,1.890580237E-2,4.257135041E-1
1.287846746E1,1.245968565E-1,-4.568005666E-2,-1.200310582E-1,1.789371375E-1
1.288846546E1,7.033703417E-2,1.711476367E-1,-6.276342809E-2,1.953920670E-1
1.289846446E1,1.391517457E-1,6.386140728E-2,-1.757906914E-1,2.331176846E-1
1.290846246E1,1.671596164E-1,1.682500124E-1,-5.487565112E-1,5.978161194E-1
1.291846046E1,1.915930840E-1,-8.604821026E-2,-1.411389220E-1,2.530462401E-1
1.292845946E1,-3.437437749E-1,-2.426561971E-1,-3.866705239E-2,4.225363342E-1
1.293845746E1,-3.299732897E-1,-1.803131472E-1,-3.621625042E-1,5.220698061E-1
1.294845646E1,-4.470652449E-1,1.100425886E-1,-1.378212118E-1,4.805948303E-1
1.295845446E1,-6.220569143E-1,-1.256396344E-1,2.402632606E-1,6.785768613E-1
1.296845246E1,-6.379630950E-1,-1.959229107E-1,3.455593354E-1,7.515277452E-1
1.297845146E1,-2.851514581E-1,-3.823695313E-2,2.034907061E-1,3.523945035E-1
1.298844946E1,1.841112792E-2,9.636906666E-2,1.952660125E-1,2.185286761E-1
1.299844746E1,2.785604766E-1,1.099834860E-1,1.588928229E-1,3.390268949E-1
1.300844646E1,2.624154371E-1,-3.996272229E-2,2.657933736E-1,3.756394525E-1
1.301844446E1,6.197229981E-2,-1.454586439E-1,4.134987187E-1,4.426962541E-1
1.302844246E1,-3.830510974E-3,-1.454852122E-2,4.746114779E-1,4.748498575E-1
1.303844146E1,6.683922976E-2,-2.769447813E-2,6.709779364E-1,6.748672891E-1
1.304843946E1,4.618277103E-2,1.571889077E-1,8.006650865E-1,8.172550286E-1
1.305843846E1,-2.877514225E-1,3.909935897E-1,1.012526082E0,1.122891773E0
1.306843646E1,-2.811010918E-1,1.402435488E-1,1.346892092E0,1.383041715E0
1.307843446E1,-2.382772538E-1,3.402606251E-2,1.514939901E0,1.533941565E0
1.308843346E1,-1.981586301E-1,-9.084619788E-2,1.753306324E0,1.766805859E0
1.309843146E1,-4.131204039E-1,-2.121441650E-1,1.967541289E0,2.021606376E0
1.310842946E1,-3.330886862E-1,-1.634752858E-1,1.963254111E0,1.998008745E0
1.311842846E1,-4.775850794E-1,-1.594808152E-1,1.890245191E0,1.956156569E0
1.312842646E1,3.003422320E-2,5.403113776E-1,1.968397322E0,2.041427553E0
1.313842446E1,-1.401052220E0,-1.428165795E-1,1.637506896E0,2.159808494E0
1.314842346E1,-9.517796507E-1,1.709150271E-2,1.445655658E0,1.730923714E0
1.315842146E1,-1.023779633E0,-3.178911149E-1,1.385840980E0,1.752065844E0
1.316842046E1,-8.406653041E-1,-1.539246630E-1,1.249286860E0,1.513647454E0
1.317841846E1,-6.783255476E-1,-3.521869350E-2,1.115366326E0,1.305912687E0
1.318841646E1,-4.576972371E-1,1.886454661E-1,1.007111560E0,1.122206562E0
1.319841546E1,-2.763163152E-1,4.250257004E-1,1.349649054E0,1.441717768E0
1.320841346E1,2.338976893E-1,1.815518433E-1,1.461858292E0,1.491542446E0
1.321841146E1,1.256616345E-1,-6.960728338E-2,1.545568786E0,1.552230296E0
1.322841046E1,2.959082884E-1,-6.403327888E-2,1.286283363E0,1.321433640E0
1.323840846E1,5.416654466E-1,2.415171777E-1,9.358550513E-1,1.107951569E0
1.324840646E1,8.385278544E-1,-1.914679719E-1,1.867337555E-1,8.801468299E-1
1.325840546E1,1.891170806E-1,5.680583711E-2,2.332395852E-1,3.056024826E-1
1.326840346E1,-1.064371589E0,-3.236032964E-1,6.764667177E-1,1.302003530E0
1.327840146E1,3.422113658E-1,-1.600607676E-1,2.232811922E-1,4.388422940E-1
1.328840046E1,-1.152038162E0,-1.602976895E-1,1.030729634E-1,1.167694871E0
1.329839846E1,-6.071292651E-1,5.787781629E-1,1.581157279E-1,8.535752397E-1
1.330839746E1,-5.037667184E-1,4.565032357E-1,-4.760510623E-2,6.815000784E-1
1.331839546E1,-5.337589878E-1,3.749805145E-1,9.588790476E-2,6.593205090E-1
1.332839346E1,-7.178787455E-2,3.637304716E-1,1.699083924E-2,3.711361523E-1
1.333839246E1,4.492301765E-1,2.081039765E-1,-2.357176352E-1,5.483409706E-1
1.334839046E1,4.064712426E-1,7.938930972E-2,-6.092272460E-2,4.186085426E-1
1.335838846E1,4.284345540E-1,-2.248436413E-1,3.821740150E-2,4.853569819E-1
1.336838746E1,4.208249876E-1,-2.743333965E-1,-2.009629548E-2,5.027487879E-1
1.337838546E1,3.154255633E-1,-2.587652031E-1,3.721226513E-2,4.096797151E-1
1.338838346E1,2.859532575E-1,-2.418830855E-1,2.026761889E-2,3.750832827E-1
1.339838246E1,2.221230049E-1,-2.119068046E-1,2.186156988E-2,3.077678531E-1
1.340838046E1,1.717050956E-1,-1.799859224E-1,-3.346887767E-2,2.509935017E-1
1.341837946E1,9.771632910E-2,-1.493486138E-1,-1.214694732E-1,2.158896068E-1
1.342837746E1,-2.505653237E-1,-5.175449146E-2,6.560400546E-2,2.641313960E-1
1.343837546E1,-2.631728269E0,7.323171655E-3,7.762694503E0,8.196674525E0
1.344837446E1,-3.398282746E0,4.750340488E-1,1.226478860E1,1.273573800E1
1.345837246E1,-8.688196474E-1,3.651836143E-1,7.268413576E0,7.329259347E0
1.346837046E1,1.090530716E0,4.923567906E-1,1.006014622E0,1.563245941E0
1.347836946E1,6.442403734E-2,-8.653860893E-1,-1.217559283E0,1.495156898E0
1.348836746E1,3.525169373E-2,-3.964517828E-1,-1.668957315E0,1.715760828E0
1.349836546E1,4.922010720E-1,3.180300593E-3,-2.230030986E0,2.283705368E0
1.350836446E1,3.042622054E-1,-2.850803961E-1,-3.267910595E0,3.294402219E0
1.351836246E1,3.911787271E-3,-4.209817295E-1,-2.930366623E0,2.960454266E0
1.352836146E1,8.732670397E-2,7.427236562E-2,-1.527336583E0,1.531632911E0
1.353835946E1,-2.457366638E0,-2.566193115E-2,7.096110749E-1,2.557900937E0
1.354835746E1,-1.822755459E0,7.035519708E-1,1.789735063E0,2.649636661E0
1.355835646E1,-8.338016962E-1,3.244476343E-1,2.555237333E0,2.707347293E0
1.356835446E1,2.238363853E0,3.674755767E-1,7.623009199E-1,2.392992631E0
1.357835246E1,1.679153397E0,2.201736529E-1,-1.422358596E-1,1.699489220E0
1.358835146E1,1.208335008E0,-4.443934694E-1,-5.373398226E-1,1.395096102E0
1.359834946E1,1.075062492E0,-4.973593029E-1,-6.012802953E-1,1.328406425E0
1.360834746E1,1.082586104E0,-1.238786449E-1,-7.072096235E-1,1.299031964E0
1.361834646E1,2.340074708E-1,6.269144339E-2,-3.604738283E-1,4.343168133E-1
1.362834446E1,-1.237832457E0,9.209074119E-2,5.662385166E-1,1.364307866E0
1.363834346E1,-1.747952029E0,1.758918299E-1,6.833570766E-1,1.885006930E0
1.364834146E1,-1.173224525E0,4.723424658E-1,-1.024209988E-1,1.268878738E0
1.365833946E1,-9.173383811E-1,2.976976825E-1,-4.529416966E-1,1.065499787E0
1.366833846E1,-4.815543155E-1,3.376301455E-1,-2.075977904E-1,6.236870341E-1
1.367833646E1,1.272805823E-1,-1.043922871E-1,-1.804982847E-1,2.442902516E-1
1.368833446E1,8.517637579E-1,-7.434261443E-2,-9.264386952E-2,8.600065175E-1
1.369833346E1,8.514013767E-1,-6.825502340E-1,1.314389759E-1,1.099106606E0
1.370833146E1,6.314504662E-1,-9.795780449E-1,1.266664785E-1,1.172325567E0
1.371832946E1,9.065469061E-1,2.817681860E-3,2.924970227E-1,9.525700712E-1
1.372832846E1,7.982513559E-1,2.048426189E-1,3.074436754E-1,8.795949859E-1
1.373832646E1,1.996018691E-1,6.849653168E-2,1.295900863E-1,2.476414172E-1
1.374832546E1,3.165406273E-1,3.289404887E-1,-2.606507474E-1,5.256792044E-1
1.375832346E1,1.738725123E-1,3.223311250E-1,-3.318119466E-1,4.941944684E-1
1.376832146E1,-4.726041287E-2,2.986538485E-1,-2.800436229E-1,4.121311667E-1
1.377832046E1,-6.262191086E-1,2.199799273E-2,7.098519802E-2,6.306133379E-1
1.378831846E1,-6.095155138E-1,-7.140954142E-2,3.369633436E-2,6.146087594E-1
1.379831646E1,-7.104970743E-1,-3.088051265E-1,-1.621491373E-2,7.748739395E-1
1.380831546E1,-4.430227724E-1,-1.575438702E-1,-1.423797011E-2,4.704168021E-1
1.381831346E1,-3.211036482E-1,-1.143364092E-1,6.814929843E-2,3.475984670E-1
1.382831146E1,-5.307160968E-1,-5.305308497E-1,1.310945749E-2,7.505294236E-1
1.383831046E1,-2.663609920E-1,-3.413420676E-1,1.692418098E-2,4.333001421E-1
1.384830846E1,3.149696267E-1,1.383867381E-1,1.682536304E-2,3.444413562E-1
1.385830646E1,2.207848696E-1,2.044220579E-1,-1.237270832E-3,3.008917866E-1
1.386830546E1,1.213779643E-1,1.875538092E-1,-4.767234921E-2,2.284331290E-1
1.387830346E1,4.099281165E-1,4.450724407E-1,-7.017769754E-2,6.091432076E-1
1.388830246E1,2.601587042E-1,2.579577574E-1,-7.098753691E-2,3.731809030E-1
1.389830046E1,2.527765945E-1,1.023171102E-1,-1.104533190E-1,2.942188529E-1
1.390829846E1,2.812363087E-1,1.104239367E-2,-9.710880339E-2,2.977346393E-1
1.391829746E1,2.515972111E-1,-1.732922858E-1,-1.894965649E-2,3.060889779E-1
1.392829546E1,2.555063671E-1,-2.065844313E-1,3.092943192E-2,3.300261515E-1
1.393829346E1,1.001201195E-1,-2.249571686E-1,9.143174171E-2,2.626585796E-1
1.394829246E1,1.236949235E-2,-1.491663542E-1,4.991826475E-2,1.577828848E-1
1.395829046E1,-5.974041760E-2,-2.797738287E-2,1.973201394E-2,6.885494769E-2
1.396828846E1,-1.826544455E-1,3.703909619E-2,2.527049661E-2,1.880774816E-1
1.397828746E1,-2.213716377E-1,1.033680559E-1,-2.905072153E-2,2.460371951E-1
1.398828546E1,-2.334987630E-1,1.184325117E-1,-7.724990487E-2,2.729752369E-1
1.399828446E1,-2.114003809E-1,1.399958553E-1,-6.877787411E-2,2.627153526E-1
1.400828246E1,-1.539978263E-1,8.798938536E-2,-9.040029287E-2,1.990720357E-1
1.401828046E1,-9.140425980E-2,-1.055020429E-3,-6.570808589E-2,1.125762156E-1
1.402827946E1,3.665926471E-2,-6.570370048E-3,-2.371162891E-2,4.415102261E-2
1.403827746E1,1.441835672E-1,-5.126160773E-2,1.330241561E-2,1.536021085E-1
1.404827546E1,2.194198371E-1,-1.032584480E-1,4.868099391E-2,2.473402741E-1
1.405827446E1,3.025116952E-1,-1.228631023E-1,5.698579431E-2,3.314453927E-1
1.406827246E1,3.369327919E-1,-1.246428120E-1,4.605500937E-2,3.621886259E-1
1.407827046E1,2.673241746E-1,-1.544932682E-1,4.953351796E-2,3.127042591E-1
1.408826946E1,1.685538849E-1,-1.320073618E-1,3.603112757E-2,2.171050388E-1
1.409826746E1,5.480463669E-2,-7.377064710E-2,-7.111383677E-3,9.217498768E-2
1.410826646E1,-7.358618572E-2,-1.779004399E-2,-4.279869497E-2,8.696631926E-2
1.411826446E1,-1.844502716E-1,4.752501765E-2,-5.344939828E-2,1.978316662E-1
1.412826246E1,-2.116541500E-1,8.491060705E-2,-6.623608947E-2,2.374752829E-1
1.413826146E1,-1.844815542E-1,1.209652971E-1,-7.684644699E-2,2.336052725E-1
1.414825946E1,-1.137011549E-1,1.290802731E-1,-3.876236200E-2,1.763297769E-1
1.415825746E1,-2.124001086E-2,9.929211717E-2,9.790577888E-3,1.020094016E-1
1.416825646E1,9.473629564E-2,3.417340321E-2,2.321344614E-4,1.007116730E-1
1.417825446E1,1.939116512E-1,-4.025314618E-3,3.201935291E-3,1.939798547E-1
1.418825246E1,2.139398266E-1,-4.927508930E-2,2.291231453E-2,2.207334547E-1
1.419825146E1,1.793935995E-1,-8.072911696E-2,4.125678420E-2,2.010009356E-1
1.420824946E1,5.714235350E-2,-7.925422990E-2,1.485075831E-2,9.882826794E-2
1.421824746E1,-5.176642343E-2,-7.953154324E-2,-2.374495804E-2,9.782050908E-2
1.422824646E1,-1.572061935E-1,-4.218415260E-2,-4.631930351E-2,1.692299261E-1
1.423824446E1,-2.110094945E-1,1.453329105E-2,-5.969071627E-2,2.197708009E-1
1.424824346E1,-2.080816475E-1,5.728960284E-2,-7.991214216E-2,2.301434793E-1
1.425824146E1,-1.465616298E-1,5.669242853E-2,-8.312928021E-2,1.777774451E-1
1.426823946E1,-2.200453430E-2,7.715946489E-2,-7.500691295E-2,1.098354203E-1
1.427823846E1,1.185088818E-1,4.844510444E-2,-2.823912799E-2,1.311058029E-1
1.428823646E1,2.637807620E-1,3.136757109E-3,5.901477814E-2,2.703199468E-1
1.429823446E1,3.362479368E-1,-5.764749812E-2,1.458126014E-1,3.710083877E-1
1.430823346E1,3.041496465E-1,-1.010616399E-1,1.866402000E-1,3.708841150E-1
1.431823146E1,1.788493699E-1,-1.560760729E-1,1.655925626E-1,2.894265613E-1
1.432822946E1,7.364568114E-2,-1.053224603E-1,1.218501270E-1,1.770987308E-1
1.433822846E1,-1.547794528E-1,-2.411657601E-2,3.715028465E-2,1.609920244E-1
1.434822646E1,-5.977621718E-1,1.291386265E-1,6.197931647E-2,6.146851507E-1
1.435822546E1,-5.660864890E-1,1.102734074E-1,8.651715696E-2,5.831803802E-1
1.436822346E1,-9.452199519E-2,1.966029419E-2,1.226564580E-1,1.560946554E-1
1.437822146E1,-2.531962784E-1,1.023511794E-1,1.622801149E-1,3.176774386E-1
1.438822046E1,-3.964075997E-1,1.676738790E-1,2.649554676E-1,5.054254788E-1
1.439821846E1,2.906826317E-2,9.357739577E-2,4.728859645E-1,4.829314945E-1
1.440821646E1,1.462360860E-1,-3.166032474E-2,6.040776032E-1,6.223320012E-1
1.441821546E1,-1.544186796E-1,-4.739409484E-2,7.060249776E-1,7.242669382E-1
1.442821346E1,5.300998002E-2,-1.319765543E-1,8.023461610E-1,8.148541164E-1
1.443821146E1,1.629705249E-1,-1.801737277E-1,8.686202574E-1,9.019551628E-1
1.444821046E1,-1.970390345E-1,-1.317797955E-1,9.101653093E-1,9.405270788E-1
1.445820846E1,-1.693068601E-1,-6.734160609E-2,9.182607794E-1,9.361637484E-1
1.446820746E1,-1.744766758E-1,-6.033000880E-2,9.644274706E-1,9.819379646E-1
1.447820546E1,-4.144870444E-1,-3.676334515E-2,1.054491549E0,1.133624047E0
1.448820346E1,-4.274719562E-1,-3.294845721E-2,1.137663513E0,1.215769774E0
1.449820246E1,-3.425306238E-1,-2.783950735E-2,1.172495962E0,1.221822019E0
1.450820046E1,-4.745095901E-1,9.455702366E-2,1.184548827E0,1.279553167E0
1.451819846E1,-4.918310894E-1,1.110862070E-1,1.198585653E0,1.300325165E0
1.452819746E1,-2.615459561E-3,-2.655668123E-1,1.264790753E0,1.292373096E0
1.453819546E1,-2.182372378E-1,1.005803319E-1,1.275165467E0,1.297609673E0
1.454819346E1,-2.567491928E-1,9.660356741E-2,1.382289382E0,1.409246725E0
1.455819246E1,-2.771004269E-1,-5.895592226E-2,1.481979146E0,1.508814978E0
1.456819046E1,-3.689283174E-1,-1.320321394E-1,1.435324797E0,1.487850081E0
1.457818946E1,-3.823927009E-1,-1.234574717E-1,1.439567537E0,1.494597142E0
1.458818746E1,-3.002036530E-1,1.333359771E-2,1.599177228E0,1.627165580E0
1.459818546E1,-4.473698848E-1,7.292229834E-2,1.396275337E0,1.468006230E0
1.460818446E1,-4.763665196E-1,1.472704950E-1,1.403959748E0,1.489871348E0
1.461818171E1,-2.988842288E-1,3.831736697E-1,1.456791095E0,1.535706397E0
1.462817971E1,3.859513164E-2,2.654759794E-1,1.655978251E0,1.677567002E0
1.463817871E1,-3.827455804E-1,2.999774205E-2,1.651049048E0,1.695097933E0
1.464817671E1,-6.285967326E-1,-8.553771179E-2,1.664407012E0,1.781207808E0
1.465817471E1,-1.136622709E-1,-3.183744969E-1,1.862016004E0,1.892454763E0
1.466817371E1,-8.858189651E-1,-2.007687541E-1,1.657067002E0,1.889670442E0
1.467817171E1,-3.527654439E-2,6.337742959E-1,1.816446898E0,1.924160499E0
1.468816971E1,-7.613431460E-1,1.300615090E-1,1.581083019E0,1.759654198E0
1.469816871E1,-2.655334648E-1,4.029964982E-1,1.680866339E0,1.748778388E0
1.470816671E1,-7.589767778E-1,7.581828721E-3,1.545846528E0,1.722133770E0
1.471816571E1,-6.554217115E-1,8.920080054E-2,1.675403870E0,1.801253045E0
1.472816371E1,-4.665917292E-1,-2.970543426E-1,1.813789923E0,1.896254996E0
1.473816171E1,-3.411879569E-1,-6.588934044E-2,1.753710952E0,1.787806681E0
1.474816071E1,-3.598855984E-1,5.189059454E-2,1.610675193E0,1.651207090E0
1.475815871E1,-4.045583260E-1,2.987716881E-1,1.500790808E0,1.582815533E0
1.476815671E1,-3.768510023E-1,3.757621776E-1,1.421324809E0,1.517688408E0
1.477815571E1,-2.011401254E-1,3.006356160E-1,1.482914116E0,1.526392282E0
1.478815371E1,-4.483536789E-1,6.198671686E-2,1.462271690E0,1.530719397E0
1.479815171E1,-5.579638293E-1,1.234890833E-2,1.165669338E0,1.292385830E0
1.480815071E1,-7.226670304E-1,-1.359777309E-2,9.508607608E-1,1.194390524E0
1.481814871E1,-2.638842577E-1,-3.515484922E-1,6.537742585E-1,7.878083681E-1
1.482814771E1,3.549099103E-1,-3.679870253E-1,5.472818434E-2,5.141698838E-1
1.483814571E1,4.319803056E-1,-4.599573322E-1,2.190559942E-1,6.679470491E-1
1.484814371E1,3.161086643E-1,-5.587257215E-1,5.326515251E-1,8.341563203E-1
1.485814271E1,-2.619576001E-1,-5.636408179E-1,5.099707603E-1,8.039794352E-1
1.486814071E1,-1.030881661E-1,-4.192995404E-2,2.361743027E-1,2.610815817E-1
1.487813871E1,-1.305300263E-1,3.802023705E-1,2.678200185E-2,4.028761669E-1
1.488813771E1,-2.744852597E-1,4.713080203E-1,-1.876757419E-1,5.767977044E-1
1.489813571E1,1.315857410E-2,2.885583017E-1,-2.205733466E-1,3.634441399E-1
1.490813371E1,2.558031133E-1,-4.564818934E-2,-8.112368524E-2,2.722132294E-1
1.491813271E1,6.704534411E-2,6.797601985E-2,-1.986918962E-1,2.204411193E-1
1.492813071E1,2.040295270E-1,1.911353384E-1,-3.406307173E-1,4.406700024E-1
1.493812971E1,-2.383459586E-1,-1.706224836E-1,-1.347812444E-1,3.226248777E-1
1.494812771E1,9.002490163E-2,-4.244108291E-2,-1.903888500E-1,2.148339885E-1
1.495812571E1,1.997464415E-1,-8.667843961E-2,-5.146239746E-1,5.587930100E-1
1.496812471E1,3.491492334E-1,1.209219911E-1,-6.021398360E-1,7.064698841E-1
1.497812271E1,1.795288163E-1,1.655091484E-1,-6.953011841E-1,7.369312116E-1
1.498812071E1,-1.056451535E-1,3.122986003E-2,-7.423870575E-1,7.505163195E-1
1.499811971E1,-1.842837721E-2,9.213074894E-2,-8.571018273E-1,8.622361755E-1
1.500811771E1,3.286389551E-1,1.288994845E-1,-7.540545917E-1,8.325965212E-1
1.501811571E1,1.545082882E-1,-1.255644611E-1,-6.580801481E-1,6.875381635E-1
1.502811471E1,-6.378610611E-2,-1.708373688E-2,-5.127183670E-1,5.169532331E-1
1.503811271E1,2.969069928E-2,-7.017487443E-2,-4.732701266E-1,4.793648541E-1
1.504811071E1,3.024501532E-1,-7.677661845E-2,-5.531325674E-1,6.350798229E-1
1.505810971E1,4.049579832E-1,7.944533335E-2,-7.540709639E-1,8.596077871E-1
1.506810771E1,6.058677283E-1,1.670832006E-1,-8.685845894E-1,1.072115520E0
1.507810671E1,5.423932788E-1,9.531689675E-2,-7.294313818E-1,9.139726038E-1
1.508810471E1,3.128956193E-1,9.735444127E-2,-8.413324714E-1,9.028963856E-1
1.509810271E1,4.221163452E-2,7.413520273E-2,-7.778369719E-1,7.825012493E-1
1.510810171E1,-3.016023070E-2,-4.409769047E-3,-6.535947490E-1,6.543051134E-1
1.511809971E1,7.119043529E-2,-2.726685480E-2,-6.949924511E-1,6.991609732E-1
1.512809771E1,1.074770862E-1,-2.299787574E-1,-8.835581392E-1,9.193022018E-1
1.513809671E1,2.793089202E-1,-1.180723323E-1,-9.934583116E-1,1.038707834E0
1.514809471E1,7.663039237E-2,-2.230115442E-1,-1.228602920E0,1.251028177E0
1.515809271E1,1.735026759E-1,-1.034198860E-1,-1.348877222E0,1.363916644E0
1.516809171E1,2.090645644E-1,-1.490712090E-1,-1.416330117E0,1.439416971E0
1.517808971E1,3.656310725E-1,-1.189971060E-1,-1.490373994E0,1.539175439E0
1.518808871E1,3.108756986E-1,4.815090727E-3,-1.620493253E0,1.650050080E0
1.519808671E1,3.168003899E-1,3.614439910E-2,-2.053128154E0,2.077740148E0
1.520808471E1,3.981714123E-1,3.840731724E-2,-1.829324221E0,1.872549786E0
1.521808371E1,4.414563033E-1,2.694243483E-2,-1.785625640E0,1.839583781E0
1.522808171E1,4.908911495E-1,-1.133175958E-1,-1.885194951E0,1.951352096E0
1.523807971E1,7.919331470E-1,-1.428220978E-1,-1.808452000E0,1.979407714E0
1.524807871E1,7.190699695E-1,-1.996564492E-1,-1.615438920E0,1.779485100E0
1.525807671E1,7.933076812E-1,-2.661268659E-1,-1.387942470E0,1.620661866E0
1.526807471E1,6.144751221E-1,-6.469163882E-2,-1.385638082E0,1.517154435E0
1.527807371E1,3.713113502E-1,1.710504998E-1,-1.474000036E0,1.529642604E0
1.528807171E1,4.844368467E-1,6.294845592E-2,-1.481865125E0,1.560309526E0
1.529806971E1,3.980948138E-1,2.869311861E-2,-1.586309845E0,1.635751112E0
1.530806871E1,2.597704491E-1,-4.630830344E-3,-1.653954529E0,1.674236457E0
1.531806671E1,3.062479198E-1,-1.952941705E-1,-1.843714219E0,1.879151330E0
1.532806571E1,3.952244157E-1,-8.806180861E-4,-1.931727093E0,1.971743563E0
1.533806371E1,2.015476763E-1,-5.247543488E-2,-1.973045858E0,1.984007333E0
1.534806171E1,8.924663723E-2,-2.398196214E-2,-1.961182442E0,1.963358518E0
1.535806071E1,1.599467835E-1,-8.119557858E-2,-1.958475181E0,1.966672502E0
1.536805871E1,3.597075507E-1,6.316562517E-2,-1.963581555E0,1.997256103E0
1.537805671E1,2.527824417E-1,3.641605709E-2,-1.969662659E0,1.986151073E0
1.538805571E1,1.936744004E-1,1.333367994E-2,-1.871592574E0,1.881633950E0
1.539805371E1,3.736364955E-1,2.394532568E-2,-1.799546691E0,1.838082126E0
1.540805171E1,3.888727315E-1,2.068880115E-2,-1.702340823E0,1.746314493E0
1.541805071E1,5.273524860E-1,1.564720390E-2,-1.654430493E0,1.736515400E0
1.542804871E1,5.101907618E-1,-4.390050226E-2,-1.189969781E0,1.295472866E0
1.543804771E1,2.744269337E-1,-1.314595508E-1,-6.891329563E-1,7.533232950E-1
1.544804571E1,3.437696488E-1,8.565117518E-2,-7.054209602E-1,7.893873741E-1
1.545804371E1,3.133101869E-1,1.754657689E-1,-7.796548712E-1,8.583782543E-1
1.546804271E1,6.738791786E-1,-2.461380861E-2,-5.573565960E-1,8.748516229E-1
1.547804071E1,5.644077533E-1,1.951151909E-1,-5.036142522E-1,7.811871509E-1
1.548803871E1,4.074816415E-1,1.155645346E-1,-3.331135368E-1,5.388516291E-1
1.549803771E1,3.011789685E-1,2.797360959E-2,-1.593816501E-1,3.418973593E-1
1.550803571E1,1.205859590E-1,-1.122495836E-1,-7.597755075E-2,1.814208663E-1
1.551803371E1,1.445507723E-1,-6.037326906E-2,-6.967951477E-2,1.714499699E-1
1.552803271E1,1.322382903E-1,4.211173849E-2,-8.333861053E-2,1.618817097E-1
1.553803071E1,1.074779633E-1,1.025156141E-1,-9.504824460E-2,1.763381199E-1
1.554802871E1,-8.706825703E-2,1.501578684E-2,-1.942503512E-2,9.046373432E-2
1.555802771E1,-1.521544915E-1,3.418793902E-4,3.406938672E-2,1.559225105E-1
1.556802571E1,-3.626741356E-1,-1.569907602E-1,9.846477270E-2,4.072762439E-1
1.557802471E1,-2.395914155E-1,-9.347915341E-2,1.067912078E-1,2.784721900E-1
1.558802271E1,-3.943461639E-1,-1.599482818E-1,8.487467408E-2,4.339309393E-1
1.559802071E1,-3.400907269E-1,-1.028878442E-1,1.056176716E-1,3.706787067E-1
1.560801971E1,-3.617795116E-1,-2.122135459E-1,1.280072451E-1,4.385257790E-1
1.561801796E1,-1.756132284E-1,-2.358967792E-1,1.718911833E-1,3.406374544E-1
1.562801596E1,-2.295520386E-1,-3.367959671E-1,2.326168567E-1,4.692933665E-1
1.563801496E1,-1.753655988E-1,-2.617733763E-1,2.602203923E-1,4.086478268E-1
1.564801296E1,-1.657568693E-2,-1.846015135E-1,2.283027810E-1,2.940656933E-1
1.565801096E1,-5.396424562E-2,-1.120308429E-1,1.345227975E-1,1.831923377E-1
1.566800996E1,7.635878921E-2,-1.480957199E-2,6.527246833E-3,7.805506430E-2
1.567800796E1,6.469651759E-2,7.960417662E-3,-1.216864049E-1,1.380456040E-1
1.568800696E1,1.336381137E-1,3.104137869E-2,-2.276455539E-1,2.657916682E-1
1.569800496E1,1.103170788E-1,4.015327756E-2,-3.218348426E-1,3.425781801E-1
1.570800296E1,1.487411794E-1,9.048272948E-2,-3.755894655E-1,4.139788755E-1
1.571800196E1,1.172144544E-1,7.190639944E-2,-3.975866908E-1,4.206957752E-1
1.572799996E1,1.931306094E-1,1.333930332E-1,-3.977697086E-1,4.618591503E-1
1.573799796E1,1.804713875E-1,1.253245973E-1,-4.198675060E-1,4.738827904E-1
1.574799696E1,2.228920600E-1,1.613064073E-1,-4.225075239E-1,5.041956319E-1
1.575799496E1,1.946602410E-1,1.567226653E-1,-4.794471252E-1,5.406700927E-1
1.576799296E1,1.993950239E-1,1.850315944E-1,-4.829402518E-1,5.542800315E-1
1.577799196E1,1.870992064E-1,1.650510008E-1,-5.390413624E-1,5.939810908E-1
1.578798996E1,1.563846597E-1,1.594385508E-1,-5.708239031E-1,6.129573734E-1
1.579798896E1,1.264176795E-1,1.392006065E-1,-6.382358676E-1,6.653594978E-1
1.580798696E1,1.227327642E-1,1.342179200E-1,-6.611750793E-1,6.857333789E-1
1.581798496E1,1.300365213E-1,9.795189880E-2,-7.282911748E-1,7.462654398E-1
1.582798396E1,1.549187627E-1,7.561617455E-2,-7.597649825E-1,7.790766698E-1
1.583798196E1,1.465809256E-1,8.503349908E-3,-8.305314946E-1,8.434102432E-1
1.584797996E1,1.922380319E-1,-2.722962448E-2,-8.921757656E-1,9.130577803E-1
1.585797896E1,2.108605367E-1,-8.064941210E-2,-1.012812595E0,1.037668467E0
1.586797696E1,2.725217646E-1,-6.263930267E-2,-1.127512162E0,1.161669260E0
1.587797496E1,2.780658022E-1,-7.774599544E-2,-1.277495583E0,1.309717524E0
1.588797396E1,2.787893951E-1,-4.063803915E-2,-1.308040853E0,1.338038060E0
1.589797196E1,2.220883602E-1,-9.422277306E-2,-1.320766148E0,1.342618482E0
1.590796996E1,2.732371715E-1,-4.955012770E-2,-1.193547692E0,1.225426400E0
1.591796896E1,2.806110951E-1,-6.206271239E-2,-1.113464811E0,1.149955761E0
