"Time (s)","Linear Acceleration x (m/s^2)","Linear Acceleration y (m/s^2)","Linear Acceleration z (m/s^2)","Absolute acceleration (m/s^2)"
7.903833321E-3,-2.106517911E-2,-3.334603589E-2,-1.518755794E-2,4.226537350E-2
1.790183334E-2,-6.966902632E-3,-2.356694459E-2,-2.372332335E-2,3.415749815E-2
2.790083335E-2,-4.735806137E-3,-1.769564115E-2,-2.761523008E-2,3.313856527E-2
3.789983332E-2,5.097492971E-4,-9.761345236E-3,-2.866305113E-2,3.028389349E-2
4.789783334E-2,4.917581454E-3,-1.619361479E-2,-2.133064270E-2,2.722888329E-2
5.789683334E-2,-1.701704208E-3,-1.261984569E-2,-1.624181092E-2,2.063862215E-2
6.789483334E-2,-2.571168730E-2,-1.459433849E-2,-2.117919981E-2,3.636817406E-2
7.789383334E-2,-2.605893882E-2,1.391528261E-2,-2.791285336E-2,4.064272094E-2
8.789283334E-2,-4.454924170E-2,1.229463086E-2,-1.848070979E-2,4.977277889E-2
9.789083333E-2,-3.917104583E-2,1.414977651E-2,-3.135393977E-2,5.213114756E-2
1.078898333E-1,-3.428310245E-2,1.228861577E-2,-3.270230770E-2,4.894672737E-2
1.178888333E-1,-3.011573704E-2,2.949945421E-3,-2.282752991E-2,3.790456328E-2
1.278868333E-1,-1.299510788E-2,8.939975890E-3,-3.240994692E-2,3.604442616E-2
1.378858333E-1,-8.326983266E-4,8.955923257E-3,-4.333605409E-2,4.425963773E-2
1.478848333E-1,1.335083786E-3,1.169203303E-3,-2.612009704E-2,2.618031617E-2
1.578828333E-1,-4.992005546E-3,-1.631610368E-2,3.217722774E-3,1.736344143E-2
1.678818333E-1,-8.860888872E-3,-1.901796841E-2,-1.354741395E-2,2.497460508E-2
1.778798333E-1,-1.675881442E-2,4.417505758E-3,-3.434537530E-2,3.847046948E-2
1.878788333E-1,-1.411706066E-2,-1.679654723E-2,-3.089668751E-2,3.789486376E-2
1.978778333E-1,-1.513242966E-2,-1.708005611E-2,-2.744916916E-2,3.569559681E-2
2.078758333E-1,-3.035876194E-2,-2.475920328E-2,-2.520325363E-2,4.658193391E-2
2.178748333E-1,-3.026370814E-2,-2.322899151E-2,-4.077146530E-2,5.583717812E-2
2.278738333E-1,-1.560305743E-2,-1.133059745E-2,-1.622309983E-2,2.519973824E-2
2.378718333E-1,-2.466794103E-2,-2.064060730E-2,-4.549718499E-3,3.248448742E-2
2.478708333E-1,-2.757599892E-2,-6.723299862E-3,-2.161598682E-2,3.567757508E-2
2.578698333E-1,-2.191445064E-2,-1.738102668E-2,-2.056875050E-2,3.471911192E-2
2.678678333E-1,-2.288044721E-2,-3.041501398E-2,-2.431272268E-2,4.516299840E-2
2.778668333E-1,-2.358584069E-2,1.554334959E-3,-4.481890798E-2,5.066993537E-2
2.878658333E-1,-1.795531919E-2,7.067023638E-3,-3.433835864E-2,3.938856667E-2
2.978638333E-1,-1.752827145E-2,3.226404518E-3,-2.849757493E-2,3.361192888E-2
3.078628333E-1,-2.885893285E-3,-8.958792618E-3,-2.325145304E-2,2.508422639E-2
3.178608333E-1,-3.362569269E-3,-3.112135306E-2,-9.177789688E-3,3.262019792E-2
3.278598333E-1,1.589218397E-3,-1.749144656E-2,-3.222926795E-2,3.670425085E-2
3.378588333E-1,6.463987269E-3,-4.565855444E-3,-2.998159826E-2,3.100848918E-2
3.478568333E-1,-1.127710456E-2,-3.100791023E-3,-4.974811077E-3,1.270971036E-2
3.578558333E-1,-1.771044876E-2,3.103730619E-3,-1.649674952E-2,2.440155495E-2
3.678548333E-1,-1.746831922E-2,-1.650640199E-2,-3.640301049E-2,4.362089701E-2
3.778528333E-1,-3.442937421E-2,-9.875170654E-6,-3.625449121E-2,4.999770033E-2
3.878518333E-1,-4.573737765E-2,2.377917568E-3,-3.535869777E-2,5.786017382E-2
3.978508333E-1,-3.687522797E-2,6.076664049E-3,-2.637678981E-2,4.574323255E-2
4.078488333E-1,-3.001551211E-2,-1.659500330E-3,-3.356301785E-2,4.505730879E-2
4.178478333E-1,-1.245281518E-2,-5.437453743E-5,-2.608092070E-2,2.890138382E-2
4.278458333E-1,2.276814412E-3,5.858702805E-3,-2.099384308E-2,2.191460083E-2
4.378448333E-1,-2.532008830E-3,1.402969161E-3,-1.755100250E-2,1.778811626E-2
4.478438333E-1,1.925835293E-3,6.995174834E-3,-1.919523954E-2,2.052068551E-2
4.578418333E-1,1.590530366E-2,-1.413077306E-2,-2.787543118E-2,3.506703716E-2
4.678408333E-1,3.456855621E-3,-1.438623243E-2,-3.176382959E-2,3.504075348E-2
4.778398333E-1,-2.659222316E-3,1.158393949E-4,-3.954705834E-2,3.963653246E-2
4.878378333E-1,-3.083216714E-2,-4.244900863E-2,-4.015049100E-2,6.606514052E-2
4.978368333E-1,-3.985685114E-2,-1.191405135E-2,-2.130725384E-3,4.165396971E-2
5.078358333E-1,-3.528432850E-2,-3.195819698E-2,7.297909856E-3,4.816191109E-2
5.178338333E-1,-2.686075654E-2,-2.381614789E-2,-5.557427645E-2,6.616048175E-2
5.278328333E-1,-1.330018636E-2,-9.279708256E-3,-4.300159335E-2,4.595807843E-2
5.378308333E-1,-1.637980521E-2,-3.799376835E-2,-6.030818224E-3,4.181142452E-2
5.478298333E-1,1.198364921E-2,-5.136301580E-3,-1.156754673E-2,1.742979000E-2
5.578288333E-1,9.329049848E-3,-2.229273237E-3,-2.862738311E-2,3.019152024E-2
5.678268333E-1,-9.334019981E-3,-1.778014369E-3,-3.221464992E-2,3.358673746E-2
5.778258333E-1,-1.577154860E-2,-4.317921509E-3,-2.472319722E-2,2.964157000E-2
5.878248333E-1,-1.619521592E-2,2.771688713E-4,-1.169209242E-2,1.997665804E-2
5.978228333E-1,-4.649203392E-2,1.083743277E-2,-1.049224377E-2,4.887787174E-2
6.078218333E-1,-2.807885947E-2,4.511817807E-4,-2.171889782E-2,3.550121739E-2
6.178208333E-1,-1.129850172E-2,7.985216937E-3,-3.998092175E-2,4.230713810E-2
6.278188333E-1,-1.715996996E-2,-2.065945772E-3,-3.773968399E-2,4.150923329E-2
6.378178333E-1,-3.489015307E-3,-8.561745548E-4,-2.456941545E-2,2.483067535E-2
6.478168333E-1,6.195234619E-3,-7.413089155E-3,-9.598204494E-3,1.361838288E-2
6.578148333E-1,-8.449409343E-4,-2.725177652E-3,-3.384426892E-2,3.396432035E-2
6.678138333E-1,-3.073936086E-3,2.006945424E-3,-1.692535043E-2,1.731890297E-2
6.778118333E-1,-1.626337253E-2,-1.035666374E-2,-1.317553103E-2,2.335278115E-2
6.878108333E-1,-2.431042034E-2,-1.388809420E-2,-3.068852663E-2,4.154108044E-2
6.978098333E-1,-2.756329950E-2,-5.412100581E-5,-1.856257081E-2,3.323112161E-2
7.078078333E-1,-3.525984328E-2,-4.213688609E-3,-1.271886349E-2,3.771977211E-2
7.178068333E-1,-3.246216986E-2,-1.685755470E-2,-3.188018918E-2,4.852129517E-2
7.278058333E-1,-1.486457236E-2,-1.785288214E-2,-2.978630126E-2,3.777439152E-2
7.378038333E-1,-1.493358778E-2,-9.649513811E-3,-1.541793823E-2,2.353376256E-2
7.478028333E-1,-1.211524811E-3,-8.687255689E-3,-2.335260987E-2,2.494555254E-2
7.578018333E-1,1.494880881E-2,-7.468810722E-3,-2.664576173E-2,3.145229144E-2
7.677998333E-1,3.894172534E-3,-1.880470721E-2,-1.721127927E-2,2.578778252E-2
7.777988333E-1,4.082087427E-4,-2.830684149E-2,-2.139613152E-2,3.548574860E-2
7.877968333E-1,1.806204915E-3,-2.179273262E-2,-3.426409900E-2,4.064743598E-2
7.977958333E-1,-2.408934077E-2,-1.172725565E-2,-3.216494858E-2,4.186178187E-2
8.077948333E-1,-3.089540843E-2,3.296247910E-3,-3.395887434E-2,4.602821590E-2
8.177928333E-1,-3.250255220E-2,1.716821887E-3,-2.348007917E-2,4.013324675E-2
8.277918333E-1,-2.793591332E-2,-3.953090655E-3,-1.763988018E-2,3.327472842E-2
8.377908333E-1,-1.845308170E-2,5.745758467E-3,-1.120969713E-2,2.234249928E-2
8.477888333E-1,-1.747453189E-2,8.794630326E-3,-2.228841662E-2,2.965599944E-2
8.577878333E-1,-1.186030950E-2,1.275367269E-2,-3.920499623E-2,4.289935708E-2
8.677868333E-1,-9.501049351E-3,6.922539739E-3,-2.199605584E-2,2.494028805E-2
8.777848333E-1,2.577854656E-3,1.434142700E-2,-1.765625238E-2,2.289246844E-2
8.877838333E-1,5.701528620E-3,6.762723458E-3,-2.618500113E-2,2.763867113E-2
8.977818333E-1,-9.397042003E-3,3.121631436E-3,-2.992312610E-2,3.151892220E-2
9.077808333E-1,-2.053816225E-2,-1.484845597E-3,-3.471082628E-2,4.035916669E-2
9.177798333E-1,-2.498131525E-2,-1.761494044E-2,-1.914202988E-2,3.606618286E-2
9.277778333E-1,-2.626265947E-2,-5.482916416E-3,-2.752284408E-2,3.843561631E-2
9.377768333E-1,-2.548309771E-2,-7.682521315E-3,-2.093595564E-2,3.386330819E-2
9.477758333E-1,-2.293162862E-2,-1.944356348E-2,-3.171295881E-2,4.369923922E-2
9.577734583E-1,-1.930704927E-2,-2.346672651E-2,-4.533404768E-2,5.457678337E-2
9.677724583E-1,-1.653499397E-2,-2.604717587E-2,-3.575923204E-2,4.722905962E-2
9.777714583E-1,-2.008975390E-2,-2.156296674E-2,-2.333799183E-2,3.759283987E-2
9.877694583E-1,-2.435462164E-2,-1.580173485E-2,-2.004717886E-2,3.528075679E-2
9.977684583E-1,-1.234559186E-2,-2.749849590E-2,-2.633702874E-2,4.002774036E-2
1.007766458E0,-1.750062509E-2,-1.977392432E-2,-2.304563105E-2,3.504826774E-2
1.017765458E0,-1.255411819E-2,-2.022103075E-2,-2.065002680E-2,3.151062638E-2
1.027764458E0,-3.506556954E-3,-8.613468282E-3,-1.705574334E-2,1.942642938E-2
1.037762458E0,5.577677283E-3,8.837577097E-3,-8.674344420E-3,1.358151332E-2
1.047761458E0,6.023107208E-3,-3.921450024E-3,-3.082885981E-2,3.165555540E-2
1.057760458E0,1.357284933E-2,-4.726893131E-3,-1.869822621E-2,2.358366853E-2
1.067758458E0,9.141098410E-3,7.516142334E-3,-3.036868393E-2,3.259308270E-2
1.077757458E0,-1.098869065E-2,1.239768689E-2,-3.470790267E-2,3.845897126E-2
1.087756458E0,-2.776195865E-2,1.514174066E-2,-2.243342757E-2,3.877186262E-2
1.097754458E0,-2.640805414E-2,1.057557458E-2,-9.859575033E-3,3.010713073E-2
1.107753458E0,-3.121351523E-2,-6.022104502E-3,-1.569801986E-2,3.545387290E-2
1.117751458E0,-3.349115191E-2,5.767234993E-3,-3.320867658E-2,4.751562328E-2
1.127750458E0,-3.561676098E-2,1.022023632E-2,-4.129654527E-2,5.548343486E-2
1.137749458E0,-2.615929166E-2,-4.478636000E-4,-3.067156971E-2,4.031444295E-2
1.147747458E0,-1.687692817E-2,-2.878676199E-3,-1.974838614E-2,2.613649243E-2
1.157746458E0,-6.281334870E-3,-1.024971679E-2,-3.307126701E-2,3.518835835E-2
1.167745458E0,-6.919814274E-5,-1.306202881E-2,-3.426702261E-2,3.667219960E-2
1.177743458E0,-5.719015449E-3,-3.909490641E-3,-1.330943227E-2,1.500440742E-2
1.187742458E0,4.414830543E-4,-1.690477097E-2,-1.974195421E-2,2.599444065E-2
1.197740458E0,-1.654597577E-3,-1.001055425E-2,-2.512665510E-2,2.709792771E-2
1.207739458E0,-1.472453155E-2,-2.507091926E-2,-2.587275982E-2,3.891995019E-2
1.217738458E0,-2.212208161E-2,-1.307987081E-2,-3.888983130E-2,4.661425205E-2
1.227736458E0,-1.935830377E-2,-2.065327931E-2,-2.452146828E-2,3.745135883E-2
1.237735458E0,-1.419283692E-2,-1.623666720E-2,-3.065695167E-2,3.748219133E-2
1.247734458E0,-1.619099496E-2,-1.774278204E-2,-3.514878273E-2,4.257219233E-2
1.257732458E0,-2.471100943E-2,-1.010517522E-2,-8.956764936E-3,2.815976192E-2
1.267731458E0,-3.902844686E-2,-2.518644745E-2,-2.407766461E-2,5.231931510E-2
1.277730458E0,-1.027385026E-2,3.434645338E-4,-3.575689316E-2,3.720517942E-2
1.287728458E0,-1.073916072E-2,-1.478851744E-2,-2.632299542E-2,3.204574713E-2
1.297727458E0,-9.744732063E-3,1.041524781E-2,-4.173508644E-2,4.410504087E-2
1.307725458E0,-8.695522305E-3,7.393711117E-3,-4.667481422E-2,4.805015458E-2
1.317724458E0,-6.874461807E-3,-5.212917807E-3,-8.802983165E-3,1.232579611E-2
1.327723458E0,-3.545422666E-4,1.006225415E-2,-1.149504125E-2,1.528105468E-2
1.337721458E0,-3.152562864E-3,1.490509859E-2,-3.933655858E-2,4.218371081E-2
1.347720458E0,-1.473209638E-2,6.883234915E-3,-4.876402438E-2,5.140373197E-2
1.357719458E0,-1.059277933E-2,6.379651461E-3,-2.241237760E-2,2.559729666E-2
1.367717458E0,-1.401990552E-2,6.110336360E-3,-3.701287508E-3,1.573510376E-2
1.377716458E0,-2.155607114E-2,4.411828706E-3,-2.061728239E-2,3.015295622E-2
1.387715458E0,-2.591343451E-2,6.237240925E-3,-3.274616182E-2,4.222227346E-2
1.397713458E0,-2.584430946E-2,-1.212118326E-2,-3.589196384E-2,4.585939907E-2
1.407712458E0,-2.196724003E-2,-1.112289909E-2,-3.499383152E-2,4.278839519E-2
1.417710458E0,-2.699432887E-2,-1.332618363E-2,-3.574052095E-2,4.672971003E-2
1.427709458E0,-8.914281260E-3,-1.033775850E-2,-2.197032809E-2,2.586559448E-2
1.437708458E0,-1.048095133E-2,-7.376015295E-3,-7.601965070E-3,1.490120181E-2
1.447706458E0,-2.534256354E-3,-1.606281074E-2,-2.721060276E-2,3.169942029E-2
1.457705458E0,-1.340711731E-3,-3.146778232E-2,-8.653879166E-4,3.150821684E-2
1.467704458E0,1.671755500E-3,-2.992588297E-2,4.344305813E-2,5.277928133E-2
1.477702458E0,1.989325091E-2,-2.912261030E-2,-1.062433237E-1,1.119442347E-1
1.487701458E0,-2.549663767E-2,5.746796119E-2,-1.584852719E-1,1.704999311E-1
1.497700458E0,-5.992981257E-2,1.400128807E-2,8.146574736E-2,1.020993952E-1
1.507698458E0,-3.297754711E-2,-7.740326637E-2,1.763683963E-1,1.954087907E-1
1.517697458E0,1.929131661E-2,-3.663931109E-2,-7.615589082E-2,8.668514129E-2
1.527695458E0,-1.823812343E-2,5.297360851E-2,-2.420133322E-1,2.484135369E-1
1.537694458E0,-3.945916738E-2,5.933475788E-2,-3.709649026E-2,8.033547767E-2
1.547693458E0,-4.560901299E-2,-3.911912895E-2,1.560013747E-1,1.671733149E-1
1.557691458E0,2.858462535E-2,-3.107760173E-2,7.501860738E-2,8.608536222E-2
1.567690458E0,-1.735493805E-2,-1.474595839E-2,-1.020625645E-1,1.045724832E-1
1.577689458E0,-2.214011662E-2,1.778337908E-2,-1.391888756E-1,1.420562438E-1
1.587687458E0,-5.509904400E-3,3.472691069E-2,-8.155871809E-2,8.881521192E-2
1.597686458E0,-1.273547323E-2,-2.770309363E-2,7.711015642E-2,8.291941810E-2
1.607685458E0,-4.238339648E-2,-1.759714297E-2,6.004213393E-2,7.557161891E-2
1.617683458E0,-3.314834062E-2,-2.544512736E-2,-3.920265734E-2,5.729847585E-2
1.627682458E0,1.312961211E-2,1.096888321E-2,-1.055147606E-1,1.068927866E-1
1.637680458E0,1.511183649E-2,2.200743050E-2,-6.599576890E-2,7.119084290E-2
1.647679458E0,2.088278253E-3,-1.383421530E-2,7.202015519E-3,1.573580143E-2
1.657678458E0,-1.289475504E-2,-2.382902319E-2,2.276905775E-2,3.539105882E-2
1.667676458E0,2.943415269E-3,-9.423493230E-3,-6.416734457E-3,1.177456578E-2
1.677675458E0,-1.084594550E-2,1.590146985E-2,-3.470439434E-2,3.968483670E-2
1.687674458E0,-4.010108203E-2,-1.389513141E-2,-8.799182475E-2,9.769202976E-2
1.697672458E0,-2.857227311E-2,-4.168766689E-3,-5.176306129E-2,5.927198259E-2
1.707671458E0,-4.358227668E-2,-1.628226177E-2,2.008635521E-2,5.067532491E-2
1.717670458E0,-5.656934464E-2,-2.590098634E-2,3.265728414E-2,7.026699121E-2
1.727668458E0,-3.198892912E-2,-6.178645429E-4,-4.278875470E-2,5.342799708E-2
1.737667458E0,7.824433353E-3,1.570731031E-2,-8.934194684E-2,9.104902427E-2
1.747665458E0,1.212034615E-2,-2.394850510E-3,-3.964236796E-2,4.152295073E-2
1.757664458E0,-8.865109831E-4,-1.904617894E-2,1.499401510E-2,2.425620174E-2
1.767663458E0,-1.459300574E-3,-5.860395299E-3,7.364568114E-3,9.524214127E-3
1.777661458E0,1.501046039E-2,1.100684443E-2,-1.688149631E-2,2.512865820E-2
1.787660458E0,-4.685958624E-3,-6.085624450E-3,-5.894227266E-2,5.944059673E-2
1.797659458E0,-1.771582089E-2,2.459953889E-3,-3.813203216E-2,4.211832807E-2
1.807657458E0,-3.607931228E-2,-3.474591985E-3,8.122951984E-3,3.714528117E-2
1.817656458E0,-3.205489302E-2,-6.566561364E-3,-1.762409270E-2,3.716509839E-2
1.827654458E0,-2.608283931E-2,9.365452763E-3,-5.489307582E-2,6.149208067E-2
1.837653458E0,-2.258022923E-2,2.168975996E-2,-4.740688562E-2,5.681307282E-2
1.847652458E0,-1.026317909E-2,-1.715740266E-2,-2.884431481E-2,3.509563802E-2
1.857650458E0,-6.032316573E-3,-2.316801602E-2,-1.507587612E-2,2.829183363E-2
1.867649458E0,-1.330347542E-2,-9.181670892E-3,1.990392208E-3,1.628641150E-2
1.877648458E0,-1.706847930E-2,-4.750280280E-4,-2.689660728E-2,3.185884682E-2
1.887646458E0,1.422293181E-2,-8.966046249E-3,-4.500894248E-2,4.804671350E-2
1.897645458E0,-4.326208681E-4,-1.007690188E-2,-2.554882407E-2,2.746768144E-2
1.907644458E0,-2.198158398E-2,-3.216606778E-2,-2.674633384E-2,4.725687595E-2
1.917642458E0,-1.829546269E-2,-1.862578469E-2,-2.839057088E-2,3.857030367E-2
1.927641458E0,-1.290763719E-2,1.057208910E-2,-1.372107625E-2,2.160194665E-2
1.937639458E0,-1.337985467E-2,1.569675906E-2,-2.913959920E-2,3.570049016E-2
1.947638458E0,-2.596931197E-2,-2.516408642E-2,-3.976808310E-2,5.375069155E-2
1.957637250E0,-2.781277461E-2,-2.098705939E-2,-3.241111636E-3,3.499302642E-2
1.967635250E0,-2.843117248E-3,-2.517860853E-2,5.040299892E-4,2.534363212E-2
1.977634250E0,-1.417017896E-3,1.237900321E-2,-5.472935379E-2,5.612975883E-2
1.987633250E0,-1.086001536E-2,1.010882859E-2,-4.484989822E-2,4.724025528E-2
1.997631250E0,8.707874548E-3,1.874773226E-3,-3.018157303E-2,3.146854310E-2
2.007630250E0,-1.034043543E-2,-1.223086994E-2,-2.973309159E-2,3.377240767E-2
2.017628250E0,-2.313576953E-2,-1.965543369E-2,-2.042432427E-3,3.042649233E-2
2.027627250E0,-1.910680041E-2,7.869220512E-3,-8.479632139E-3,2.233603847E-2
2.037626250E0,-2.704600364E-2,2.361132404E-2,-4.470430255E-2,5.733633754E-2
2.047624250E0,-2.104555439E-2,-3.558254563E-3,-3.452546954E-2,4.059044940E-2
2.057623250E0,-2.472763745E-2,-1.598250746E-3,-1.866080403E-2,3.101993015E-2
2.067622250E0,-1.587058581E-2,-1.995760455E-2,-6.535432935E-3,2.632286757E-2
2.077620250E0,-4.348921459E-3,6.724066738E-3,-2.569558918E-2,2.691448485E-2
2.087619250E0,4.589753654E-3,1.118869169E-2,-4.575504720E-2,4.732628239E-2
2.097618250E0,-3.060122039E-3,-2.644454670E-4,-3.123582602E-2,3.138647966E-2
2.107616250E0,-1.010934250E-2,-1.587572040E-2,-3.497804403E-2,3.972028283E-2
2.117615250E0,-1.289572349E-2,-1.826325275E-2,-1.461920857E-2,2.671268135E-2
2.127613250E0,-2.185809810E-2,1.835034429E-3,5.286467671E-3,2.256303491E-2
2.137612250E0,-2.470019208E-2,3.488975336E-3,-2.181128383E-2,3.313615156E-2
2.147611250E0,-2.365253549E-2,-2.056442904E-2,-5.504217982E-2,6.334019053E-2
2.157609250E0,-2.792127701E-2,-3.055988332E-2,-2.046583951E-2,4.617742700E-2
2.167608250E0,-3.015812935E-2,-1.304135570E-2,-7.147051692E-3,3.362543788E-2
2.177607250E0,-9.555793907E-3,6.911548800E-3,-2.226736665E-2,2.519758563E-2
2.187605250E0,-1.115411203E-3,-1.056189872E-2,-2.960445285E-2,3.145189144E-2
2.197604250E0,1.129904989E-2,-1.598681864E-2,-3.064876556E-2,3.636748176E-2
2.207602250E0,-3.907018136E-3,-2.250494404E-2,-2.555759490E-2,3.427722209E-2
2.217601250E0,-4.499615170E-3,-2.351112880E-3,1.689845324E-3,5.350686467E-3
2.227600250E0,-4.456656408E-3,-6.536066193E-3,-1.303344369E-3,8.017521697E-3
2.237598250E0,-1.123792822E-2,1.352342894E-2,-3.378287315E-2,3.808486155E-2
2.247597250E0,-1.155011471E-2,1.037602008E-2,-4.395819783E-2,4.661963212E-2
2.257596250E0,-2.492636969E-2,3.366030775E-3,-4.081648886E-2,4.794413241E-2
2.267594250E0,-2.488198567E-2,-4.799466556E-3,-2.495182335E-2,3.556320541E-2
2.277593250E0,-3.727917921E-2,1.830926874E-2,-1.073841155E-2,4.289848490E-2
2.287591250E0,-3.483038357E-2,-1.343870598E-2,-2.376425385E-2,4.425487769E-2
2.297590250E0,-2.185705656E-2,1.261547055E-2,-3.589020967E-2,4.387468711E-2
2.307589250E0,-1.968313487E-2,-1.109556907E-2,-2.331811130E-2,3.246955137E-2
2.317587250E0,-2.304236026E-2,-3.165218032E-3,-3.768998265E-2,4.428886727E-2
2.327586250E0,-5.400196016E-3,1.997158190E-4,-2.855955541E-2,2.906630710E-2
2.337585250E0,9.421161767E-3,3.445414436E-3,-3.258068562E-3,1.054723568E-2
2.347583250E0,-1.064741425E-3,4.873707922E-3,-2.001969695E-2,2.063189204E-2
2.357582250E0,-3.387657478E-3,-1.447951608E-2,-3.558147669E-2,3.856389623E-2
2.367581250E0,-1.011774788E-2,-2.313378696E-2,-1.896602869E-2,3.157928381E-2
2.377579250E0,-1.861013426E-2,-1.736406348E-3,-2.899400353E-2,3.449644105E-2
2.387578250E0,-2.478652988E-2,-9.158167826E-3,-3.557796836E-2,4.431744503E-2
2.397576250E0,-3.322733285E-2,3.440290414E-3,-1.896368980E-2,3.841240395E-2
2.407575250E0,-2.456872109E-2,-2.173781448E-2,-1.731769860E-2,3.709524658E-2
2.417574250E0,-2.784168178E-2,-2.517913843E-2,-2.989505947E-2,4.798815309E-2
2.427572250E0,-1.960410610E-2,-3.956944736E-3,-2.885074675E-2,3.510475717E-2
2.437571250E0,-1.053476399E-2,1.739345887E-2,-2.825374603E-2,3.481074301E-2
2.447570250E0,-1.229574434E-2,-2.038148942E-3,-2.540849090E-2,2.830072066E-2
2.457568250E0,-5.129086208E-3,-1.062131192E-2,-3.109724700E-2,3.325896215E-2
2.467567250E0,-2.143607531E-3,-1.760049599E-2,-3.783323944E-2,4.178189223E-2
2.477565250E0,-7.169636562E-3,-7.186512403E-3,-2.226444304E-2,2.446947226E-2
2.487564250E0,-5.578517821E-3,1.151741827E-2,-2.256148160E-2,2.593821961E-2
2.497563250E0,-2.232063113E-2,-8.897865659E-3,-2.211183071E-2,3.265448889E-2
2.507561250E0,-2.336783091E-2,-2.236400787E-2,-2.585404873E-2,4.140816592E-2
2.517560250E0,-2.672546659E-2,-1.003224377E-2,-1.597576261E-2,3.271271114E-2
2.527559250E0,-1.925354725E-2,1.107873206E-3,-2.032082856E-2,2.801539823E-2
2.537557250E0,-2.039921779E-2,2.315184195E-3,-2.316783786E-2,3.095540139E-2
2.547556250E0,-2.584864005E-2,1.099768988E-2,-3.694036961E-2,4.640789030E-2
2.557555250E0,-5.370503124E-3,6.889990048E-4,-2.032550633E-2,2.103433457E-2
2.567553250E0,1.374534220E-3,9.736012631E-3,-1.089511693E-2,1.467592788E-2
2.577552250E0,9.568931870E-3,5.577244452E-3,-2.060558796E-3,1.126570084E-2
2.587550250E0,4.017420877E-3,6.477885826E-3,-3.693452239E-2,3.771288400E-2
2.597549250E0,-3.938282467E-3,-6.433544060E-3,-6.118117154E-2,6.164443453E-2
2.607548250E0,-1.716086531E-2,-4.678992786E-3,-3.064233363E-2,3.543079002E-2
2.617546250E0,-3.323433124E-2,-6.885469876E-3,-1.903268695E-3,3.399342436E-2
2.627545250E0,-3.508007795E-2,2.026917320E-3,-1.754749417E-3,3.518237354E-2
2.637544250E0,-2.983812220E-2,-1.203147075E-2,-1.702709198E-2,3.640043525E-2
2.647542250E0,-2.954501225E-2,-1.441688692E-2,-3.125102878E-2,4.535836391E-2
2.657541250E0,-3.951279731E-2,-2.952350089E-2,-4.861725926E-2,6.925702964E-2
2.667539250E0,7.034803424E-3,-1.165610349E-2,-1.988111794E-2,2.409589298E-2
2.677538250E0,-4.746294580E-4,-6.880929148E-3,-1.120384991E-2,1.315669837E-2
2.687537250E0,-1.287445424E-2,-1.894926363E-2,-3.261226058E-2,3.985455688E-2
2.697535250E0,6.816026196E-4,-2.177710959E-2,-2.183642685E-2,3.084698724E-2
2.707534250E0,-4.991183281E-3,-2.333073992E-2,-4.322261810E-3,2.424700564E-2
2.717533250E0,-1.201434709E-2,-3.000435329E-3,-2.961965561E-2,3.210406745E-2
2.727531250E0,-3.223045567E-2,1.085098758E-2,-3.141592026E-2,4.629801561E-2
2.737530250E0,-3.390361816E-2,1.730304630E-2,-2.033603132E-2,4.315558950E-2
2.747528250E0,-2.208179064E-2,-4.349278630E-3,-1.734225690E-2,2.841259539E-2
2.757527250E0,-4.347715471E-3,2.069335101E-2,-3.156443954E-2,3.799251570E-2
2.767526250E0,-2.168818166E-2,2.253483108E-2,-3.365949690E-2,4.594733472E-2
2.777524250E0,-1.532310370E-2,2.547735556E-2,-5.656011701E-2,6.389788721E-2
2.787523250E0,-6.388923638E-3,-1.035083080E-3,-2.184110463E-2,2.277989450E-2
2.797522250E0,-1.269949459E-2,-7.008635992E-3,1.797141731E-2,2.309480420E-2
2.807520250E0,-1.006989207E-2,-4.924167566E-3,-2.723223746E-2,2.944902222E-2
2.817519250E0,-3.321821485E-3,1.135226641E-2,-3.621356070E-2,3.809633091E-2
2.827518250E0,-3.029182959E-2,-2.646008123E-3,-2.723282218E-2,4.081939371E-2
2.837516250E0,-2.522355443E-2,-6.263650468E-3,-2.154114246E-2,3.375621178E-2
2.847515250E0,-2.370786477E-2,-2.015705170E-2,-1.645114124E-2,3.519956865E-2
2.857513250E0,-2.277943656E-2,1.301202369E-2,-3.695440292E-2,4.531934891E-2
2.867512250E0,-1.995508522E-2,2.909489427E-4,-4.323782086E-2,4.762141567E-2
2.877511250E0,-2.071224483E-2,-1.283391431E-2,-2.004016221E-2,3.154860605E-2
2.887509250E0,-9.520363435E-3,-1.562916890E-2,-2.228607774E-2,2.883708552E-2
2.897508250E0,-3.080569021E-3,8.504266961E-4,-3.485993028E-2,3.500611189E-2
2.907507250E0,-7.079552896E-3,-1.780191543E-2,-1.016012192E-2,2.168539462E-2
2.917505250E0,-2.255409949E-2,-8.398778965E-3,-1.464844465E-2,2.817452435E-2
2.927504250E0,-2.092155688E-2,-1.982023609E-2,-2.467817366E-2,3.794160719E-2
2.937502250E0,-1.097429188E-2,-3.958418245E-3,-3.500844955E-2,3.690116119E-2
2.947501250E0,-1.569082048E-2,1.015870580E-2,-4.878215075E-2,5.224078275E-2
2.957500833E0,-2.275528025E-2,-1.319309209E-2,-2.153938830E-2,3.399714262E-2
2.967498833E0,-2.711432470E-2,-9.312992275E-3,-1.105766952E-2,3.072768270E-2
2.977497833E0,-6.840401776E-3,1.230220826E-2,-2.213346541E-2,2.623024429E-2
2.987496833E0,-1.159173958E-2,-5.808919245E-3,-2.662295759E-2,2.961239335E-2
2.997494833E0,-3.868280333E-3,7.536365477E-3,-3.590131938E-2,3.688719467E-2
3.007493833E0,-4.681372214E-3,1.781430993E-2,-2.242699564E-2,2.902128559E-2
3.017491833E0,-7.327785473E-3,2.324809832E-3,-3.111186504E-2,3.204761032E-2
3.027490833E0,-2.022425814E-2,1.566350302E-2,-1.749077618E-2,3.098859783E-2
3.037489833E0,-3.027352050E-2,9.551918985E-3,-1.539571881E-2,3.528106231E-2
3.047487833E0,-3.833789069E-2,9.324645022E-3,-3.874657452E-2,5.529954706E-2
3.057486833E0,-3.831680417E-2,2.279677036E-2,-2.991786361E-2,5.369309810E-2
3.067485833E0,-3.672683660E-2,8.204199731E-3,-9.266082644E-3,3.875602801E-2
3.077483833E0,-1.679736950E-2,-1.772786136E-2,-2.872561634E-2,3.770397491E-2
3.087482833E0,-1.419650970E-2,-1.038066016E-2,-1.704814196E-2,2.449363463E-2
3.097480833E0,-9.138832614E-4,-1.586997425E-3,-6.271723509E-3,6.533625274E-3
3.107479833E0,-1.663624216E-3,-2.778757905E-3,-2.662938952E-2,2.682561327E-2
3.117478833E0,1.139916519E-2,-2.395701783E-2,-4.039548934E-2,4.832882399E-2
3.127476833E0,-4.835830070E-3,-3.312911561E-2,-2.991143167E-2,4.489562672E-2
3.137475833E0,-1.175378054E-2,-2.382518139E-2,-2.272344947E-2,3.495920166E-2
3.147474833E0,-2.622704627E-2,1.486706656E-2,-2.813680172E-3,3.027877838E-2
3.157472833E0,-3.780763960E-2,-4.041696529E-3,-1.673648536E-2,4.154350569E-2
3.167471833E0,-2.607622465E-2,-1.661800844E-2,-4.862252176E-2,5.762184758E-2
3.177470833E0,-3.154313374E-2,-2.170488277E-2,-2.676972270E-2,4.671926023E-2
3.187468833E0,-3.654383702E-2,2.298770707E-2,-7.761009336E-3,4.386479188E-2
3.197467833E0,-2.447766898E-2,4.143507860E-2,-2.048630476E-2,5.230402183E-2
3.207465833E0,-9.900450725E-3,1.749506109E-2,-2.288366318E-2,3.045912224E-2
3.217464833E0,-6.297140624E-3,-5.417165504E-3,-2.497872055E-2,2.632368026E-2
3.227463833E0,5.838591009E-3,-5.542982281E-3,-3.575630844E-2,3.665143095E-2
3.237461833E0,-1.934697479E-4,1.331106652E-2,-2.183233380E-2,2.557093510E-2
3.247460833E0,-8.325265646E-3,1.722730316E-2,-1.119800270E-2,2.216946744E-2
3.257459833E0,-4.140267223E-3,-4.924411390E-3,-1.733173192E-2,1.848730839E-2
3.267457833E0,-2.015061976E-2,-1.103617758E-2,-1.688208103E-2,2.851051301E-2
3.277456833E0,-1.899276143E-2,-1.826455011E-2,-2.361924291E-2,3.538626023E-2
3.287454833E0,-2.203223549E-2,6.330317863E-3,-3.784084082E-2,4.424275713E-2
3.297453833E0,-2.538228806E-2,1.363979767E-2,-2.796664774E-2,4.015517418E-2
3.307452833E0,-1.987834051E-2,-1.227276776E-2,-2.512723982E-2,3.430958220E-2
3.317450833E0,-2.400492160E-2,-2.002878069E-2,-2.453082383E-2,3.973851576E-2
3.327449833E0,-1.470485201E-2,-2.093273282E-2,-1.899526477E-2,3.186270641E-2
3.337448833E0,-1.447163947E-2,-2.711547758E-3,-3.905530751E-2,4.173844612E-2
3.347446833E0,1.995800883E-3,8.853630673E-3,-2.947522938E-2,3.084086809E-2
3.357445833E0,-3.468458690E-3,-1.453086879E-2,7.636463642E-4,1.495859316E-2
3.367443833E0,-9.480931275E-3,-7.344695575E-3,-1.599798203E-2,1.999420015E-2
3.377442833E0,-7.688613497E-3,-9.986114718E-3,-2.213171124E-2,2.546860631E-2
3.387441833E0,-1.203866785E-2,2.373042509E-3,-2.661886454E-2,2.931083082E-2
3.397439833E0,-2.405741863E-2,5.699613428E-3,-3.095691383E-2,3.961786842E-2
3.407438833E0,-2.631095381E-2,-1.457642683E-2,-1.822986424E-2,3.517195559E-2
3.417437833E0,-3.850031538E-2,3.639926576E-3,-1.254344702E-2,4.065539832E-2
3.427435833E0,-3.350282807E-2,1.327405776E-2,-2.946061134E-2,4.654640393E-2
3.437434833E0,-3.755525915E-2,1.000804863E-2,-3.784727275E-2,5.424918969E-2
3.447432833E0,-2.781880455E-2,2.592063618E-2,-3.081541121E-2,4.894236237E-2
3.457431833E0,-2.793244153E-2,1.405060568E-2,-2.557922959E-2,4.039724986E-2
3.467430833E0,-2.190732434E-2,2.310148395E-3,-2.438464344E-2,3.286150455E-2
3.477428833E0,-1.828219682E-2,1.466817901E-2,-5.132802844E-2,5.642659568E-2
3.487427833E0,-4.262163397E-3,2.755417921E-2,-3.321276963E-2,4.336458112E-2
3.497426833E0,2.943305634E-3,-1.178566272E-3,6.168812513E-4,3.229954952E-3
3.507424833E0,8.718618806E-3,-3.214052275E-3,-1.420347154E-2,1.697300945E-2
3.517423833E0,-4.690928757E-3,-6.670988981E-3,-7.024844885E-3,1.076361242E-2
3.527421833E0,-1.395622568E-2,-1.209291848E-3,-1.899935782E-2,2.360538539E-2
3.537420833E0,-1.423418770E-2,-1.447336508E-2,-3.561071277E-2,4.099040449E-2
3.547419833E0,-2.578022763E-2,-2.407433673E-2,-2.797658801E-2,4.502092072E-2
3.557417833E0,-2.381344356E-2,-2.498033995E-2,4.352667332E-3,3.478567508E-2
3.567416833E0,-3.582393514E-2,-3.280179716E-2,-2.229660273E-2,5.344577363E-2
3.577415833E0,-2.398566233E-2,-2.125004706E-2,-4.625030637E-2,5.626692933E-2
3.587413833E0,-2.979607707E-2,-2.305054637E-2,-3.547564209E-2,5.174606340E-2
3.597412833E0,-2.640629997E-2,-4.071814600E-2,-2.305264771E-2,5.372787599E-2
3.607410833E0,-2.222565042E-2,-1.854663486E-2,-1.990976930E-2,3.513340454E-2
3.617409833E0,-1.711796137E-2,-1.172336246E-2,-3.008801758E-2,3.654792239E-2
3.627408833E0,-1.197330695E-2,-2.601010543E-3,-3.562533081E-2,3.767345923E-2
3.637406833E0,-6.771167088E-3,1.220158019E-2,-7.331238985E-3,1.576306848E-2
3.647405833E0,-5.937134866E-3,4.382935523E-3,-1.586525023E-2,1.749759581E-2
3.657404833E0,-3.141270429E-3,1.494101329E-2,-3.263155639E-2,3.602665583E-2
3.667402833E0,-7.137531694E-3,2.717986833E-2,-1.736564577E-2,3.303415284E-2
3.677401833E0,-2.052074851E-2,2.167934004E-2,-2.230712771E-2,3.726530358E-2
3.687400833E0,-9.667329546E-3,3.328241773E-2,-4.775245607E-2,5.900401386E-2
3.697398833E0,-7.852847166E-3,1.711406474E-2,-2.844202638E-2,3.411022259E-2
3.707397833E0,-2.394306902E-2,7.213432436E-3,-1.796557009E-2,3.079067830E-2
3.717395833E0,-2.525514767E-2,2.829950278E-2,-2.575230718E-2,4.584610852E-2
3.727394833E0,-2.051248932E-2,3.079693309E-2,7.414269447E-4,3.701030965E-2
3.737393833E0,-2.992685370E-2,5.666807351E-3,-2.590316534E-2,3.998378737E-2
3.747391833E0,-2.526368095E-2,-1.109532468E-2,-3.623110235E-2,4.554176744E-2
3.757390833E0,-2.241073307E-2,-1.785872022E-2,-1.652423143E-3,2.870375144E-2
3.767389833E0,-1.933928205E-2,-1.530044346E-2,-1.392514408E-2,2.831997595E-2
3.777387833E0,-1.876872171E-2,-5.308805291E-3,-3.084055424E-2,3.649093194E-2
3.787386833E0,-1.845399532E-2,-7.986641054E-3,-9.737952948E-3,2.234198081E-2
3.797384833E0,-1.163997911E-3,-3.788773046E-2,-2.515413702E-2,4.549247871E-2
3.807383833E0,-5.414448604E-3,-2.921829907E-2,-3.907635748E-2,4.909161811E-2
3.817382833E0,-2.133245168E-2,-1.136622092E-2,-2.096519172E-2,3.199693324E-2
3.827380833E0,-1.563547293E-2,-1.495280365E-2,-2.036643684E-2,2.971272623E-2
3.837379833E0,-2.027500100E-2,-3.186341384E-3,-7.646403909E-3,2.190196178E-2
3.847378833E0,-3.389978092E-2,-2.536854939E-2,-1.812461436E-2,4.605713941E-2
3.857376833E0,-2.171721675E-2,9.252799643E-3,-2.441037118E-2,3.395759158E-2
3.867375833E0,-2.472032843E-2,-1.172188124E-2,-2.755383432E-2,3.882925345E-2
3.877373833E0,-2.042487245E-2,1.149723396E-2,-3.533530891E-2,4.240219168E-2
3.887372833E0,-2.156158945E-2,1.083563064E-2,-2.844787359E-2,3.730408212E-2
3.897371833E0,-2.979075976E-2,2.692707904E-2,-5.096433163E-3,4.047876707E-2
3.907369833E0,-2.343618851E-2,-8.309504431E-3,-4.495924115E-3,2.526887670E-2
3.917368833E0,-1.164811039E-2,-4.535972403E-3,-4.925402105E-2,5.081547118E-2
3.927367833E0,-1.474669615E-2,1.793888075E-2,-3.323615849E-2,4.054516890E-2
3.937365833E0,-1.574116135E-2,3.200802622E-2,-2.769592166E-2,4.515929560E-2
3.947364833E0,-1.261671994E-2,7.836424142E-3,-2.530148685E-2,2.933865031E-2
3.957362333E0,-2.102063064E-2,2.236044930E-3,4.478967190E-4,2.114396890E-2
3.967361333E0,-8.540625907E-3,-5.668263445E-3,-3.008684814E-2,3.178505832E-2
3.977360333E0,-1.311877649E-2,2.992743385E-2,-5.583213866E-2,6.469143143E-2
3.987358333E0,-2.927379280E-2,-1.079698649E-2,-1.287089109E-2,3.375188439E-2
3.997357333E0,-1.562860245E-2,1.754742851E-3,-7.930578589E-3,1.761324541E-2
4.007356333E0,-1.462801594E-2,-7.705982696E-3,-3.113349974E-2,3.525132375E-2
4.017354333E0,-2.711121837E-2,-2.543319310E-2,-4.220812619E-2,5.624403425E-2
4.027353333E0,-2.132494166E-2,-4.275090369E-3,-2.828473628E-2,3.567990808E-2
4.037351333E0,-1.596373927E-2,-1.115715555E-2,-1.376551509E-2,2.384979030E-2
4.047350333E0,-3.423906561E-2,-8.616436429E-3,-1.960395992E-2,4.038405422E-2
4.057349333E0,-3.008476507E-2,-2.953909194E-2,-2.738484979E-2,5.027505385E-2
4.067347333E0,-2.704382921E-2,-3.857839398E-2,-1.347023070E-2,4.900110504E-2
4.077346333E0,-2.654612152E-2,-2.884147800E-2,-1.497296512E-2,4.196089972E-2
4.087345333E0,-6.908850744E-3,-1.013839700E-2,-2.829876959E-2,3.084379472E-2
4.097343333E0,2.571367901E-3,-2.321554292E-2,-2.680012822E-2,3.555024948E-2
4.107342333E0,9.832623024E-3,-4.582330716E-3,-1.916834235E-2,2.202506706E-2
4.117340333E0,1.061278777E-2,6.124770531E-3,-1.422744513E-2,1.877669495E-2
4.127339333E0,-5.457462184E-4,1.874812055E-3,-1.198036015E-2,1.213844259E-2
4.137338333E0,-2.040446201E-2,1.631933449E-2,-2.125638306E-2,3.368228866E-2
4.147336333E0,-1.988363955E-2,1.639232876E-2,-4.295540035E-2,5.009225472E-2
4.157335333E0,-2.790252937E-2,2.950621506E-2,-2.678726435E-2,4.864900208E-2
4.167334333E0,-3.338646848E-2,1.278237544E-2,-1.167104244E-2,3.760663015E-2
4.177332333E0,-3.875644170E-2,1.502776335E-2,-2.798711300E-2,5.011161481E-2
4.187331333E0,-3.196808014E-2,3.085742208E-2,-4.071299314E-2,6.026347531E-2
4.197329333E0,-2.135509137E-2,2.328126242E-2,-2.889518559E-2,4.281341913E-2
4.207328333E0,-1.088793581E-2,1.053055217E-2,-2.470857918E-2,2.898195232E-2
4.217327333E0,-1.161046894E-2,-8.180389458E-3,-3.323966682E-2,3.614688384E-2
4.227325333E0,-3.992935661E-3,-1.051859050E-2,-3.294087410E-2,3.480927273E-2
4.237324333E0,-1.188565353E-2,2.321518774E-4,-1.512674689E-2,1.923905210E-2
4.247323333E0,-2.268920671E-2,-1.100361818E-2,-7.639387250E-3,2.634843357E-2
4.257321333E0,-1.512353092E-2,-2.993922879E-2,-1.646926761E-2,3.736730367E-2
4.267320333E0,-1.497378739E-2,-2.111340265E-2,-3.368347049E-2,4.248018673E-2
4.277318333E0,-9.839018416E-3,-2.747694343E-2,-2.155751467E-2,3.628381378E-2
4.287317333E0,-1.761848303E-2,-1.717800725E-2,-3.547798097E-2,4.317617411E-2
4.297316333E0,-1.806278005E-2,-2.571643816E-2,-2.664634645E-2,4.120226928E-2
4.307314333E0,-1.988579571E-2,-4.063802088E-2,-2.364964843E-2,5.105094987E-2
4.317313333E0,-1.601508513E-2,-2.161114460E-2,-3.727190673E-2,4.596432915E-2
4.327312333E0,-1.863184204E-2,-1.723867097E-2,-1.961390018E-2,3.207837893E-2
4.337310333E0,-2.701382568E-2,-3.452495905E-3,-1.527702034E-2,3.122585237E-2
4.347309333E0,-3.012723047E-2,-1.411734274E-2,-2.695566416E-2,4.282005619E-2
4.357307333E0,-3.585594865E-2,-7.563556743E-3,-2.411274791E-2,4.386662804E-2
4.367306333E0,-2.795051308E-2,1.937112882E-2,-3.084932506E-2,4.591462370E-2
4.377305333E0,-1.322662108E-2,2.258604447E-2,-3.548850596E-2,4.409656410E-2
4.387303333E0,6.169890594E-3,2.712132309E-2,-3.234270394E-2,4.265775679E-2
4.397302333E0,3.858449701E-3,1.558063130E-2,-2.500561774E-2,2.971404759E-2
4.407301333E0,-6.713864375E-3,1.142232793E-2,-1.347841680E-2,1.890008650E-2
4.417299333E0,-1.203985557E-2,1.979600898E-2,-2.275385499E-2,3.247426690E-2
4.427298333E0,-1.812967585E-2,1.874016857E-2,-4.101470947E-2,4.860129070E-2
4.437296333E0,-2.960273523E-2,2.445645912E-2,-3.038564086E-2,4.896659572E-2
4.447295333E0,-3.939525001E-2,6.264485295E-3,-2.679837406E-2,4.805603345E-2
4.457294333E0,-4.175763477E-2,9.539365173E-3,-1.692535043E-2,4.605612919E-2
4.467292333E0,-4.510207767E-2,-7.291422530E-3,-1.633185804E-2,4.851898432E-2
4.477291333E0,-1.075014252E-2,-4.630845761E-3,-4.657073379E-2,4.801919972E-2
4.487290333E0,1.077548655E-2,-7.884753321E-3,-4.073404312E-2,4.286656873E-2
4.497288333E0,3.994032014E-3,-1.747872087E-2,-1.962910295E-2,2.658495171E-2
4.507287333E0,-2.147280313E-3,-2.874351201E-2,7.015489340E-3,2.966508699E-2
4.517285333E0,-1.269569390E-2,-2.996618993E-2,-1.677917004E-2,3.661548483E-2
4.527284333E0,8.371202834E-4,-2.543328446E-2,-4.341849983E-2,5.032612499E-2
4.537283333E0,-1.680032965E-2,-2.280252849E-2,-2.410807014E-2,3.719415851E-2
4.547281333E0,-4.105116321E-2,-2.742488723E-2,7.630031705E-3,4.995537833E-2
4.557280333E0,-3.329530673E-2,-6.576112197E-3,-3.278299928E-2,4.718630886E-2
4.567279333E0,-2.515360711E-2,-4.427125684E-3,-5.508895755E-2,6.072146767E-2
4.577277333E0,-3.296183271E-2,-1.151999927E-2,-1.692242682E-2,3.880156348E-2
4.587276333E0,-2.780436924E-2,-1.083184137E-2,-1.438005745E-2,3.312397604E-2
4.597274333E0,-2.738755412E-2,6.983722514E-3,-3.398986459E-2,4.420589775E-2
4.607273333E0,-1.074294314E-2,2.250673704E-2,-1.633010387E-2,2.981000389E-2
4.617272333E0,-1.368073046E-2,1.534602890E-2,-4.057967663E-3,2.095543105E-2
4.627270333E0,-6.928822640E-3,1.862369820E-2,-3.295081437E-2,3.847865493E-2
4.637269333E0,-9.078880381E-3,2.637993040E-2,-3.654100478E-2,4.597359924E-2
4.647268333E0,-2.178550126E-2,1.163800796E-2,-9.742630720E-3,2.655127394E-2
4.657266333E0,-1.951383971E-2,1.338967617E-2,-4.648536444E-3,2.411808987E-2
4.667265333E0,-1.862572074E-2,2.695981431E-2,-1.392572880E-2,3.560442365E-2
4.677263333E0,-8.980117254E-3,2.409237630E-2,-5.224487185E-2,5.822895961E-2
4.687262333E0,-1.174142830E-2,1.807550688E-2,-2.305674076E-2,3.156261051E-2
4.697261333E0,-1.897810685E-2,-8.798786189E-3,-5.544914603E-3,2.164100866E-2
4.707259333E0,-2.336198369E-2,-2.148975549E-2,-3.922955453E-2,5.046335127E-2
4.717258333E0,-3.297813183E-2,-1.870058680E-2,-8.414084852E-2,9.228733128E-2
4.727257333E0,-3.395808863E-2,3.875984781E-3,-2.501555800E-2,4.235508450E-2
4.737255333E0,-3.399655234E-2,-2.134277110E-2,1.270483017E-2,4.210335093E-2
4.747254333E0,-2.182637695E-2,-2.351311137E-2,-9.191823006E-4,3.209520265E-2
4.757253333E0,-2.260396527E-2,-3.191975839E-2,-2.651653826E-2,4.725396304E-2
4.767251333E0,-9.717158787E-3,-1.894146582E-2,-2.681942403E-2,3.424155089E-2
4.777250333E0,-2.231443673E-4,-7.608386729E-3,-4.208591938E-2,4.276870295E-2
4.787248333E0,9.987044334E-3,-9.529441466E-3,-3.340338886E-2,3.614329393E-2
4.797247333E0,-1.338042112E-2,-2.661122889E-2,-1.633945942E-2,3.397309387E-2
4.807246333E0,-1.934121894E-2,-1.807938866E-2,1.629385114E-2,3.108756390E-2
4.817244333E0,-1.687723881E-2,-5.249783816E-3,1.734751940E-2,2.476565866E-2
4.827243333E0,-2.386442397E-2,1.818217517E-2,-3.040201306E-2,4.271281568E-2
4.837241333E0,-2.627767950E-2,2.798689830E-2,-6.977774799E-2,7.964117673E-2
4.847240333E0,-3.853178071E-2,2.595288266E-2,-2.532721460E-2,5.291236190E-2
4.857239333E0,-3.107563058E-2,1.425947005E-2,-2.982196927E-2,4.536934156E-2
4.867237333E0,-5.380003022E-2,2.033093556E-2,-5.318042636E-2,7.833229181E-2
4.877236333E0,-5.045238962E-2,-2.789827072E-3,-6.680443883E-2,8.376192334E-2
4.887235333E0,-4.787298180E-3,1.467054302E-2,-3.357354283E-2,3.695031576E-2
4.897233333E0,2.247200092E-2,4.550177597E-2,1.327902675E-2,5.245698231E-2
4.907232333E0,1.704390272E-2,3.944026900E-2,2.495767057E-2,4.968817524E-2
4.917230333E0,1.700352039E-3,2.727115114E-4,2.316023648E-2,2.322417108E-2
4.927229333E0,4.243050311E-3,-3.217882202E-2,3.602294147E-2,4.848847672E-2
4.937228333E0,-2.078162570E-2,-2.345246478E-2,1.087459320E-1,1.131705430E-1
4.947226333E0,-3.690139426E-2,-1.677143047E-2,2.131871438E-1,2.170063411E-1
4.957225333E0,-4.362170884E-2,-2.138202282E-3,2.661132163E-1,2.696732639E-1
4.967224583E0,-5.255921451E-2,-7.357960304E-3,2.829485196E-1,2.878827458E-1
4.977222583E0,-4.351344399E-2,7.731265052E-3,2.743303084E-1,2.778674331E-1
4.987221583E0,-9.277013283E-2,6.387264490E-2,3.437063527E-1,3.616905711E-1
4.997219583E0,-1.627104700E-2,-2.607982663E-2,4.875121897E-1,4.884803368E-1
5.007218583E0,-1.840093915E-1,-7.807197771E-2,2.770130110E-1,3.416004949E-1
5.017217583E0,-9.388170315E-1,-2.367387417E-1,-9.003215218E-1,1.322120075E0
5.027215583E0,3.718357358E-1,8.436847880E-2,5.292408442E-1,6.522850035E-1
5.037214583E0,3.485885951E-1,5.601588375E-1,-1.955797157E0,2.064081987E0
5.047213583E0,8.003868321E-1,1.796384334E-1,-2.874111146E-1,8.691916915E-1
5.057211583E0,4.405215528E-1,-1.277564361E-1,3.956424916E-1,6.057342046E-1
5.067210583E0,1.430608835E-1,9.499371931E-2,-2.727194005E-1,3.222826314E-1
5.077208583E0,-2.078274763E-1,-4.650138215E-1,-3.487981081E-2,5.105357141E-1
5.087207583E0,-3.761380440E-1,-2.171299213E-1,-1.625806618E-1,4.637431427E-1
5.097206583E0,-4.032790283E-1,4.104303192E-2,-5.270621717E-2,4.087743271E-1
5.107204583E0,-1.967618034E-1,-2.829683270E-1,8.890399039E-2,3.559356696E-1
5.117203583E0,-1.078351551E-1,1.092532328E-1,-5.465567887E-2,1.629476381E-1
5.127202583E0,5.395280700E-3,1.409883744E-1,-1.109643656E-1,1.794990842E-1
5.137200583E0,8.108090920E-2,-1.302652388E-1,-1.968348205E-2,1.546951380E-1
5.147199583E0,-8.958639700E-2,1.271858392E-1,-3.153871179E-2,1.587345286E-1
5.157198583E0,-1.202130345E-1,1.372130466E-1,-3.021080911E-2,1.849088608E-1
5.167196583E0,-2.516215866E-2,-1.368126493E-2,7.489698529E-3,2.960416901E-2
5.177195583E0,-5.489450108E-2,1.820432104E-1,-7.040106118E-2,2.027546451E-1
5.187193583E0,1.160794185E-1,8.704739892E-2,-1.114637178E-1,1.829640441E-1
5.197192583E0,4.308648761E-2,-2.856557256E-1,7.442336082E-2,2.983194188E-1
5.207191583E0,-5.348930553E-2,-5.631956804E-2,5.524273932E-2,9.531400630E-2
5.217189583E0,1.338972368E-1,5.619983716E-2,7.774457932E-3,1.454212292E-1
5.227188583E0,1.426435567E-1,5.464081415E-2,2.710184455E-2,1.551364330E-1
5.237187583E0,-4.332658891E-2,-5.444441166E-2,5.184258342E-2,8.677004508E-2
5.247185583E0,-7.811112665E-3,-1.963443853E-2,3.829341531E-3,2.147530009E-2
5.257184583E0,3.803027233E-2,1.688720283E-1,-1.040634817E-1,2.019734432E-1
5.267182583E0,-1.170799319E-1,9.679674480E-2,-2.081374884E-2,1.533314462E-1
5.277181583E0,-8.965753203E-2,-1.092507660E-1,-4.497678280E-3,1.414016691E-1
5.287180583E0,-9.187528957E-2,5.530249969E-2,-9.162002206E-2,1.410448998E-1
5.297178583E0,-7.455324210E-2,-2.296950304E-2,-5.526261985E-2,9.560199334E-2
5.307177583E0,-1.681403406E-2,-1.230747623E-1,-4.225724280E-2,1.312089305E-1
5.317175583E0,1.388068696E-2,5.694333347E-2,-2.864317060E-2,6.523532723E-2
5.327174583E0,8.143974552E-2,-6.383504913E-2,3.422726154E-2,1.089901421E-1
5.337173583E0,-2.593768219E-2,-2.601231184E-2,-9.332740903E-3,3.790123715E-2
5.347171583E0,-2.399516406E-2,1.318109616E-2,-3.327942789E-2,4.309326530E-2
5.357170583E0,-5.713367404E-2,8.095199409E-3,-2.743981361E-2,6.389626229E-2
5.367169583E0,-9.387447087E-2,8.690295214E-3,-4.405292273E-2,1.040605473E-1
5.377167583E0,-4.815030428E-2,-1.234068568E-2,-2.399697304E-2,5.519600565E-2
5.387166583E0,-5.305745210E-3,1.885490533E-2,-1.262881637E-2,2.330547983E-2
5.397164583E0,-2.436114494E-3,-2.345004596E-2,-2.907235622E-3,2.375481695E-2
5.407163583E0,4.739493538E-2,3.106624534E-2,-6.057130694E-3,5.699193216E-2
5.417162583E0,4.943111859E-2,-1.220362443E-2,3.420971990E-2,6.134059724E-2
5.427160583E0,4.876862906E-2,-1.757903442E-1,2.301581025E-1,2.936892515E-1
5.437159583E0,-8.195397159E-2,-6.067630558E-2,1.594477236E-2,1.032099960E-1
5.447158583E0,-2.363713173E-1,-2.123362917E-2,-4.306029940E-1,4.916718469E-1
5.457156583E0,-8.319321586E-2,2.460678966E-2,-4.383072853E-2,9.719947544E-2
5.467155583E0,-9.174182687E-2,6.253501666E-2,-4.311035156E-2,1.191037091E-1
5.477153583E0,1.297568416E-2,1.365189912E-1,-6.304467916E-3,1.372790940E-1
5.487152583E0,6.285871943E-2,2.474100017E-1,-6.573732197E-2,2.635987918E-1
5.497151583E0,6.792487498E-2,-2.684862585E-2,-9.305258989E-3,7.362896982E-2
5.507149583E0,8.677998930E-3,-5.179504738E-2,-2.966643333E-2,6.031692852E-2
5.517148583E0,3.967153095E-4,-1.142154266E-1,-1.514019549E-2,1.152152185E-1
5.527147583E0,-9.079154469E-3,-1.214953198E-1,1.301590204E-2,1.225273744E-1
5.537145583E0,3.756324425E-3,1.043773767E-1,-2.993774414E-2,1.086508871E-1
5.547144583E0,-4.848365039E-3,6.498764040E-2,-1.271769404E-2,6.639758874E-2
5.557142583E0,-2.326113749E-2,5.795266339E-2,-1.974897087E-2,6.549514151E-2
5.567141583E0,-3.376624513E-2,5.669453901E-2,-2.363736928E-2,7.009390338E-2
5.577140583E0,-6.040336395E-2,-6.386768847E-2,-2.513425648E-2,9.142963883E-2
5.587138583E0,-4.843860855E-2,-2.634366396E-2,-3.576274037E-2,6.572108511E-2
5.597137583E0,-3.259051625E-2,-6.840585644E-3,7.044140697E-3,3.403755689E-2
5.607136583E0,-3.799599303E-2,1.998163295E-2,-1.343105435E-3,4.295072844E-2
5.617134583E0,-5.095300265E-3,5.803850326E-2,-4.759750485E-2,7.523265523E-2
5.627133583E0,6.913912240E-3,-7.220643812E-3,-4.474874139E-2,4.585182369E-2
5.637131583E0,2.035497995E-2,-4.730122918E-2,6.139576435E-4,5.149862556E-2
5.647130583E0,3.529690001E-3,-2.782942547E-2,4.666078091E-3,2.843779032E-2
5.657129583E0,-1.854480989E-3,-3.955925070E-2,-4.902305603E-3,3.990496230E-2
5.667127583E0,-3.646488134E-2,-1.178933778E-2,-3.572707236E-2,5.239369958E-2
5.677126583E0,-6.322965218E-2,1.296495018E-2,-3.272452712E-2,7.236693667E-2
5.687125583E0,-7.156443782E-2,1.356237688E-3,-4.095214427E-2,8.246445453E-2
5.697123583E0,-3.321825139E-2,7.302582061E-4,-1.864384711E-2,3.809958711E-2
5.707122583E0,-1.432651889E-2,-8.521573349E-3,-1.873447895E-3,1.677427086E-2
5.717120583E0,-2.544998785E-2,-2.194446330E-2,-1.086003363E-2,3.531574269E-2
5.727119583E0,-3.239580397E-2,-1.499415214E-2,-5.966031075E-2,6.952456682E-2
5.737118583E0,-4.528211709E-2,-2.922681180E-2,-5.083686233E-2,7.408821247E-2
5.747116583E0,-3.227842111E-2,2.524917939E-2,-2.255037189E-2,4.677538671E-2
5.757115583E0,3.748465402E-2,4.050247511E-2,2.041438401E-2,5.884128526E-2
5.767114583E0,5.229853833E-2,2.458433727E-2,1.503728449E-2,5.971303606E-2
5.777112583E0,-1.248340342E-2,1.760732307E-2,-3.015935361E-2,3.708692218E-2
5.787111583E0,-5.238368841E-2,-3.567547982E-2,-2.550964773E-2,6.831934425E-2
5.797109583E0,-4.649508543E-2,-7.074742077E-3,-1.831523359E-2,5.047071157E-2
5.807108583E0,-9.841375574E-3,2.614729801E-2,-1.037003696E-2,2.980052908E-2
5.817107583E0,2.619735338E-3,1.545852956E-2,7.306680679E-3,1.729788229E-2
5.827105583E0,-4.118420564E-2,4.816597299E-2,2.228900135E-2,6.717811644E-2
5.837104583E0,-6.823782893E-2,-7.458356540E-3,2.062698877E-1,2.173920305E-1
5.847103583E0,-5.654758204E-2,-4.375083181E-3,5.233392495E-1,5.264035908E-1
5.857101583E0,-1.055464452E-2,-1.728086913E-2,8.257607514E-1,8.260089875E-1
5.867100583E0,-1.741185704E-2,-6.781084514E-2,1.069362187E0,1.071651516E0
5.877098583E0,-6.761106223E-2,-4.508338028E-2,1.203689688E0,1.206429704E0
5.887097583E0,-1.219090560E-1,-4.757396524E-2,1.277096803E0,1.283783994E0
5.897096583E0,-1.018844071E-1,1.900534025E-1,1.232560900E0,1.251282182E0
5.907094583E0,1.071029740E-1,4.303870490E-1,1.375882003E0,1.445598611E0
5.917093583E0,-6.855474802E-2,-1.223822327E-1,1.454680835E0,1.461428581E0
5.927092583E0,-7.430908430E-2,6.553303488E-2,1.376007718E0,1.379570099E0
5.937090583E0,-1.028419801E-1,-6.817390698E-2,1.378183467E0,1.383695712E0
5.947089583E0,-4.003917463E-2,-6.682474877E-2,1.405661872E0,1.407818874E0
5.957087583E0,-8.591202496E-2,1.020099487E-1,1.370554020E0,1.377027678E0
5.967086208E0,-1.955634714E-1,-5.941951966E-2,1.330787691E0,1.346392078E0
5.977085208E0,-1.420447288E-1,2.330285920E-1,1.260916972E0,1.290112646E0
5.987083208E0,-1.117541600E-1,-3.103284312E-2,1.289532076E0,1.294737427E0
5.997082208E0,-5.386241270E-2,1.168179218E-1,1.239702689E0,1.246358834E0
6.007080208E0,-8.826304419E-2,-7.728492193E-3,1.226844662E0,1.230039804E0
6.017079208E0,2.692118386E-2,1.103273549E-2,1.181836304E0,1.182194367E0
6.027078208E0,2.301911758E-1,-1.560772241E-1,1.185070399E0,1.217267402E0
6.037076208E0,2.233864603E-1,-1.604893503E-1,1.131907514E0,1.164848901E0
6.047075208E0,1.035832426E-1,-4.275231010E-2,9.940284151E-1,1.000324816E0
6.057074208E0,-2.642031502E-2,5.119512534E-3,8.004522479E-1,8.009045159E-1
6.067072208E0,-1.542758614E-1,-1.428909042E-3,6.647804725E-1,6.824486500E-1
6.077071208E0,-2.574348154E-1,5.235495026E-2,5.374526739E-1,5.982216158E-1
6.087070208E0,-2.435391632E-1,1.321245471E-3,3.336047029E-1,4.130437840E-1
6.097068208E0,-1.999163032E-1,-1.066019818E-2,2.150874889E-1,2.938414470E-1
6.107067208E0,5.384046737E-2,-3.742855273E-2,1.801152921E-1,1.916799701E-1
6.117065208E0,1.592876561E-2,-2.226317858E-1,8.406366527E-2,2.385064725E-1
6.127064208E0,-5.060787074E-2,-3.487022503E-1,4.173391700E-2,3.548184547E-1
6.137063208E0,5.996473141E-2,6.232609291E-1,-3.122968644E-1,6.996994256E-1
6.147061208E0,-2.694526342E-1,1.344972068E-1,-2.686158246E-1,4.035451424E-1
6.157060208E0,7.029548239E-2,2.783372409E-1,-3.129593539E-1,4.246841552E-1
6.167059208E0,1.366503800E-1,3.369300647E-2,-2.244822103E-1,2.649543503E-1
6.177057208E0,2.390318735E-1,-1.062627748E-1,-2.491516131E-1,3.612541214E-1
6.187056208E0,1.045697044E-1,-5.375149833E-2,-3.334374726E-1,3.535598885E-1
6.197054208E0,-1.735129451E-1,1.289809983E-1,-5.470818686E-1,5.882528462E-1
6.207053208E0,-9.593921408E-2,7.357111087E-2,-5.354681289E-1,5.489473183E-1
6.217052208E0,-1.364434251E-1,1.012641820E-1,-4.634087974E-1,4.935777105E-1
6.227050208E0,-5.048157088E-2,-8.698751064E-2,-3.708462042E-1,3.842422714E-1
6.237049208E0,5.857503098E-2,-8.147650075E-2,-3.138832140E-1,3.295331948E-1
6.247048208E0,7.598617539E-2,-1.098838184E-1,-2.077673596E-1,2.470134169E-1
6.257046208E0,1.008449915E-1,-3.467172531E-2,-2.350194776E-1,2.580813742E-1
6.267045208E0,4.330415022E-2,-2.134217953E-2,-2.638977063E-1,2.682773517E-1
6.277043208E0,-1.154453793E-1,-1.660177282E-1,-1.838025463E-1,2.732634218E-1
6.287042208E0,-5.554208022E-2,-5.998363893E-2,-2.996557689E-1,3.106067279E-1
6.297041208E0,-1.765527298E-1,8.658124792E-2,-3.617882824E-1,4.117741373E-1
6.307039208E0,-2.005029616E-1,-9.261683528E-2,-1.089733887E-1,2.462813741E-1
6.317038208E0,6.375102282E-2,-2.148614940E-1,-8.968108535E-2,2.413966685E-1
6.327037208E0,-1.585069797E-1,7.261818374E-2,-1.312980580E-1,2.182591196E-1
6.337035208E0,2.243174650E-2,-1.086458258E-1,-1.814636600E-1,2.126879372E-1
6.347034208E0,-1.396805168E-1,6.696375718E-2,7.881637394E-2,1.738010712E-1
6.357032208E0,1.059634979E-1,1.467163800E-1,-1.376662606E-1,2.273894420E-1
6.367031208E0,8.965064328E-2,3.568482257E-1,-1.532292098E-1,3.985687955E-1
6.377030208E0,1.430047319E-1,-9.759335484E-2,6.848083556E-2,1.861838906E-1
6.387028208E0,3.213531782E-1,-3.273123680E-1,-5.031762958E-2,4.614467631E-1
6.397027208E0,-1.090686983E-1,1.337064805E-1,-1.043195897E-1,2.016332826E-1
6.407025208E0,5.474565290E-3,-5.031891779E-2,-2.447410583E-1,2.499202873E-1
6.417024208E0,-2.829682174E-1,1.697652087E-1,-3.438817692E-1,4.765982683E-1
6.427023208E0,-1.262418976E-1,3.928695592E-1,-6.014171201E-1,7.293737448E-1
6.437021208E0,9.815282375E-3,8.513059027E-2,-4.948767579E-1,5.022415381E-1
6.447020208E0,9.409743251E-2,-2.548304290E-1,-4.552180177E-1,5.301097226E-1
6.457019208E0,2.556988136E-1,-3.196903762E-1,-6.782378393E-1,7.922060254E-1
6.467017208E0,6.331598997E-2,-7.975946588E-2,-7.629248178E-1,7.696913437E-1
6.477016208E0,1.023038718E-1,2.545234501E-2,-1.021078804E0,1.026506614E0
6.487014208E0,-4.934026748E-3,2.479579223E-1,-1.303819748E0,1.327197578E0
6.497013208E0,-4.328399925E-1,-5.001593609E-2,-1.160425555E0,1.239531976E0
6.507012208E0,-3.050269481E-2,-1.287714031E-1,-1.392602701E0,1.398876253E0
6.517010208E0,-4.993573330E-2,2.578153229E-1,-1.633624345E0,1.654596875E0
6.527009208E0,-7.754771087E-2,-1.643131004E-1,-1.498616813E0,1.509590937E0
6.537008208E0,2.560583442E-1,-2.660169382E-1,-1.670007475E0,1.710337936E0
6.547006208E0,-3.406240661E-2,1.761586822E-1,-1.802169167E0,1.811078638E0
6.557005208E0,9.946285587E-2,-7.146583915E-2,-1.793028799E0,1.797206861E0
6.567003208E0,1.376178018E-1,7.402441969E-3,-1.792261645E0,1.797552575E0
6.577002208E0,-8.555298764E-2,1.557795460E-1,-1.642567661E0,1.652154685E0
6.587001208E0,9.980089802E-2,-1.552907005E-1,-1.509203197E0,1.520450496E0
6.596999208E0,-2.937458418E-2,-6.143986058E-2,-1.346192181E0,1.347913614E0
6.606998208E0,-4.122941192E-2,3.777891058E-2,-1.100581641E0,1.102001388E0
6.616997208E0,6.762447428E-2,-3.228145207E-2,-7.168072432E-1,7.207133866E-1
6.626995208E0,-5.427571949E-2,1.312697356E-1,-2.668447030E-1,3.022973581E-1
6.636994208E0,2.370575612E-1,8.143642905E-2,-1.690775031E-1,3.023497665E-1
6.646992208E0,2.845372081E-2,-8.767786581E-2,-9.153699160E-2,1.299078258E-1
6.656991208E0,-7.755856477E-3,-1.653289262E-1,-1.156988561E-2,1.659146449E-1
6.666990208E0,1.775436135E-1,-1.366106829E-1,2.116247678E-1,3.081708223E-1
6.676988208E0,-1.385858449E-1,1.130236088E-1,8.798246920E-2,1.993020006E-1
6.686987208E0,-8.316323061E-2,1.443623298E-3,2.545678890E-1,2.678115327E-1
6.696986208E0,-1.182854450E-1,1.524676670E-2,1.952882320E-1,2.288261435E-1
6.706984208E0,-7.336084865E-2,-5.749881439E-2,3.208729756E-1,3.341367897E-1
6.716983208E0,-1.256798705E-1,5.736157841E-2,4.665025592E-2,1.458150435E-1
6.726981208E0,-1.220673145E-1,1.870656877E-2,2.224690139E-2,1.254802359E-1
6.736980208E0,-1.118020889E-1,2.343833554E-2,-8.792633593E-2,1.441530548E-1
6.746979208E0,-7.508172076E-2,1.687939954E-2,-2.297371030E-2,8.031170703E-2
6.756977208E0,-1.839658298E-2,2.002541397E-2,-7.656870425E-2,8.125403338E-2
6.766976208E0,-3.659589551E-3,-3.065248860E-2,-3.660415471E-2,4.788352321E-2
6.776975208E0,-8.865292557E-3,9.384145152E-4,-7.952213287E-5,8.915175696E-3
6.786973208E0,2.420341630E-2,2.460718938E-2,1.683530331E-2,3.840242918E-2
6.796972208E0,1.725421976E-2,1.847574994E-2,-3.959500551E-2,4.697686555E-2
6.806970208E0,2.201502275E-2,3.388033779E-3,-5.770792544E-2,6.185745434E-2
6.816969208E0,2.804865494E-2,1.583990392E-2,-4.274256170E-2,5.352154875E-2
6.826968208E0,1.955118880E-2,2.334350786E-2,-1.983901799E-2,3.634219280E-2
6.836966208E0,8.826225847E-3,2.482169540E-2,-1.474784732E-2,3.019135349E-2
6.846965208E0,-7.392780930E-3,2.426687229E-2,-4.005167305E-2,4.740960678E-2
6.856964208E0,-3.898181532E-2,1.419669357E-2,-6.879658520E-2,8.033740206E-2
6.866962208E0,-3.580414597E-2,5.581442799E-2,-1.110169905E-1,1.293134155E-1
6.876961208E0,-4.157319166E-2,2.726284169E-2,-1.162636971E-1,1.264469852E-1
6.886959208E0,-1.724756856E-2,3.246386407E-3,-6.058650970E-2,6.307727645E-2
6.896958208E0,-2.431407485E-2,7.313290203E-3,-2.482084572E-2,3.550679980E-2
6.906957208E0,-1.106684234E-2,-1.529475441E-3,3.684389055E-2,3.850047487E-2
6.916955208E0,-8.756278530E-3,-3.187071258E-2,7.425846934E-2,8.128182456E-2
6.926954208E0,-5.489548780E-3,-2.928373992E-2,1.019502980E-1,1.062145744E-1
6.936952208E0,-1.464709248E-2,-3.536222209E-2,8.219021738E-2,9.066562690E-2
6.946951208E0,-3.270943400E-2,-4.220030554E-2,-3.879042864E-3,5.353335253E-2
6.956950208E0,-2.382013131E-2,-6.118538793E-2,1.543255627E-2,6.744786242E-2
6.966948000E0,-2.706255857E-2,-6.579732902E-2,3.894479513E-2,8.110713687E-2
6.976947000E0,-1.400572602E-2,-4.511092158E-2,1.066187149E-1,1.166134897E-1
6.986946000E0,-1.767065115E-2,-2.743090575E-2,1.626192534E-1,1.658605682E-1
6.996944000E0,-3.150889099E-2,-2.395597401E-2,2.247564447E-1,2.282151580E-1
7.006943000E0,-5.745243866E-2,2.503511934E-3,2.562086177E-1,2.625831412E-1
7.016942000E0,-7.880712803E-2,1.166142423E-2,2.425933760E-1,2.553391829E-1
7.026940000E0,-8.791698039E-2,3.221968857E-2,2.125065279E-1,2.322208608E-1
7.036939000E0,-6.326778699E-2,4.359386605E-2,1.723928744E-1,1.887393471E-1
7.046937000E0,-7.044031061E-3,5.556151307E-2,1.246497738E-1,1.366538189E-1
7.056936000E0,3.360467926E-3,6.039258314E-2,7.421695411E-2,9.574295338E-2
7.066935000E0,-9.281285405E-3,6.410674823E-2,7.617167830E-3,6.522145869E-2
7.076933000E0,-1.772269137E-2,4.979746949E-2,-4.625849247E-2,7.024051454E-2
7.086932000E0,-1.468071397E-2,6.316849852E-2,-5.852185786E-2,8.735325075E-2
7.096931000E0,-9.122789316E-3,5.942222400E-2,-3.740522325E-2,7.080520261E-2
7.106929000E0,-3.639785763E-2,6.301175203E-2,-4.607898295E-2,8.613104901E-2
7.116928000E0,3.460820764E-4,2.156409050E-2,-7.452276349E-3,2.281811111E-2
7.126926000E0,1.340393789E-2,1.173336211E-2,1.919816315E-2,2.618982256E-2
7.136925000E0,-1.855281327E-2,1.976807139E-3,-4.894119501E-3,1.928903970E-2
7.146924000E0,-2.440978646E-2,-3.936558452E-2,-2.255855799E-2,5.152063139E-2
7.156922000E0,-3.287063442E-2,-2.688613026E-2,-3.199128628E-2,5.316751833E-2
7.166921000E0,-2.636034451E-2,-4.753778560E-2,-4.501654387E-2,7.057760299E-2
7.176919000E0,-2.809521340E-2,-8.318073571E-2,-4.546853364E-2,9.887246007E-2
7.186918000E0,-2.506990056E-2,-9.520976479E-2,-8.019514740E-2,1.269829157E-1
7.196917000E0,-1.693192855E-2,-8.581799442E-2,-1.072870517E-1,1.384266225E-1
7.206915000E0,-3.591582779E-2,-7.264333590E-2,-1.553359616E-1,1.752034871E-1
7.216914000E0,-6.092023954E-2,-5.732155696E-2,-2.143232578E-1,2.300684579E-1
7.226913000E0,-5.639964748E-2,-1.701879624E-2,-2.611845982E-1,2.677460625E-1
7.236911000E0,-3.335675731E-2,-8.886906698E-3,-2.900791991E-1,2.921259867E-1
7.246910000E0,6.098170839E-3,-1.737533935E-2,-3.409710252E-1,3.414679050E-1
7.256908000E0,2.022866182E-2,5.638577405E-4,-3.810899413E-1,3.816268597E-1
7.266907000E0,2.130783856E-2,2.867954210E-2,-3.737686425E-1,3.754724201E-1
7.276906000E0,-6.198721021E-2,8.879386174E-2,-2.211071974E-1,2.462014558E-1
7.286904000E0,-4.687358301E-2,1.148816895E-1,-2.524161136E-1,2.812629193E-1
7.296903000E0,-2.179710433E-2,1.040015652E-1,-3.653077215E-1,3.804486440E-1
7.306902000E0,4.459517889E-2,1.066627426E-1,-4.168170136E-1,4.325529950E-1
7.316900000E0,7.383176878E-2,3.979751560E-2,-4.277612472E-1,4.359067066E-1
7.326899000E0,4.815748539E-2,1.539585472E-2,-4.892996836E-1,4.919048242E-1
7.336897000E0,3.078189936E-2,1.792673864E-2,-4.584831029E-1,4.598648159E-1
7.346896000E0,-2.496998627E-3,1.229059948E-2,-4.607483143E-1,4.609189765E-1
7.356895000E0,-2.046439597E-2,1.854558876E-2,-4.525388235E-1,4.533807640E-1
7.366893000E0,-6.136724090E-2,2.859780899E-2,-4.373044878E-1,4.425143930E-1
7.376892000E0,-3.652786681E-2,-2.901188779E-2,-3.732751375E-1,3.761785520E-1
7.386891000E0,-2.511717165E-2,-3.628289817E-2,-2.849897826E-1,2.883860211E-1
7.396889000E0,-1.244221710E-2,-1.876812899E-2,-1.977504945E-1,1.990284138E-1
7.406888000E0,-5.049125534E-3,-6.868722857E-2,-1.076542568E-1,1.278001097E-1
7.416886000E0,-1.372535203E-2,-5.434966392E-2,3.094872773E-2,6.403198423E-2
7.426885000E0,9.968899693E-3,-9.282116806E-2,1.045967478E-1,1.401985301E-1
7.436884000E0,-1.799654206E-2,-7.259437004E-2,1.641734433E-1,1.804071439E-1
7.446882000E0,-8.243548980E-2,-6.848521183E-2,1.815303183E-1,2.108058127E-1
7.456881000E0,-9.093079979E-2,-5.673767136E-2,1.783792537E-1,2.081026955E-1
7.466880000E0,-9.589715067E-2,-4.226299408E-2,1.970710480E-1,2.232026482E-1
7.476878000E0,-9.904503576E-2,-1.895844330E-2,2.013938946E-1,2.252306428E-1
7.486877000E0,-5.400197843E-2,-1.498517575E-2,2.284729350E-1,2.352459376E-1
7.496875000E0,-5.398372415E-2,-5.550909141E-3,2.307007241E-1,2.369976354E-1
7.506874000E0,-3.134007091E-2,8.864825465E-3,2.115282887E-1,2.140210319E-1
7.516873000E0,-1.192618204E-2,2.995728206E-2,1.847234827E-1,1.875164996E-1
7.526871000E0,-1.630152561E-2,5.770391918E-2,1.296327710E-1,1.428290494E-1
7.536870000E0,1.102083206E-2,6.347413888E-2,7.724405766E-2,1.005836442E-1
7.546869000E0,3.496426653E-2,8.018838655E-2,4.431195438E-2,9.806236063E-2
7.556867000E0,1.718884058E-2,7.426212385E-2,-1.316734493E-2,7.735436802E-2
7.566866000E0,3.061921885E-2,8.435967143E-2,-4.145500481E-2,9.885650282E-2
7.576864000E0,1.497453656E-3,7.258316897E-2,-7.753700316E-2,1.062193280E-1
7.586863000E0,-1.646062469E-2,5.401917290E-2,-9.685152590E-2,1.121126276E-1
7.596862000E0,-1.463064719E-2,4.429808551E-2,-1.028472608E-1,1.129333223E-1
7.606860000E0,-2.461668653E-2,2.753521231E-2,-1.223143959E-1,1.277692475E-1
7.616859000E0,-1.993144054E-2,1.585239835E-3,-9.986868918E-2,1.018505296E-1
7.626858000E0,-2.557181094E-2,-2.747172434E-2,-1.040675747E-1,1.106285373E-1
7.636856000E0,-3.366830427E-2,-4.296448637E-2,-1.476275772E-1,1.573956904E-1
7.646855000E0,-4.711759463E-2,-4.289283514E-2,-1.593068057E-1,1.715765759E-1
7.656853000E0,-4.840654023E-2,-5.439423067E-2,-1.983784854E-1,2.113195423E-1
7.666852000E0,-4.990816003E-2,-4.899623193E-2,-1.883540189E-1,2.009196148E-1
7.676851000E0,-5.355483089E-2,-6.000430975E-2,-1.874664116E-1,2.039909130E-1
7.686849000E0,-3.928612635E-2,-5.172627408E-2,-1.621719414E-1,1.746961526E-1
7.696848000E0,-2.701609148E-2,-4.297043409E-2,-1.193609673E-1,1.297049263E-1
7.706847000E0,-6.597961597E-3,-4.848618570E-2,-8.028577924E-2,9.402260180E-2
7.716845000E0,-8.706504107E-3,-3.605715910E-2,-4.974109411E-2,6.204916099E-2
7.726844000E0,-1.653450061E-2,-2.459019362E-2,-3.656088531E-2,4.706129692E-2
7.736842000E0,-1.724983435E-2,-3.661338291E-3,-2.428056300E-2,3.000846418E-2
7.746841000E0,-3.621195272E-2,3.280636016E-3,-1.425434232E-2,3.905450508E-2
7.756840000E0,-2.913424535E-2,2.577914898E-3,1.013673306E-2,3.095485833E-2
7.766838000E0,-1.992763985E-2,-3.864049324E-2,8.962378263E-2,9.961235346E-2
7.776837000E0,-2.023014190E-2,1.781837557E-1,1.493536752E-1,2.333778690E-1
7.786836000E0,4.893483616E-2,1.017719031E-1,1.343988365E-1,1.755425467E-1
7.796834000E0,-7.191581894E-3,-2.461504771E-3,1.403957409E-1,1.406013581E-1
7.806833000E0,1.887477558E-2,-1.462854037E-1,1.005838037E-1,1.785294878E-1
7.816831000E0,-4.126586566E-2,-5.084847453E-2,1.646517456E-1,1.771966037E-1
7.826830000E0,-5.977133475E-2,1.303238297E-1,1.745282775E-1,2.258695037E-1
7.836829000E0,-6.093326787E-2,2.215729099E-1,2.260176891E-1,3.223219094E-1
7.846827000E0,-8.003948355E-2,1.560624050E-1,2.510127819E-1,3.062175858E-1
7.856826000E0,2.543224521E-2,-6.707485428E-2,2.394890893E-1,2.500017181E-1
7.866825000E0,1.746581588E-3,-1.769167189E-1,2.815598059E-1,3.325334574E-1
7.876823000E0,4.226195712E-2,-1.539941718E-1,2.420542628E-1,2.899836962E-1
7.886822000E0,-2.460661836E-2,1.313805061E-2,2.450585622E-1,2.466410204E-1
7.896820000E0,-9.384859694E-2,1.300694575E-1,2.413227761E-1,2.897624979E-1
7.906819000E0,-7.819410229E-2,6.496822125E-2,2.371338308E-1,2.580070563E-1
7.916818000E0,-6.966652298E-2,-7.994628442E-2,1.991082180E-1,2.255857160E-1
7.926816000E0,-3.829374421E-2,-2.002927359E-1,1.700715297E-1,2.655332675E-1
7.936815000E0,-5.462350091E-2,-1.399994184E-1,1.223202431E-1,1.937674015E-1
7.946814000E0,-6.401241163E-2,2.119748150E-3,1.364272356E-2,6.548439570E-2
7.956812000E0,-6.400968902E-2,1.010246198E-1,-4.727590799E-2,1.286010325E-1
7.966811208E0,-6.591502251E-2,8.658447303E-2,-5.176540017E-2,1.205044307E-1
7.976809208E0,-3.599693963E-2,7.868100177E-3,-5.385694921E-2,6.525532654E-2
7.986808208E0,-1.799736433E-3,-6.456120023E-2,-4.233325660E-2,7.722365078E-2
7.996807208E0,3.257140316E-2,-3.289112709E-2,-9.862264752E-2,1.089456247E-1
8.006805208E0,3.302593281E-2,8.112231480E-2,-1.399320567E-1,1.650833810E-1
8.016804208E0,3.374144929E-2,1.447663610E-1,-2.007021689E-1,2.497541697E-1
8.026803208E0,2.718867570E-2,1.037451465E-1,-2.828754294E-1,3.025240289E-1
8.036801208E0,2.516367529E-3,3.696848421E-2,-2.932074594E-1,2.955395324E-1
8.046800208E0,1.858020382E-2,-5.752823776E-2,-3.039926487E-1,3.099455639E-1
8.056798208E0,-4.267023895E-2,-3.692804020E-2,-2.915877807E-1,2.969980864E-1
8.066797208E0,-6.407978252E-2,1.185543416E-2,-3.005872303E-1,3.075702406E-1
8.076796208E0,-5.717846006E-2,4.145656711E-2,-3.345887893E-1,3.419615201E-1
8.086794208E0,-7.708388049E-2,5.228669315E-2,-3.615549785E-1,3.733601818E-1
8.096793208E0,-1.154117944E-2,-3.079994807E-2,-3.525876886E-1,3.541185024E-1
8.106792208E0,5.810436666E-2,-1.186773547E-1,-3.481005353E-1,3.723364266E-1
8.116790208E0,1.956231678E-2,-1.384370607E-1,-3.248876739E-1,3.536940834E-1
8.126789208E0,3.050766494E-2,-1.083422274E-1,-2.612559342E-1,2.844704186E-1
8.136787208E0,-4.841779612E-2,-1.851115528E-2,-2.393978727E-1,2.449454782E-1
8.146786208E0,-1.062608105E-1,6.373638194E-2,-1.808760148E-1,2.192483044E-1
8.156785208E0,-4.309723187E-2,1.877679246E-2,-1.421113139E-1,1.496848853E-1
8.166783208E0,-3.267877266E-2,-4.816256972E-2,-1.009533477E-1,1.165294543E-1
8.176782208E0,-3.034354091E-2,-6.665686516E-2,-5.635254085E-2,9.240929070E-2
8.186781208E0,8.300981428E-3,-6.258758222E-2,-4.693501532E-2,7.867024472E-2
8.196779208E0,-7.564904686E-2,4.219772454E-2,-1.431983113E-2,8.779797156E-2
8.206778208E0,-5.653005866E-2,9.558593262E-2,-2.376951635E-2,1.135663152E-1
8.216776208E0,-1.709586985E-2,8.677329241E-2,-4.368922591E-2,9.864391265E-2
8.226775208E0,-3.246200541E-2,4.050050167E-2,-5.702321649E-2,7.710849272E-2
8.236774208E0,1.444881706E-2,-9.255750660E-3,-8.981206298E-2,9.143655664E-2
8.246772208E0,5.101841837E-3,-6.953285015E-3,-6.885330319E-2,6.939131303E-2
8.256771208E0,7.290546019E-3,3.912646538E-2,-6.510816157E-2,7.630927242E-2
8.266770208E0,-2.281378895E-2,8.274605004E-2,-3.726664424E-2,9.357446520E-2
8.276768208E0,-3.230153589E-2,1.064933013E-1,-1.630729973E-2,1.124728432E-1
8.286767208E0,-5.803014357E-3,4.728047613E-2,-1.256098866E-2,4.926354469E-2
8.296765208E0,9.453960992E-3,-2.387546630E-3,2.412151873E-2,2.601779051E-2
8.306764208E0,3.616480954E-2,-5.070084604E-2,1.844445705E-2,6.495126815E-2
8.316763208E0,3.120585904E-4,-2.998427975E-2,-2.225976527E-2,3.734503398E-2
8.326761208E0,-4.597687595E-2,1.547145282E-2,-3.722512901E-2,6.114694762E-2
8.336760208E0,-3.927008305E-2,6.790433207E-3,-6.147587121E-2,7.326344345E-2
8.346759208E0,-5.177161284E-2,-1.194509527E-2,-3.393548548E-2,6.304444759E-2
8.356757208E0,-2.577551331E-2,-7.077318620E-2,3.784902692E-3,7.541582367E-2
8.366756208E0,-4.335693961E-2,-9.639671302E-2,-7.148805857E-3,1.059398694E-1
8.376754208E0,-7.675265400E-2,-8.436698045E-2,-5.511585474E-3,1.141890313E-1
8.386753208E0,-4.924424523E-2,-5.595715030E-2,-2.708137929E-2,7.930699504E-2
8.396752208E0,-8.869191919E-2,-4.157467687E-3,-3.188720584E-2,9.434158660E-2
8.406750208E0,-7.708863135E-2,-3.784233231E-2,-7.789660692E-3,8.622863801E-2
8.416749208E0,2.260285065E-2,1.364199997E-1,1.975774169E-2,1.396841921E-1
8.426748208E0,8.657626865E-2,-1.281232027E-1,-6.344579816E-2,1.671417801E-1
8.436746208E0,-1.897785103E-2,-6.091513236E-2,5.243490636E-2,8.258469341E-2
8.446745208E0,3.554644821E-2,-8.061268427E-2,3.537565470E-4,8.810266733E-2
8.456743208E0,-1.604621242E-1,1.482816157E-1,7.294635415E-2,2.303404034E-1
8.466742208E0,-9.135238403E-2,2.038185156E-1,9.957165062E-2,2.445439817E-1
8.476741208E0,-2.543997450E-2,1.355808694E-1,1.672145802E-1,2.167719545E-1
8.486739208E0,-3.141193684E-2,1.251820075E-1,1.109234351E-1,1.701800612E-1
8.496738208E0,1.388747704E-1,-1.193168848E-1,1.961156130E-2,1.841394422E-1
8.506737208E0,3.486877419E-3,-1.136342865E-1,5.987607300E-2,1.284914530E-1
8.516735208E0,1.051976223E-2,1.334396967E-2,-6.431352496E-3,1.816835762E-2
8.526734208E0,-4.562271740E-2,1.443744057E-1,8.038752079E-2,1.714279874E-1
8.536732208E0,-1.125933999E-1,1.399103763E-1,1.148141724E-1,2.131536565E-1
8.546731208E0,-2.356990702E-2,5.898027043E-3,8.682530522E-2,9.016075015E-2
8.556730208E0,4.750661720E-3,-1.270678259E-1,1.073426002E-1,1.664068358E-1
8.566728208E0,3.774498302E-2,-1.996252032E-1,7.442628443E-2,2.163658413E-1
8.576727208E0,4.249390885E-3,-1.135676922E-1,9.044824004E-2,1.452465564E-1
8.586726208E0,-9.936465919E-2,6.021244779E-2,9.284267485E-2,1.487233561E-1
8.596724208E0,-5.323224731E-2,8.939299121E-2,1.031764591E-1,1.465269966E-1
8.606723208E0,-8.672113342E-2,4.916172184E-2,1.349116373E-1,1.677455804E-1
8.616721208E0,-1.082977429E-3,-1.394912223E-1,1.432942057E-1,1.999805073E-1
8.626720208E0,-4.227235420E-2,-1.486745577E-1,2.036181754E-1,2.556392720E-1
8.636719208E0,-2.758219332E-2,-6.613962411E-2,1.709866190E-1,1.853959308E-1
8.646717208E0,-6.483113145E-2,7.495558536E-2,1.982264578E-1,2.216193673E-1
8.656716208E0,-1.098987654E-1,1.404553551E-1,2.122878420E-1,2.772572330E-1
8.666715208E0,-6.330241347E-2,8.392874991E-2,2.203634316E-1,2.441541984E-1
8.676713208E0,-4.643096706E-2,-1.294253319E-2,2.393680519E-1,2.441729062E-1
8.686712208E0,-3.204650592E-2,-9.996350544E-2,2.675101161E-1,2.873696977E-1
8.696710208E0,-2.457597530E-2,-3.965230366E-2,2.999919838E-1,3.035975528E-1
8.706709208E0,-5.513122195E-2,1.020489789E-1,3.019373524E-1,3.234495486E-1
8.716708208E0,-2.594528357E-2,1.456983980E-1,1.787435353E-1,2.320569592E-1
8.726706208E0,1.378735078E-2,8.575904718E-2,-9.712809920E-3,8.740162407E-2
8.736705208E0,3.497311044E-2,2.832624808E-3,-4.922770858E-2,6.045253931E-2
8.746704208E0,3.611128924E-2,-8.330388355E-2,7.142373919E-2,1.155201833E-1
8.756702208E0,5.550083907E-2,-5.649460078E-2,1.982217801E-1,2.134569211E-1
8.766701208E0,2.869842678E-2,2.290350260E-2,3.362564152E-1,3.382551506E-1
8.776699208E0,-1.852246257E-2,7.300685456E-2,4.117246735E-1,4.185573906E-1
8.786698208E0,-5.226804145E-2,4.623042583E-2,5.246145272E-1,5.292349219E-1
8.796697208E0,-7.641103042E-2,-4.172904736E-2,5.879585838E-1,5.943696285E-1
8.806695208E0,-7.844164051E-2,-1.124441406E-1,6.640296900E-1,6.780355484E-1
8.816694208E0,-1.220393758E-1,-1.068829999E-1,6.809661502E-1,7.000232015E-1
8.826693208E0,-1.490789657E-1,-1.673089967E-2,7.035843498E-1,7.193993316E-1
8.836691208E0,-1.810018213E-1,6.927681976E-2,7.443026054E-1,7.691211254E-1
8.846690208E0,-1.458789491E-1,3.547320955E-2,7.745520061E-1,7.889675700E-1
8.856688208E0,-6.034646323E-2,-2.940299571E-2,8.821980768E-1,8.847483702E-1
8.866687208E0,-3.394023634E-2,-8.617744287E-2,9.263854855E-1,9.310040597E-1
8.876686208E0,-1.673849534E-2,-5.426190087E-2,9.904885107E-1,9.921149233E-1
8.886684208E0,-1.198163923E-2,6.093180149E-2,9.803412527E-1,9.823060703E-1
8.896683208E0,-6.253182353E-2,1.215386257E-1,9.678007293E-1,9.774047872E-1
8.906682208E0,-3.104924502E-2,3.467682335E-2,1.093587202E0,1.094577318E0
8.916680208E0,3.786072135E-3,8.057444897E-2,1.171171567E0,1.173946088E0
8.926679208E0,-6.569087315E-2,-2.173078959E-1,1.151875171E0,1.174033399E0
8.936677208E0,-1.427053910E-1,1.741114624E-1,1.175228950E0,1.196596304E0
8.946676208E0,-2.260723606E-2,1.240761163E-1,1.099768878E0,1.106976764E0
8.956675208E0,-1.450788307E-1,1.272505971E-1,1.173704581E0,1.189463335E0
8.966673208E0,1.247298441E-1,-7.754770174E-2,1.203499653E0,1.212428388E0
8.976672208E0,4.211340129E-2,-1.222847304E-1,1.352767959E0,1.358936439E0
8.986671208E0,6.995385882E-2,-1.111646510E-1,1.316136323E0,1.322673785E0
8.996669208E0,-6.187187389E-2,5.207256629E-2,1.381744421E0,1.384108856E0
9.006668208E0,-1.324069094E-1,1.500402845E-1,1.434611437E0,1.448500484E0
9.016666208E0,1.073420886E-2,-1.698210314E-1,1.248419133E0,1.259962197E0
9.026665208E0,-1.791858041E-1,1.664570551E-1,1.696950275E0,1.714484103E0
9.036664208E0,1.679276116E-1,-3.909325228E-1,1.464685421E0,1.525231557E0
9.046662208E0,-4.881823537E-1,3.365414670E-1,1.209610578E0,1.347122831E0
9.056661208E0,-1.792329838E-1,-4.532062192E-2,1.251059736E0,1.264645754E0
9.066660208E0,-1.040416643E-1,-2.638285629E-2,1.307300595E0,1.311699496E0
9.076658208E0,-4.067045465E-2,1.807580153E-2,1.318697988E0,1.319448826E0
9.086657208E0,-9.672281407E-3,-1.421298355E-2,1.461473545E0,1.461574660E0
9.096655208E0,-3.777395598E-1,1.916119961E-1,1.207997916E0,1.280102065E0
9.106654208E0,-1.967723284E-1,1.783446638E-1,1.038936785E0,1.072341276E0
9.116653208E0,-6.760152396E-2,1.525779305E-1,1.474006467E0,1.483423425E0
9.126651208E0,3.828377106E-1,-8.297635359E-1,1.179766390E0,1.492287162E0
9.136650208E0,3.909210477E-1,6.302652082E-3,1.736804897E0,1.780266901E0
9.146649208E0,-2.546111949E-1,-1.512739465E-1,1.358428064E0,1.390337179E0
9.156647208E0,-8.013397821E-1,8.984504128E-1,1.028440449E0,1.583366144E0
9.166646208E0,-8.286951765E-2,-3.379989586E-1,1.272656427E0,1.319380549E0
9.176645208E0,-1.872482556E-1,-2.528446232E-1,1.125904178E0,1.169039149E0
9.186643208E0,2.133756800E-1,2.211035794E-1,1.131636204E0,1.172610963E0
9.196642208E0,4.122956541E-1,-2.141156497E-2,1.420118528E0,1.478912707E0
9.206640208E0,-2.219967051E-1,-4.111187192E-1,1.441274339E0,1.515114800E0
9.216639208E0,3.315495528E-2,5.689811531E-1,1.115432984E0,1.252609095E0
9.226638208E0,-2.286464145E-1,5.731545667E-1,1.607725857E0,1.722082394E0
9.236636208E0,-6.172576658E-2,-8.618159987E-1,1.510742185E0,1.740367442E0
9.246635208E0,-1.157924481E-1,1.109751190E-1,1.793919915E0,1.801075243E0
9.256633208E0,4.661488026E-2,-2.730179648E-2,1.630184428E0,1.631079276E0
9.266632208E0,5.653435271E-2,2.542601062E-1,1.638918999E0,1.659487818E0
9.276631208E0,-9.453343380E-2,-4.601658585E-1,1.790277100E0,1.850886620E0
9.286629208E0,-2.288312962E-1,-1.119355790E-2,1.491511277E0,1.509004621E0
9.296628208E0,-2.634991089E-1,4.046405525E-1,1.261422756E0,1.350686169E0
9.306627208E0,-1.152836673E-1,-5.360016051E-2,1.361106673E0,1.367031338E0
9.316625208E0,2.319466561E-1,-2.364496700E-1,1.332773990E0,1.373315043E0
9.326624208E0,2.107860578E-1,-4.706367633E-3,1.427158576E0,1.442648437E0
9.336623208E0,-3.811945699E-1,1.185968458E-1,1.027804856E0,1.102613865E0
9.346621208E0,-4.267562570E-1,1.822407732E-1,9.021897072E-1,1.014533819E0
9.356620208E0,-2.887063094E-1,1.344766776E-1,1.062159587E0,1.108881553E0
9.366618208E0,-1.143355778E-1,-2.231709904E-1,1.116187275E0,1.144006970E0
9.376617208E0,6.454503816E-2,9.796452513E-2,1.025466555E0,1.032155398E0
9.386616208E0,-2.903548222E-2,1.105308768E-2,9.265258187E-1,9.270465591E-1
9.396614208E0,6.116885584E-2,-1.725702643E-1,8.639687973E-1,8.831558230E-1
9.406613208E0,-1.642011080E-1,1.985173385E-1,6.919542378E-1,7.383575047E-1
9.416612208E0,-1.687431885E-1,3.579363469E-2,6.411606449E-1,6.639596528E-1
9.426610208E0,-1.960816991E-1,1.173738002E-1,6.532298827E-1,6.920505194E-1
9.436609208E0,-1.893401518E-3,8.775121182E-2,8.242872530E-1,8.289471248E-1
9.446607208E0,4.754784007E-2,-5.125204205E-2,9.151260871E-1,9.177926368E-1
9.456606208E0,9.514571037E-2,-7.617877262E-2,9.423787898E-1,9.502282331E-1
9.466605208E0,7.975974910E-2,-2.112979998E-2,8.317740279E-1,8.358565185E-1
9.476603208E0,-6.109982215E-2,-3.653490517E-3,7.208640414E-1,7.234580171E-1
9.486602208E0,-1.436513244E-1,-3.759597267E-2,7.421274412E-1,7.568370360E-1
9.496601208E0,-8.597004030E-2,5.286254339E-2,8.473597813E-1,8.533486364E-1
9.506599208E0,-6.794618078E-2,-6.483036858E-2,8.876283860E-1,8.925826639E-1
9.516598208E0,-1.038366828E-1,4.881797522E-3,8.095013988E-1,8.161485179E-1
9.526596208E0,7.783075266E-2,-3.819139053E-2,7.084930873E-1,7.137777407E-1
9.536595208E0,4.762034554E-2,-6.364751796E-2,5.545072478E-1,5.601758579E-1
9.546594208E0,-2.601466443E-2,2.030484236E-2,3.461645222E-1,3.477339871E-1
9.556592208E0,-8.697769828E-2,3.506184423E-2,1.976961154E-1,2.188108931E-1
9.566591208E0,-7.359082695E-2,3.572007397E-2,2.511519456E-1,2.641379058E-1
9.576590208E0,-6.680407338E-2,-2.882222787E-2,2.309404600E-1,2.421301326E-1
9.586588208E0,-1.306644757E-1,1.521267584E-2,2.480681241E-2,1.338656366E-1
9.596587208E0,-9.390240960E-2,6.212019326E-2,-1.427159160E-1,1.817812246E-1
9.606585208E0,-4.391014103E-2,-4.471034619E-2,-1.611516023E-1,1.729073580E-1
9.616584208E0,1.368321553E-3,-1.534025021E-2,-1.481456405E-1,1.489440377E-1
9.626583208E0,4.357209887E-2,-5.427318417E-2,-1.758479941E-1,1.891206582E-1
9.636581208E0,-4.908496343E-2,4.293074154E-2,-1.558136791E-1,1.689091022E-1
9.646580208E0,-1.291809274E-1,1.054606830E-1,-2.283062893E-1,2.827250067E-1
9.656579208E0,-9.012993224E-2,1.430340069E-2,-2.570897931E-1,2.728060734E-1
9.666577208E0,-6.147397086E-3,3.658796294E-2,-2.867609042E-1,2.891509739E-1
9.676576208E0,5.968581922E-2,3.830716997E-2,-4.119152927E-1,4.179761293E-1
9.686575208E0,1.077901680E-1,-4.202171421E-2,-4.077175766E-1,4.238138354E-1
9.696573208E0,1.028558855E-1,-1.628288418E-2,-4.228080708E-1,4.354436016E-1
9.706572208E0,5.890134215E-2,-3.350942218E-2,-5.265265667E-1,5.308695461E-1
9.716570208E0,-7.353034481E-2,4.249065177E-2,-6.203749627E-1,6.261607313E-1
9.726569208E0,-1.419286981E-1,4.748153812E-2,-6.711287946E-1,6.876133439E-1
9.736568208E0,-9.542699799E-2,-1.210734523E-2,-6.588794625E-1,6.658641347E-1
9.746566208E0,-1.659969706E-2,2.812114215E-2,-6.843282992E-1,6.851069768E-1
9.756565208E0,1.195671913E-1,-4.220547210E-2,-5.868493670E-1,6.003913679E-1
9.766564208E0,1.713269635E-1,-1.838390914E-1,-5.990677088E-1,6.496397923E-1
9.776562208E0,-1.310759369E-2,2.970992200E-2,-8.843416661E-1,8.849376650E-1
9.786561208E0,-1.365343493E-1,4.849352327E-3,-1.141789894E0,1.149934479E0
9.796559208E0,-6.778483417E-2,3.189169632E-2,-1.265557323E0,1.267772535E0
9.806558208E0,8.843913674E-5,-4.653750059E-2,-1.304151285E0,1.304981349E0
9.816557208E0,1.593183540E-2,-8.766639979E-2,-1.374785650E0,1.377670063E0
9.826555208E0,-7.103040431E-2,9.119725923E-2,-1.526270635E0,1.530641797E0
9.836554208E0,2.461750880E-3,-3.936382579E-2,-1.596619656E0,1.597106727E0
9.846553208E0,7.065691341E-2,-4.217141207E-2,-1.710510553E0,1.712488593E0
9.856551208E0,7.069828246E-2,-6.481945986E-2,-1.854804633E0,1.857282971E0
9.866550208E0,-4.614783391E-2,7.472241393E-2,-2.087423828E0,2.089270519E0
9.876548208E0,9.740913101E-3,3.519385882E-2,-2.228742844E0,2.229041983E0
9.886547208E0,8.452139262E-2,1.856927684E-2,-2.340117685E0,2.341717204E0
9.896546208E0,8.923782986E-2,2.120156313E-2,-2.509268278E0,2.510944083E0
9.906544208E0,1.057468951E-1,-2.185203389E-2,-2.691138904E0,2.693304386E0
9.916543208E0,7.194479920E-2,1.057437887E-1,-2.838426758E0,2.841306788E0
9.926542208E0,1.755492379E-1,-7.628888757E-2,-2.984807709E0,2.990938747E0
9.936540208E0,1.244138021E-1,2.990649580E-2,-3.149892733E0,3.152490670E0
9.946539208E0,1.398377703E-1,2.823186922E-2,-3.305255007E0,3.308332254E0
9.956537208E0,8.997604083E-2,-3.411479629E-2,-3.425305946E0,3.426657311E0
9.966536375E0,3.625916898E-2,7.656596337E-2,-3.528903989E0,3.529920741E0
9.976535375E0,1.226657039E-1,-7.565585795E-2,-3.557208606E0,3.560126929E0
9.986533375E0,1.053255301E-1,-4.676693528E-2,-3.581766327E0,3.583619767E0
9.996532375E0,1.404313358E-1,-9.078072734E-2,-3.691345487E0,3.695131068E0
1.000653137E1,9.171255425E-2,-8.717349778E-2,-3.764415218E0,3.766541164E0
1.001652937E1,5.530336764E-2,-3.543642463E-2,-3.730610710E0,3.731188882E0
1.002652837E1,1.053195367E-1,-1.587678021E-1,-3.589327946E0,3.594380966E0
1.003652637E1,6.184139527E-2,-9.177662694E-2,-3.433083912E0,3.434867167E0
1.004652537E1,3.491957188E-2,-6.797199075E-2,-3.299903051E0,3.300787741E0
1.005652437E1,-2.536470987E-2,-3.781530265E-2,-3.187238315E0,3.187563559E0
1.006652238E1,1.852471009E-2,-4.414968958E-2,-3.064240379E0,3.064614407E0
1.007652138E1,7.163155289E-2,-7.006869722E-2,-2.944705750E0,2.946410130E0
1.008652037E1,-2.569695963E-2,-3.242204106E-2,-2.672538911E0,2.672859097E0
1.009651838E1,-2.997243640E-1,2.496480052E-1,-2.206084884E0,2.240305634E0
1.010651738E1,1.846808894E-1,-1.573122839E-1,-1.820576786E0,1.836669274E0
1.011651638E1,3.067058299E-1,-1.385341793E-1,-1.507349045E0,1.544461501E0
1.012651438E1,1.052118566E-1,-2.939469998E-2,-1.507129190E0,1.511083048E0
1.013651338E1,7.645581644E-2,3.952229904E-2,-1.463362781E0,1.465891583E0
1.014651138E1,-3.455819568E-2,2.055900895E-2,-1.267940648E0,1.268578113E0
1.015651038E1,1.598554207E-1,-3.278743951E-2,-9.515595031E-1,9.654502885E-1
1.016650938E1,-1.499153003E-3,2.565839084E-2,-8.531368303E-1,8.535239023E-1
1.017650737E1,-6.852956844E-2,1.543459366E-1,-8.162467468E-1,8.335332756E-1
1.018650638E1,-9.980541134E-2,5.187698149E-2,-5.970235223E-1,6.075273059E-1
1.019650538E1,6.222193938E-2,-9.639953613E-2,-3.479765743E-1,3.664043348E-1
1.020650337E1,1.647324554E-1,4.758010025E-2,-2.771907663E-1,3.259376762E-1
1.021650237E1,-3.598363722E-2,-2.995519442E-2,-2.379805076E-1,2.425424866E-1
1.022650037E1,-1.532502232E-1,1.973798450E-2,-1.622555566E-1,2.240582170E-1
1.023649937E1,-1.488568446E-1,1.521645780E-1,-8.773747087E-2,2.302396204E-1
1.024649837E1,-1.803138964E-1,1.013251666E-1,-5.262494087E-5,2.068330085E-1
1.025649637E1,-1.918502153E-1,5.159713284E-2,4.737355649E-2,2.042376633E-1
1.026649537E1,-4.477406714E-2,-8.924422525E-3,7.641550720E-2,8.901512313E-2
1.027649437E1,4.614045180E-2,-3.248549934E-2,9.170889974E-2,1.076790195E-1
1.028649237E1,3.746110070E-3,-1.740802666E-2,6.150744617E-2,6.403310602E-2
1.029649137E1,-1.175880549E-1,-3.904342121E-2,8.130027115E-2,1.481926904E-1
1.030649037E1,-1.020304596E-1,7.512349181E-2,2.126053458E-1,2.474970440E-1
1.031648837E1,-1.761075008E-1,9.090623349E-3,3.268388897E-1,3.713760239E-1
1.032648737E1,-1.381164231E-1,3.826667457E-3,3.973697591E-1,4.207059723E-1
1.033648538E1,-2.660501394E-2,6.339375337E-5,3.957682067E-1,3.966614479E-1
1.034648438E1,5.773666816E-2,-9.961959779E-2,3.648434526E-1,3.825811443E-1
1.035648338E1,1.042416939E-1,-5.232561368E-2,1.812455589E-1,2.155324876E-1
1.036648138E1,2.236570951E-2,1.773212458E-2,2.533890903E-2,3.816691649E-2
1.037648038E1,-3.840427486E-2,-4.642395040E-2,1.582373500E-2,6.229335509E-2
1.038647938E1,-4.137480659E-2,5.702833737E-2,5.956383169E-2,9.226026192E-2
1.039647738E1,-1.388263665E-1,2.625077774E-2,4.220871091E-2,1.474565652E-1
1.040647638E1,-9.934888998E-2,1.405084779E-2,-7.642895579E-3,1.006282372E-1
1.041647438E1,2.434935914E-2,8.837438340E-4,-1.013725930E-1,1.042596514E-1
1.042647338E1,5.738808274E-2,-3.575579452E-2,-2.426927787E-1,2.519358127E-1
1.043647238E1,1.320050412E-1,-1.031014640E-2,-4.140881181E-1,4.347419919E-1
1.044647037E1,1.381921994E-1,-5.187465174E-2,-5.987981522E-1,6.167230258E-1
1.045646937E1,7.951252151E-2,1.168974211E-2,-8.017760575E-1,8.057938555E-1
1.046646838E1,-2.795400314E-2,3.125257052E-2,-1.013611325E0,1.014478224E0
1.047646637E1,-1.021706283E-1,4.994722674E-2,-1.249716631E0,1.254880560E0
1.048646537E1,-4.756373718E-2,1.006344552E-1,-1.432246823E0,1.436565545E0
1.049646437E1,-1.215104403E-2,3.244851570E-2,-1.543521675E0,1.543910527E0
1.050646237E1,8.444325920E-2,2.262988945E-3,-1.564505578E0,1.566784443E0
1.051646137E1,2.345179692E-1,-1.623412960E-2,-1.526315074E0,1.544312122E0
1.052645937E1,2.951878566E-1,-1.948955914E-1,-1.427315866E0,1.470493367E0
1.053645837E1,-3.769572023E-2,-3.365896700E-2,-1.760787837E0,1.761512901E0
1.054645737E1,-2.385921081E-1,2.838129025E-1,-2.291455402E0,2.321259101E0
1.055645537E1,-3.261719417E-1,1.622973391E-2,-2.504625589E0,2.525826771E0
1.056645437E1,1.321947468E-1,-1.185723332E-1,-2.374366581E0,2.380998007E0
1.057645337E1,1.361966543E-1,-5.606073738E-2,-2.581069747E0,2.585268531E0
1.058645138E1,-2.612635722E-1,5.028708701E-2,-2.686892071E0,2.700032675E0
1.059645037E1,-6.538933955E-2,-3.341249544E-2,-2.294076709E0,2.295251643E0
1.060644838E1,1.726779261E-1,-1.146837795E-1,-2.110513313E0,2.120668876E0
1.061644738E1,-6.755180435E-2,9.663517892E-2,-2.399694380E0,2.402589171E0
1.062644638E1,-2.186677208E-1,-2.408097195E-2,-2.598740033E0,2.608034744E0
1.063644438E1,3.053348771E-1,-7.651502521E-3,-2.627878463E0,2.645568587E0
1.064644338E1,6.752437726E-2,-3.441899997E-2,-2.774678074E0,2.775712994E0
1.065644238E1,-6.604963638E-2,-4.501066467E-2,-2.757276176E0,2.758434415E0
1.066644038E1,1.948573470E-1,-9.768590302E-4,-2.622511888E0,2.629741231E0
1.067643938E1,1.142505739E-1,-7.701042484E-2,-2.465291954E0,2.469139165E0
1.068643737E1,1.406370116E-1,-3.491666426E-2,-2.367213097E0,2.371644111E0
1.069643638E1,-3.863052556E-2,-1.205796709E-2,-2.398034356E0,2.398375801E0
1.070643538E1,6.050713375E-2,3.079302505E-3,-2.345047472E0,2.345829969E0
1.071643337E1,8.851239139E-2,-1.219987970E-2,-2.264223749E0,2.265985981E0
1.072643237E1,1.115870210E-1,-7.324093048E-2,-2.070979704E0,2.075276567E0
1.073643138E1,1.536174101E-1,-7.766090018E-2,-1.898240089E0,1.906028584E0
1.074642937E1,1.757505466E-1,-1.791360982E-2,-1.779845667E0,1.788591555E0
1.075642837E1,-2.932714865E-2,-4.279833865E-2,-1.692150881E0,1.692946066E0
1.076642737E1,6.027275177E-2,-1.082694547E-2,-1.528401945E0,1.529628234E0
1.077642537E1,9.407609018E-2,1.592828367E-3,-1.379779757E0,1.382984101E0
1.078642437E1,-8.160597090E-2,-6.147933842E-2,-1.302873668E0,1.306873765E0
1.079642237E1,-6.960214879E-2,6.411232136E-2,-1.168791166E0,1.172615725E0
1.080642137E1,-3.118009474E-2,-1.905891719E-2,-9.415958476E-1,9.423047176E-1
1.081642037E1,-2.601331227E-2,-3.588162158E-2,-6.437392670E-1,6.452630681E-1
1.082641837E1,2.039640382E-2,-3.787210058E-2,-5.010987800E-1,5.029416434E-1
1.083641737E1,-7.133296117E-2,4.618886378E-3,-4.024749631E-1,4.087735576E-1
1.084641637E1,-1.629618820E-1,2.332652353E-2,-2.794571471E-1,3.243408681E-1
1.085641438E1,-6.536739422E-2,5.740988189E-2,-9.655916512E-2,1.299710088E-1
1.086641337E1,-1.327299498E-1,5.673161630E-3,1.361980247E-1,1.902612054E-1
1.087641237E1,1.299691686E-2,1.278779211E-2,3.378269774E-1,3.383186577E-1
1.088641038E1,-1.435302505E-1,7.774719229E-2,3.578776646E-1,3.933471514E-1
1.089640938E1,-1.292763284E-1,5.966128833E-2,4.295797312E-1,4.525600335E-1
1.090640738E1,1.326095520E-2,1.535374448E-2,5.040019226E-1,5.044100796E-1
1.091640638E1,5.802086111E-2,4.086872551E-3,5.658537698E-1,5.688353115E-1
1.092640538E1,-1.377319321E-1,5.152520752E-2,4.783092570E-1,5.004045139E-1
1.093640338E1,-5.784475029E-2,1.268765763E-1,5.151531476E-1,5.336913398E-1
1.094640238E1,-1.002721471E-1,5.067087449E-2,6.530363399E-1,6.626299889E-1
1.095640138E1,-1.163758541E-2,6.343749329E-4,7.491593027E-1,7.492499561E-1
1.096639996E1,4.408179335E-3,6.434742511E-2,7.159553039E-1,7.188546587E-1
1.097639896E1,-3.143300509E-2,1.140521568E-2,6.597103518E-1,6.605572353E-1
1.098639696E1,5.079816107E-2,-2.073163429E-2,6.227787530E-1,6.251908741E-1
1.099639596E1,-4.283286463E-3,5.765187440E-2,6.072427011E-1,6.099883467E-1
1.100639496E1,-8.617754336E-2,2.635450415E-2,6.990328771E-1,7.048177723E-1
1.101639296E1,-2.237031419E-2,5.620334549E-2,7.631323940E-1,7.655261574E-1
1.102639196E1,-4.028035400E-2,1.848231207E-3,7.501293558E-1,7.512123357E-1
1.103639096E1,-9.922445392E-2,-4.020573805E-2,7.091245866E-1,7.171608417E-1
1.104638896E1,-5.474344192E-2,4.378106717E-3,7.769481951E-1,7.788867120E-1
1.105638796E1,1.137868166E-3,-9.024592638E-2,9.459754121E-1,9.502710678E-1
1.106638696E1,-1.479559349E-2,-9.539397036E-2,1.071435025E0,1.075775038E0
1.107638496E1,-1.506984069E-1,-2.178071842E-2,1.070387789E0,1.081163461E0
1.108638396E1,-2.159382405E-1,1.758055036E-2,1.061094224E0,1.082986312E0
1.109638196E1,-1.189110240E-1,-5.864774658E-2,1.091917237E0,1.099937563E0
1.110638096E1,-8.972420856E-2,-7.378076096E-2,1.030540184E0,1.037066586E0
1.111637996E1,-6.248864550E-2,-5.647141292E-2,9.423688495E-1,9.461252030E-1
1.112637796E1,-6.595140316E-2,-4.864664152E-2,8.983510101E-1,9.020812716E-1
1.113637696E1,-7.895555595E-2,-3.239095260E-2,9.371162957E-1,9.409942111E-1
1.114637596E1,-5.921250539E-2,-9.553054738E-3,1.007306272E0,1.009090337E0
1.115637396E1,-1.002196683E-1,3.374240403E-2,1.002049626E0,1.007614005E0
1.116637296E1,-9.199343987E-2,6.111956564E-2,1.038246814E0,1.044104804E0
1.117637196E1,-9.421198312E-2,6.703087682E-2,1.114852356E0,1.120832196E0
1.118636996E1,1.747056674E-2,1.170413060E-2,1.182049143E0,1.182236179E0
1.119636896E1,9.536911055E-2,-7.227005514E-3,1.156145977E0,1.160095262E0
1.120636696E1,-6.976344058E-2,6.875983911E-2,9.781473774E-1,9.830397474E-1
1.121636596E1,-1.146538490E-1,1.501031056E-1,9.451854533E-1,9.638734297E-1
1.122636496E1,-1.056909263E-1,1.261305629E-1,1.030481127E0,1.043537658E0
1.123636296E1,-4.938578440E-2,5.407195773E-2,1.205454378E0,1.207676690E0
1.124636196E1,2.669133347E-2,4.604173893E-2,1.326985247E0,1.328052000E0
1.125636096E1,-2.105802541E-1,6.543203793E-2,1.313940108E0,1.332315279E0
1.126635896E1,-6.351742655E-2,3.428919635E-2,1.410637268E0,1.412482819E0
1.127635796E1,-4.103283584E-2,-1.661300633E-2,1.390588335E0,1.391292781E0
1.128635596E1,-1.302947489E-1,1.034030067E-2,1.203340024E0,1.210417638E0
1.129635496E1,-1.289300271E-1,5.278784065E-2,9.948201281E-1,1.004528046E0
1.130635396E1,-2.597215335E-1,5.014008435E-2,8.346455956E-1,8.755584351E-1
1.131635196E1,-7.422799073E-2,-2.910395631E-3,8.928844482E-1,8.959692533E-1
1.132635096E1,-3.214844847E-2,-1.340486888E-1,9.016067398E-1,9.120840350E-1
1.133634996E1,-3.517678724E-1,4.675936862E-1,1.613836198E0,1.716639672E0
1.134634796E1,4.163593594E-1,5.765680798E-2,3.915044171E-1,5.744172109E-1
1.135634696E1,-3.168561577E-1,-1.108204601E-1,9.074650651E-1,9.675597364E-1
1.136634596E1,-2.126089638E-1,-8.577469213E-1,6.819116449E-1,1.116214963E0
1.137634396E1,8.922971684E-2,3.882726610E-1,1.390195987E0,1.446154377E0
1.138634296E1,4.509912848E-1,6.604538984E-1,1.021609731E0,1.297412399E0
1.139634096E1,-4.668006210E-1,-5.557252685E-2,7.821212268E-1,9.125265689E-1
1.140633996E1,-2.686375324E-1,-6.914175365E-1,5.186322409E-1,9.050987432E-1
1.141633896E1,-1.417234791E-1,-4.917114408E-1,7.059741068E-1,8.719318350E-1
1.142633696E1,-2.695036512E-3,1.928769681E-1,7.295956886E-1,7.546645989E-1
1.143633596E1,6.784730801E-2,2.786749541E-1,1.358008234E0,1.387965904E0
1.144633496E1,6.942280373E-2,2.748487372E-1,9.846553284E-1,1.024649925E0
1.145633296E1,-1.687480856E-1,-2.703241617E-1,6.870267892E-1,7.573353800E-1
1.146633196E1,-6.145176971E-2,-9.083203666E-1,9.135648805E-1,1.289737570E0
1.147632996E1,-1.891071768E-2,1.024524714E0,1.415916134E0,1.747806341E0
1.148632896E1,2.682903539E-1,3.995172952E-1,7.355879152E-1,8.790240976E-1
1.149632796E1,3.191348907E-1,-1.391827634E-1,8.464838684E-1,9.152889486E-1
1.150632596E1,-5.041767544E-1,-5.657760384E-1,6.127928782E-1,9.745829040E-1
1.151632496E1,-4.590575919E-3,-2.150243024E-1,8.979978383E-1,9.233940879E-1
1.152632396E1,-2.973921290E-1,5.592800010E-1,6.232067692E-1,8.886072671E-1
1.153632196E1,-4.163182461E-1,3.915416931E-1,1.339121727E0,1.455978290E0
1.154632096E1,1.604659431E-1,7.277064532E-1,1.384153474E0,1.572000903E0
1.155631996E1,-1.982872871E-1,-3.765530501E-1,9.106898046E-1,1.005219363E0
1.156631796E1,2.162599287E-1,-8.720491377E-1,1.214153865E0,1.510432939E0
1.157631696E1,1.934259121E-1,-3.577163180E-1,9.529534793E-1,1.036095981E0
1.158631496E1,-7.648693825E-1,3.962112064E-1,9.343885696E-1,1.270862106E0
1.159631396E1,-1.675702736E-1,4.800665281E-1,1.232577272E0,1.333338066E0
1.160631296E1,-2.954384463E-1,5.544939454E-1,1.049618479E0,1.223293245E0
1.161631096E1,-1.917416947E-1,-2.671360953E-1,8.674081296E-1,9.276440234E-1
1.162630996E1,9.059045529E-2,-9.099339788E-1,1.372071372E0,1.648868196E0
1.163630896E1,3.510155185E-1,1.874329546E-1,1.211223825E0,1.274914178E0
1.164630696E1,3.695221022E-2,3.423126323E-2,1.071509285E0,1.072692590E0
1.165630596E1,-1.002209839E-1,3.148809683E-1,1.147610797E0,1.194238172E0
1.166630396E1,-9.099948630E-3,2.286077681E-1,7.255096543E-1,7.607289788E-1
1.167630296E1,-3.247648823E-1,-2.174539302E-2,7.722090268E-1,8.380046969E-1
1.168630196E1,1.089624251E-1,-3.883620868E-1,7.468876594E-1,8.488457436E-1
1.169629996E1,-1.838039167E-1,4.668183088E-2,8.826079667E-1,9.027512924E-1
1.170629896E1,1.382314671E-2,1.448968087E-1,7.099741870E-1,7.247409957E-1
1.171629796E1,-5.353847696E-2,1.701380418E-1,9.096238571E-1,9.269459980E-1
1.172629596E1,-2.209686549E-2,-1.371803615E-3,6.691857648E-1,6.695518958E-1
1.173629496E1,6.232463110E-2,-1.880032043E-1,5.570426005E-1,5.912072591E-1
1.174629396E1,-1.333348625E-1,-2.596712474E-1,6.140435976E-1,6.798947581E-1
1.175629196E1,1.225282030E-1,-2.106474057E-1,3.875400048E-1,4.577911592E-1
1.176629096E1,-1.793250409E-1,2.064176578E-1,4.536743528E-1,5.297038211E-1
1.177628996E1,-6.385040721E-2,1.387303808E-1,3.271680880E-1,3.610567141E-1
1.178628796E1,-1.032550128E-1,3.582471172E-2,2.826877338E-1,3.030797955E-1
1.179628696E1,-5.112595232E-2,-9.201518420E-2,7.893273354E-2,1.315714009E-1
1.180628496E1,-4.122168263E-2,-1.719202914E-1,9.687491477E-2,2.015950467E-1
1.181628396E1,-4.379791103E-2,-2.340077860E-2,6.093617320E-2,7.860706491E-2
1.182628296E1,-1.556569006E-2,2.236866235E-1,3.487571776E-2,2.269235817E-1
1.183628096E1,-1.151356779E-1,2.599320333E-1,4.593514144E-2,2.879772968E-1
1.184627996E1,-1.020475262E-1,1.181669476E-1,-3.626326203E-2,1.602877078E-1
1.185627896E1,-8.866761670E-2,-2.922928773E-2,-7.266451836E-2,1.183065076E-1
1.186627696E1,-6.839502767E-2,-1.367572652E-1,-9.544468582E-2,1.802501524E-1
1.187627596E1,-2.734231129E-3,-6.509628441E-2,-8.333744109E-2,1.057834172E-1
1.188627396E1,-2.919043344E-2,1.484068466E-1,-4.248762310E-2,1.571046518E-1
1.189627296E1,-2.677878588E-2,1.415363225E-1,-7.437892199E-2,1.621168036E-1
1.190627196E1,-7.284490496E-2,4.880387681E-2,-4.056096554E-2,9.660947415E-2
1.191626996E1,2.612643762E-2,-9.992673193E-2,-8.966237426E-2,1.367745731E-1
1.192626896E1,-3.073260002E-2,-1.667474425E-1,-1.722063482E-2,1.704281448E-1
1.193626796E1,4.794095568E-3,-1.110257065E-1,-4.102406502E-2,1.184595491E-1
1.194626596E1,2.330669096E-2,1.647926269E-2,-1.503319144E-3,2.858370009E-2
1.195626496E1,-6.907127643E-2,1.221987307E-1,1.036711335E-3,1.403725250E-1
1.196626321E1,-4.360082332E-2,3.980895879E-2,-6.214011490E-2,8.571568628E-2
1.197626121E1,-4.774308225E-2,-8.265989497E-2,-8.071671903E-2,1.250089952E-1
1.198626021E1,-5.990426755E-2,-1.666548006E-1,-5.873001873E-2,1.865785597E-1
1.199625821E1,-3.418578286E-2,-9.677503701E-2,-4.707476377E-2,1.129163802E-1
1.200625721E1,-4.867651714E-2,3.352705747E-2,3.628255785E-2,6.935337704E-2
1.201625621E1,-6.178922715E-2,1.073954993E-1,7.398131132E-2,1.443084761E-1
1.202625421E1,-8.335469037E-2,5.637046622E-2,9.072188973E-2,1.354846676E-1
1.203625321E1,-4.860287877E-2,-6.697234071E-2,9.564173698E-2,1.264708508E-1
1.204625221E1,-1.924141428E-2,-9.440401847E-2,1.016134983E-1,1.400273322E-1
1.205625021E1,-8.516104147E-3,-4.240898261E-2,1.366313034E-1,1.433148942E-1
1.206624921E1,-5.666207783E-3,3.000477699E-2,1.450103635E-1,1.481904115E-1
1.207624821E1,-3.741653396E-2,1.031608726E-1,1.732968539E-1,2.051193853E-1
1.208624621E1,-5.132309485E-2,1.118135732E-1,1.325774288E-1,1.808676584E-1
1.209624521E1,-5.474797351E-2,3.521640030E-2,1.011351961E-1,1.202741175E-1
1.210624321E1,-5.563037317E-2,8.913560637E-4,9.588848948E-2,1.108608829E-1
1.211624221E1,-1.716219921E-2,-4.061479418E-3,8.855023384E-2,9.028942690E-2
1.212624121E1,-4.280589435E-2,6.087598342E-2,1.214846760E-1,1.424666854E-1
1.213623921E1,-6.683055030E-2,1.000279893E-1,1.357074434E-1,1.813516784E-1
1.214623821E1,-6.602041857E-2,8.079874450E-2,8.317196488E-2,1.334342854E-1
1.215623721E1,-6.212222608E-2,2.818240315E-2,2.929221153E-2,7.423915730E-2
1.216623521E1,-2.041867806E-2,-4.132339678E-2,6.999117136E-3,4.662116660E-2
1.217623421E1,-4.152650530E-2,-3.166888542E-2,5.371778548E-2,7.491975322E-2
1.218623321E1,-3.356349293E-2,-4.360926524E-4,6.450882196E-2,7.271922955E-2
1.219623121E1,-5.713573884E-2,2.339288257E-2,1.035916114E-1,1.205941191E-1
1.220623021E1,-6.955427472E-2,-1.162172940E-2,1.696207094E-1,1.836955274E-1
1.221622821E1,8.861893862E-3,-5.355391726E-2,2.190495622E-1,2.256751336E-1
1.222622721E1,-1.931150777E-2,-4.837576926E-2,2.794015986E-1,2.842154160E-1
1.223622621E1,-6.203051616E-2,-4.045260475E-2,3.144515634E-1,3.230541500E-1
1.224622421E1,-6.421531001E-2,-2.743390016E-2,3.581834739E-1,3.649268775E-1
1.225622321E1,-8.278210178E-2,-2.261503615E-2,4.311017615E-1,4.395600584E-1
1.226622221E1,-3.502518721E-2,-4.627994901E-2,4.672018862E-1,4.707931604E-1
1.227622021E1,-4.837703006E-2,-3.540635486E-2,4.628802091E-1,4.667462212E-1
1.228621921E1,-7.634513961E-2,9.158003373E-3,4.646981084E-1,4.710167527E-1
1.229621721E1,-4.956215104E-2,2.909599862E-2,4.966022712E-1,4.999167928E-1
1.230621621E1,-5.378175767E-2,3.588365211E-2,5.524519515E-1,5.562223231E-1
1.231621521E1,-4.472677778E-2,3.715371075E-2,5.813605857E-1,5.842610833E-1
1.232621321E1,-3.241782239E-2,2.255150478E-2,6.496449548E-1,6.508441080E-1
1.233621221E1,-2.599198820E-2,2.887763709E-2,7.782562172E-1,7.792254109E-1
1.234621121E1,-3.578307772E-2,3.766252358E-2,9.049250346E-1,9.064150333E-1
1.235620921E1,-4.208244760E-2,5.782402008E-2,9.988131917E-1,1.001370232E0
1.236620821E1,-6.873559143E-2,3.823254716E-2,1.051238158E0,1.054176443E0
1.237620721E1,-9.957119381E-2,4.241446895E-2,1.053209839E0,1.058756051E0
1.238620521E1,-1.167603633E-1,1.205089219E-2,1.034367186E0,1.041006092E0
1.239620421E1,-1.251209863E-1,-5.121913090E-3,1.030488728E0,1.038069610E0
1.240620321E1,-1.290689715E-1,1.666719129E-2,1.066574820E0,1.074485198E0
1.241620121E1,-5.470908953E-2,2.561529275E-2,1.093385473E0,1.095052976E0
1.242620021E1,-6.492169021E-2,-3.043572363E-2,1.175005002E0,1.177190687E0
1.243619821E1,-8.212469202E-3,1.584585940E-1,1.240316062E0,1.250424130E0
1.244619721E1,-2.059238970E-1,-4.912426768E-1,1.360256488E0,1.460829125E0
1.245619621E1,-1.433349534E-1,2.214960921E-1,1.283938045E0,1.310764026E0
1.246619421E1,-1.494511227E-1,4.473680576E-1,1.254770964E0,1.340493935E0
1.247619321E1,-1.441467663E-1,-1.293416322E-2,1.500280346E0,1.507244738E0
1.248619221E1,1.213675307E-1,-1.920226717E-1,1.523675056E0,1.540515648E0
1.249619021E1,-4.284766540E-2,-8.722978637E-2,1.607105468E0,1.610041286E0
1.250618921E1,1.696903826E-1,-2.212830707E-1,1.539684733E0,1.564733236E0
1.251618821E1,-2.405041476E-1,1.648798601E-1,1.527727177E0,1.555306381E0
1.252618621E1,-2.138276880E-1,3.637898574E-1,1.519063357E0,1.576584544E0
1.253618521E1,-2.044273569E-1,9.285208521E-2,1.678481260E0,1.693431839E0
1.254618321E1,-1.600278771E-2,-2.551185414E-2,1.719205363E0,1.719469111E0
1.255618221E1,1.472370197E-1,-2.737538461E-1,1.699548778E0,1.727740130E0
1.256618121E1,2.416910045E-2,-2.092685135E-2,1.869617969E0,1.869891288E0
1.257617921E1,-4.101160314E-2,-5.920689572E-1,1.610624907E0,1.716490662E0
1.258617821E1,-2.675448339E-2,2.835063337E-3,2.355705777E0,2.355859407E0
1.259617721E1,-4.904327643E-1,1.115702468E0,1.232120605E0,1.733042838E0
1.260617521E1,-6.310990486E-1,-2.754665686E-1,1.499405603E0,1.649965152E0
1.261617421E1,1.461556868E-1,-2.231353955E-1,2.026414565E0,2.043895026E0
1.262617321E1,7.621912115E-1,-5.368892581E-1,2.352310299E0,2.530325920E0
1.263617121E1,-1.283248585E-1,1.631434746E-1,1.747954368E0,1.760235080E0
1.264617021E1,-6.813748705E-1,3.930354739E-1,1.194865070E0,1.430542252E0
1.265616821E1,-3.330723140E-1,3.439100916E-1,1.673902305E0,1.741022758E0
1.266616721E1,5.822511166E-3,-1.504898806E-1,1.871182099E0,1.877232951E0
1.267616621E1,-3.184872751E-1,3.538770727E-1,1.518464602E0,1.591350959E0
1.268616421E1,8.966142409E-2,-3.766874264E-1,2.165340900E0,2.199689479E0
1.269616321E1,4.123518239E-1,-5.931427618E-1,2.152659459E0,2.270637600E0
1.270616221E1,-7.939837655E-1,5.023145258E-1,1.565637599E0,1.825911059E0
1.271616021E1,-6.340698726E-1,1.265532618E-1,1.374865172E0,1.519313849E0
1.272615921E1,-6.136003786E-1,6.325829257E-1,1.330083686E0,1.595552943E0
1.273615821E1,7.007797328E-1,-2.919957702E-1,2.309911553E0,2.431469750E0
1.274615621E1,7.317329190E-1,-4.658008568E-1,2.155642124E0,2.323617109E0
1.275615521E1,1.607793539E-1,2.225934317E-1,1.947602284E0,1.966863618E0
1.276615321E1,-3.364617987E-1,1.517224828E-1,1.638612605E0,1.679665896E0
1.277615221E1,-3.819695087E-1,7.377997981E-2,1.678523945E0,1.723016780E0
1.278615121E1,-2.594095663E-1,3.368343760E-1,1.779780178E0,1.829854694E0
1.279614921E1,-6.763697270E-2,4.036998999E-2,1.583932952E0,1.585890316E0
1.280614821E1,5.821524449E-3,-5.267543706E-2,1.815780900E0,1.816554119E0
1.281614721E1,1.534140366E-1,-1.230228592E-1,1.813844302E0,1.824472977E0
1.282614521E1,9.754654057E-3,-1.219038391E-1,1.615993820E0,1.620614614E0
1.283614421E1,-6.822101818E-2,-1.754130892E-1,1.755386179E0,1.765447393E0
1.284614321E1,-2.360727439E-1,5.815697333E-2,1.500483245E0,1.520053467E0
1.285614121E1,-1.650480041E-1,2.039339981E-1,1.421621847E0,1.445627406E0
1.286614021E1,-1.775149805E-1,6.159796838E-2,1.472524198E0,1.484464009E0
1.287613821E1,-1.470284020E-1,2.210009060E-1,1.220619716E0,1.249148207E0
1.288613721E1,7.754729060E-2,-1.590935468E-1,1.210796978E0,1.223664032E0
1.289613621E1,4.397464313E-2,-2.307828227E-1,1.155368298E0,1.179012461E0
1.290613421E1,1.498089906E-1,-3.150420636E-2,9.834800380E-1,9.953231806E-1
1.291613321E1,-2.127652306E-1,-6.149364126E-2,6.534918380E-1,6.900015171E-1
1.292613221E1,-2.183802753E-1,5.597628166E-2,4.610283959E-1,5.131963275E-1
1.293613021E1,-2.464506746E-1,1.583481547E-1,2.823070800E-1,4.068284166E-1
1.294612921E1,-1.236174479E-1,-1.330475175E-1,2.179537940E-1,2.837019064E-1
1.295612821E1,-2.140431762E-2,-2.364642332E-2,1.678069031E-1,1.708111673E-1
1.296612625E1,-3.812070318E-2,3.181908292E-3,-1.754164696E-6,3.825326854E-2
1.297612525E1,-4.043897800E-3,-9.193060971E-2,-4.026509643E-2,1.004433577E-1
1.298612325E1,3.787563175E-2,-3.324320484E-2,-8.352981448E-2,9.755462088E-2
1.299612225E1,-7.037887830E-2,7.980914894E-2,-2.443206435E-1,2.664868920E-1
1.300612125E1,-6.142832603E-2,2.335662070E-2,-3.308991963E-1,3.373621927E-1
1.301611925E1,-1.717909035E-1,1.339117360E-1,-4.730455935E-1,5.207846014E-1
1.302611825E1,-1.159013890E-1,1.676425598E-1,-3.906454611E-1,4.406143848E-1
1.303611725E1,1.598854608E-1,-1.155972242E-1,-1.724396521E-1,2.620334185E-1
1.304611525E1,2.339138970E-1,-7.948776221E-2,-2.461069679E-1,3.487157227E-1
1.305611425E1,6.472405432E-2,1.322581800E-1,-4.239529556E-1,4.487956528E-1
1.306611325E1,1.267400438E-2,-8.106658353E-2,-5.019577360E-1,5.086196910E-1
1.307611125E1,-6.739701759E-3,1.276952870E-1,-7.322053009E-1,7.432873688E-1
1.308611025E1,-1.235795324E-1,9.900067915E-2,-8.422756273E-1,8.570304940E-1
1.309610825E1,-1.446073441E-1,-2.092836797E-2,-7.924678749E-1,8.058254236E-1
1.310610725E1,-2.418298759E-3,1.457569707E-1,-9.026756108E-1,9.143709318E-1
1.311610625E1,8.932535537E-2,-1.367273805E-1,-9.362064689E-1,9.503451732E-1
1.312610425E1,1.142161119E-1,-4.713189575E-3,-8.775045168E-1,8.849190423E-1
1.313610325E1,3.887269165E-2,-8.828590315E-2,-1.001266683E0,1.005902807E0
1.314610225E1,-3.824325716E-2,2.986858483E-2,-1.147195060E0,1.148220878E0
1.315610025E1,-1.873296233E-1,3.908619268E-2,-1.286537132E0,1.300691320E0
1.316609925E1,-3.247366330E-2,5.426800390E-2,-1.399218240E0,1.400646722E0
1.317609825E1,1.276555350E-1,-1.337123551E-1,-1.413973689E0,1.426007196E0
1.318609625E1,3.432995327E-2,-7.551885952E-2,-1.541304411E0,1.543535206E0
1.319609525E1,-1.446281748E-1,3.279582661E-2,-1.742006580E0,1.748307696E0
1.320609325E1,9.833518378E-3,-2.952743405E-2,-1.728922850E0,1.729202935E0
1.321609225E1,1.755130217E-1,-8.271989289E-2,-1.612988352E0,1.624616516E0
1.322609125E1,1.210122210E-1,-2.007931297E-1,-1.768139541E0,1.783614105E0
1.323608925E1,-8.583533507E-2,1.487664778E-1,-2.064647754E0,2.071779312E0
1.324608825E1,-1.512995190E-1,3.026253185E-2,-2.192029932E0,2.197453660E0
1.325608725E1,3.309034355E-2,-5.619757136E-2,-2.176293905E0,2.177270837E0
1.326608525E1,1.637758327E-1,-6.184800994E-2,-2.121188575E0,2.128400496E0
1.327608425E1,7.705892019E-2,-1.112934816E-1,-2.239743796E0,2.243830784E0
1.328608325E1,3.365474604E-3,1.193022028E-1,-2.397836135E0,2.400804547E0
1.329608125E1,7.813882783E-2,-1.318997205E-2,-2.420161389E0,2.421458404E0
1.330608025E1,1.116020045E-1,-4.403104592E-2,-2.400553921E0,2.403550055E0
1.331607825E1,1.352970054E-1,-1.936167049E-2,-2.445328975E0,2.449145555E0
1.332607725E1,1.209635429E-2,9.061594550E-2,-2.689664821E0,2.691218018E0
1.333607625E1,-2.664130323E-2,1.368390806E-1,-2.808877854E0,2.812335238E0
1.334607425E1,1.301797780E-1,4.037886703E-3,-2.834664075E0,2.837654577E0
1.335607325E1,2.204667446E-1,1.388304527E-2,-2.851606382E0,2.860149871E0
1.336607225E1,1.103168230E-1,-1.370713886E-2,-2.922445984E0,2.924559491E0
1.337607025E1,-2.951663498E-2,9.154331390E-2,-3.144023883E0,3.145494808E0
1.338606925E1,7.311661776E-2,7.558859213E-2,-3.293751780E0,3.295430239E0
1.339606825E1,4.346222604E-2,-8.583082175E-3,-3.445868264E0,3.446153033E0
1.340606625E1,8.954733029E-2,-1.221375770E-2,-3.511306209E0,3.512469102E0
1.341606525E1,5.524147851E-2,-9.635863075E-3,-3.608328474E0,3.608764171E0
1.342606325E1,8.231869167E-2,-5.335911818E-2,-3.715206805E0,3.716501738E0
1.343606225E1,1.801896431E-1,-7.029593007E-2,-3.771322533E0,3.776279052E0
1.344606125E1,1.256624750E-1,-1.271892561E-1,-3.924727160E0,3.928797710E0
1.345605925E1,3.068962298E-2,1.118528957E-3,-4.004494291E0,4.004612045E0
1.346605825E1,4.073660128E-2,-4.642001723E-2,-4.018854468E0,4.019328989E0
1.347605725E1,6.715868874E-2,-4.486292198E-2,-3.949733362E0,3.950559024E0
1.348605525E1,-1.412106965E-1,4.014242824E-2,-3.710740117E0,3.713642967E0
1.349605425E1,-7.574431993E-2,1.317453518E-1,-3.151996561E0,3.155657833E0
1.350605325E1,3.464098129E-1,-3.493787001E-1,-2.920141597E0,2.961299070E0
1.351605125E1,2.307467709E-1,-1.645263593E-1,-3.013877141E0,3.027171686E0
1.352605025E1,5.633890953E-2,3.867988885E-2,-3.216764415E0,3.217490250E0
1.353604925E1,4.349385582E-2,-5.390795246E-2,-3.202288463E0,3.203037493E0
1.354604725E1,2.729109517E-1,-1.468971960E-1,-2.946648780E0,2.962903678E0
1.355604625E1,8.660831871E-2,-6.447392596E-2,-2.901784848E0,2.903792898E0
1.356604425E1,-8.926235162E-2,1.006154974E-1,-2.915644503E0,2.918745298E0
1.357604325E1,-1.564921571E-1,1.013722459E-1,-2.869795316E0,2.875846185E0
1.358604225E1,4.648499899E-2,4.781481799E-3,-2.748774909E0,2.749172097E0
1.359604025E1,2.948305003E-1,-9.392464729E-2,-2.592396973E0,2.610798524E0
1.360603925E1,2.431515293E-1,-8.392459290E-2,-2.525970265E0,2.539033631E0
1.361603825E1,7.240751496E-2,-7.258594183E-2,-2.512081958E0,2.514173290E0
1.362603625E1,4.175313972E-2,4.273564554E-2,-2.482189822E0,2.482908773E0
1.363603525E1,-1.200979357E-1,1.165495346E-1,-2.489297113E0,2.494916316E0
1.364603425E1,-2.132366076E-1,1.032045988E-1,-2.419038724E0,2.430610908E0
1.365603225E1,-1.150332968E-1,7.155746684E-2,-2.169135743E0,2.173362143E0
1.366603125E1,1.807213194E-1,-2.807260112E-2,-1.801674492E0,1.810933252E0
1.367602925E1,2.356096627E-1,-1.350867523E-1,-1.653338817E0,1.675496818E0
1.368602825E1,-5.592393994E-2,-7.084718546E-2,-1.731329564E0,1.733680729E0
1.369602725E1,-1.026348242E-1,5.177104639E-2,-1.752428073E0,1.756194266E0
1.370602525E1,-3.447244260E-3,2.080394013E-1,-1.724584216E0,1.737090382E0
1.371602425E1,-1.750652895E-1,-1.324664962E-1,-1.653622407E0,1.668131378E0
1.372602325E1,6.465189602E-2,5.781257233E-2,-1.492676627E0,1.495194193E0
1.373602125E1,8.705716560E-2,3.365166712E-2,-1.345934318E0,1.349166622E0
1.374602025E1,3.961759038E-2,-5.846106509E-2,-1.263103831E0,1.265076495E0
1.375601925E1,3.269998709E-2,-2.651268732E-2,-1.312743768E0,1.313418598E0
1.376601725E1,1.164527815E-3,-1.672087490E-2,-1.353399459E0,1.353503246E0
1.377601625E1,5.015233610E-2,1.007879720E-1,-1.400067841E0,1.404586569E0
1.378601525E1,-1.671826580E-1,-5.929707075E-3,-1.479099392E0,1.488529548E0
1.379601325E1,-1.446390470E-1,2.285773215E-2,-1.422223526E0,1.429742175E0
1.380601225E1,3.874109276E-2,5.091606469E-2,-1.243512150E0,1.245156932E0
1.381601025E1,-3.410514610E-2,-8.067725033E-2,-1.040707322E0,1.044386763E0
1.382600925E1,-2.969581559E-2,-5.976183303E-3,-8.997198433E-1,9.002296110E-1
1.383600825E1,7.213894503E-2,-8.470313139E-2,-7.723417586E-1,7.803143213E-1
1.384600625E1,1.364357689E-1,-1.644045180E-2,-8.367102474E-1,8.479204241E-1
1.385600525E1,2.283383394E-2,-4.919742183E-2,-1.013500228E0,1.014950483E0
1.386600425E1,4.011317845E-3,1.513338440E-2,-1.073083940E0,1.073198142E0
1.387600225E1,6.264684923E-2,-1.191864690E-2,-9.728100389E-1,9.748979709E-1
1.388600125E1,-3.464252349E-2,-8.079896149E-3,-8.653586805E-1,8.660895075E-1
1.389600025E1,-3.101688433E-2,5.092461167E-3,-8.194445890E-1,8.200472028E-1
1.390599825E1,-8.384494286E-2,-1.258029818E-2,-7.718839216E-1,7.765262564E-1
1.391599725E1,8.841476116E-2,5.075384100E-2,-6.162491673E-1,6.246248143E-1
1.392599525E1,-6.593336815E-2,-4.264970517E-2,-4.389048707E-1,4.458740763E-1
1.393599425E1,6.105728365E-2,-2.434882467E-2,-2.302662760E-1,2.394648513E-1
1.394599325E1,-5.124189164E-3,8.448597357E-3,-1.662199688E-1,1.665134053E-1
1.395599125E1,-2.769036680E-2,5.823506563E-2,-1.828541279E-1,1.938909780E-1
1.396599025E1,-1.180479019E-1,1.078186709E-2,-1.983118272E-1,2.310392534E-1
1.397598921E1,-1.839535141E-1,6.353462102E-2,-1.386146790E-1,2.389342433E-1
1.398598721E1,8.928643484E-3,7.749872217E-2,1.186791819E-1,1.420229588E-1
1.399598621E1,-4.245891692E-2,-1.079988771E-1,3.252531248E-1,3.453347829E-1
1.400598521E1,2.729039898E-2,4.879836078E-3,4.834980762E-1,4.842922345E-1
1.401598321E1,-5.140689276E-3,4.306118013E-2,4.904135782E-1,4.923272992E-1
1.402598221E1,-1.139097360E-1,2.280762425E-3,5.277112126E-1,5.398701268E-1
1.403598021E1,-1.899069298E-1,1.208852999E-1,5.645475018E-1,6.077760932E-1
1.404597921E1,-1.603510454E-1,8.586334689E-2,5.765360481E-1,6.045484156E-1
1.405597821E1,-9.390473021E-2,1.634037305E-2,6.376365280E-1,6.447212173E-1
1.406597621E1,-1.097038155E-2,-4.279085604E-2,6.994860363E-1,7.008795343E-1
1.407597521E1,-6.402819911E-2,-1.494110922E-3,7.339536184E-1,7.367426665E-1
1.408597421E1,-1.247205617E-2,1.742663839E-2,7.634773797E-1,7.637780759E-1
1.409597221E1,-7.775554284E-2,-3.424949467E-4,6.895638961E-1,6.939340087E-1
1.410597121E1,-9.216966033E-2,8.848014034E-2,6.461898351E-1,6.586996922E-1
1.411597021E1,-2.851131588E-2,7.249884572E-2,6.219706678E-1,6.268305109E-1
1.412596821E1,-7.279779833E-2,-1.751535733E-3,6.480463260E-1,6.521247028E-1
1.413596721E1,-1.844697867E-2,6.627920583E-3,7.688714361E-1,7.691212555E-1
1.414596621E1,-2.434380429E-2,-4.640349200E-3,9.134818500E-1,9.138179490E-1
1.415596421E1,-1.227453905E-1,-3.227637915E-3,1.009584932E0,1.017024377E0
1.416596321E1,-8.290363250E-2,-5.787228245E-2,1.080837933E0,1.085556470E0
1.417596121E1,-3.739946740E-2,1.106304051E-2,1.101495561E0,1.102185820E0
1.418596021E1,-3.209087167E-2,2.644701578E-2,1.099098203E0,1.099884597E0
1.419595921E1,-4.196122751E-2,-3.613816360E-2,1.183086439E0,1.184381794E0
1.420595721E1,4.848109223E-2,2.319392877E-3,1.249878014E0,1.250820069E0
1.421595621E1,3.623033490E-2,-5.498700129E-2,1.164278285E0,1.166138985E0
1.422595521E1,-1.095591700E-1,-4.890258968E-2,9.667020375E-1,9.741188348E-1
1.423595321E1,-8.790685739E-2,7.184862164E-3,7.899108875E-1,7.948197582E-1
1.424595221E1,-1.947586752E-1,3.334765987E-2,7.118955821E-1,7.388087221E-1
1.425595121E1,-1.466279409E-1,3.772425053E-2,8.374499202E-1,8.510259931E-1
1.426594921E1,-6.287015805E-2,2.507709538E-2,1.014056883E0,1.016313376E0
1.427594821E1,-1.843687395E-2,4.786833601E-2,1.090377665E0,1.091583597E0
1.428594621E1,-6.040720118E-2,2.754695242E-3,1.123595113E0,1.125221132E0
1.429594521E1,-4.992051227E-2,1.144566768E-2,1.126307051E0,1.127470902E0
1.430594421E1,4.181391422E-2,3.912981839E-3,1.142510855E0,1.143282454E0
1.431594221E1,3.282078691E-3,-4.416343510E-2,1.097506590E0,1.098399698E0
1.432594121E1,-6.758378131E-2,1.973308288E-2,9.743835247E-1,9.769238533E-1
1.433594021E1,-7.769328827E-2,9.065063593E-2,9.614471447E-1,9.688314595E-1
1.434593821E1,-5.597568780E-2,1.210049302E-2,1.021691008E0,1.023294784E0
1.435593721E1,-3.131067038E-1,1.109425482E-1,9.383675998E-1,9.954284552E-1
1.436593621E1,-1.891722637E-1,9.207923862E-2,1.022426003E0,1.043848486E0
1.437593421E1,3.259806281E-2,-4.174263757E-2,1.172051573E0,1.173247618E0
1.438593321E1,-1.406170214E-1,-2.049838063E-2,1.012413815E0,1.022338038E0
1.439593221E1,-1.461379990E-1,1.268936246E-1,9.005156493E-1,9.210791179E-1
1.440593021E1,-1.735516829E-1,9.221797295E-2,9.483254081E-1,9.684758236E-1
1.441592921E1,-1.711081863E-1,1.437043467E-2,9.916322261E-1,1.006389086E0
1.442592721E1,-1.135804282E-1,8.696039418E-2,9.421144956E-1,9.529125598E-1
1.443592621E1,-1.044885012E-1,4.972068368E-2,8.595085412E-1,8.672628931E-1
1.444592521E1,2.678112477E-2,-9.398938693E-2,8.332054263E-1,8.389174667E-1
1.445592321E1,8.202210993E-2,-1.907137907E-2,8.829441816E-1,8.869508283E-1
1.446592221E1,3.753612779E-2,-6.384821907E-2,8.826670235E-1,8.857689487E-1
1.447592121E1,-9.289197419E-2,-2.119975872E-2,7.695725173E-1,7.754483916E-1
1.448591921E1,-3.673134261E-1,6.930986110E-2,1.329230577E0,1.380788520E0
1.449591821E1,2.703208361E-1,8.051928779E-1,1.038442111E-1,8.556825026E-1
1.450591721E1,-1.274959791E-2,-4.484355764E-1,1.102476724E0,1.190257092E0
1.451591521E1,-5.461626498E-2,-9.359650520E-1,7.733445561E-1,1.215349875E0
1.452591421E1,9.241807929E-1,-2.861296973E-1,1.479665403E0,1.767877271E0
1.453591321E1,-2.237824447E-1,4.084939041E-1,1.020435026E0,1.121710076E0
1.454591121E1,-7.148005519E-1,5.317477649E-1,4.887395203E-2,8.922354945E-1
1.455591021E1,-5.793160336E-1,-3.905655004E-2,3.965143114E-1,7.031046011E-1
1.456590821E1,-6.719222617E-1,-7.232714132E-1,2.230829716E-1,1.012110209E0
1.457590721E1,1.365356466E-1,-6.705464484E-2,7.822972280E-1,7.969487192E-1
1.458590621E1,1.302560550E0,-1.482165654E-1,1.543266737E0,2.024920827E0
1.459590421E1,-4.972698770E-1,1.965813254E-1,8.547477382E-1,1.008223807E0
1.460590321E1,-1.126748955E-1,1.934001478E-1,2.761710119E-1,3.554851291E-1
1.461590221E1,-7.069318807E-1,-1.154725780E-1,2.089999527E-1,7.461686006E-1
1.462590021E1,-6.590610185E-1,-2.123152509E-1,2.678469157E-1,7.424157610E-1
1.463589921E1,3.587693284E-1,3.666033548E-1,3.729190421E-1,6.341782579E-1
1.464589821E1,-1.749822590E-1,1.127982169E-1,1.128710842E0,1.147750144E0
1.465589621E1,7.453491839E-1,1.083277610E0,1.045907251E0,1.680165993E0
1.466589521E1,2.111521666E-1,-4.087296566E-1,5.178884751E-1,6.927146903E-1
1.467589421E1,-1.253498500E-1,-1.130901355E0,7.739023805E-2,1.140455921E0
1.468589221E1,-2.849712908E-1,-7.419390786E-2,-1.082553506E-1,3.137396906E-1
1.469589121E1,-4.553491415E-1,5.393527266E-1,3.834756052E-1,8.033042663E-1
1.470588921E1,-8.440476990E-1,7.367563350E-1,7.797419947E-1,1.364999631E0
1.471588821E1,1.560504913E-2,3.883173556E-1,4.594940865E-1,6.018045378E-1
1.472588721E1,6.630045269E-1,-4.253939836E-2,6.460348839E-1,9.266853157E-1
1.473588521E1,3.034106498E-1,-1.036675156E0,5.631652200E-1,1.218157816E0
1.474588421E1,4.482844259E-1,-5.792078967E-1,5.192485374E-1,8.978083079E-1
1.475588321E1,-1.352261810E-2,4.781239003E-2,3.971709538E-1,4.002669763E-1
1.476588121E1,-3.967711504E-1,5.074884711E-1,4.259310687E-1,7.722623708E-1
1.477588021E1,-4.860688046E-1,6.295256359E-1,4.929501003E-1,9.357164156E-1
1.478587921E1,-1.585181991E-1,2.754451075E-2,3.944180846E-2,1.656574048E-1
1.479587721E1,-3.471324922E-1,-4.910972273E-1,1.596599776E-1,6.222288664E-1
1.480587621E1,6.967677388E-2,-3.031161876E-1,6.125332618E-1,6.869725415E-1
1.481587521E1,6.146283191E-1,1.091829839E-1,5.255424803E-1,8.160170300E-1
1.482587321E1,-1.379446612E-1,4.864974055E-1,8.716286498E-1,1.007692889E0
1.483587221E1,1.311243957E-1,-1.470037524E-1,7.436512256E-1,7.692989378E-1
1.484587121E1,-1.111872542E-1,8.095316581E-2,6.740179038E-1,6.879070833E-1
1.485586921E1,-3.147036880E-1,-2.523079401E-1,4.027106059E-1,5.699767890E-1
1.486586821E1,-3.257651217E-1,-2.807992110E-1,6.271635801E-1,7.604638503E-1
1.487586621E1,-1.219545911E-1,1.868100251E-1,8.296117276E-1,8.590847027E-1
1.488586521E1,-7.886203704E-2,2.204611166E-1,8.371926427E-1,8.693180349E-1
1.489586421E1,-1.262652133E-1,1.834610620E-2,1.062148477E0,1.069784498E0
1.490586221E1,3.498256466E-1,-1.694285370E-1,8.624613851E-1,9.460040449E-1
1.491586121E1,-1.290750563E-1,-2.104377830E-1,9.932834798E-1,1.023502077E0
1.492586021E1,-7.206307741E-2,-2.103869305E-3,9.199436080E-1,9.227641927E-1
1.493585821E1,1.001827395E-1,2.847668757E-1,8.701276696E-1,9.210053834E-1
1.494585721E1,-2.464081361E-1,3.553189595E-1,8.243053794E-1,9.308318275E-1
1.495585621E1,-2.961345391E-1,-4.886780332E-2,6.338539642E-1,7.013234456E-1
1.496585421E1,-3.241588184E-1,9.831162133E-2,8.373639661E-1,9.032842998E-1
1.497585371E1,5.706005394E-3,-1.724530276E-2,6.757685602E-1,6.760126522E-1
1.498585271E1,-1.972872854E-1,-4.089862397E-2,1.032452808E0,1.051928596E0
1.499585071E1,3.569107544E-1,-1.226300359E-1,1.271092882E0,1.325933832E0
1.500584971E1,1.634855915E-1,-2.372234576E-2,1.116352167E0,1.128508949E0
1.501584871E1,-2.747211217E-1,-1.612713788E-1,9.749021727E-1,1.025628782E0
1.502584671E1,-4.856331870E-2,2.635427574E-2,8.381129944E-1,8.399323397E-1
1.503584571E1,2.436136421E-2,2.112705224E-2,8.794627494E-1,8.800537233E-1
1.504584371E1,1.318221330E-1,-5.761166565E-2,8.801269931E-1,8.918069873E-1
1.505584271E1,-2.484810837E-3,7.837066993E-2,9.764511001E-1,9.795942462E-1
1.506584171E1,-2.274771541E-2,5.668198577E-2,8.715894735E-1,8.737267973E-1
1.507583971E1,-2.155883212E-1,5.554297557E-2,9.500655395E-1,9.758011456E-1
1.508583871E1,-3.016330597E-1,7.754231133E-2,9.213422620E-1,9.725568757E-1
1.509583771E1,-1.530952903E-1,1.173624803E-1,1.006091806E0,1.024418294E0
1.510583571E1,-1.177769200E-1,1.770908632E-3,1.266137366E0,1.271604643E0
1.511583471E1,-8.350602362E-2,4.107215837E-2,1.342373949E0,1.345595777E0
1.512583371E1,-1.088204474E-1,8.965083514E-2,1.528344643E0,1.534834359E0
1.513583171E1,6.072729969E-2,-6.402276303E-2,1.682306508E0,1.684619217E0
1.514583071E1,-1.064127285E-1,-9.580417081E-2,1.852288576E0,1.857814597E0
1.515582971E1,-3.586307494E-2,-6.823367192E-3,1.819601471E0,1.819967646E0
1.516582771E1,-5.267082324E-2,1.148625946E-1,1.807869617E0,1.812280382E0
1.517582671E1,-1.803648951E-1,-1.623219613E-2,1.818126218E0,1.827122854E0
1.518582571E1,-1.085762348E-1,-7.791085951E-2,1.796485088E0,1.801448743E0
1.519582371E1,-2.269113629E-1,-2.181862254E-2,1.941280274E0,1.954618613E0
1.520582271E1,-5.990510808E-2,-1.020352379E-1,1.982624182E0,1.986151671E0
1.521582171E1,-1.673060343E-1,7.144065044E-2,2.058986480E0,2.067007595E0
1.522581971E1,4.764033571E-2,-2.022274517E-1,1.888059502E0,1.899456298E0
1.523581871E1,-2.970320684E-1,6.415608411E-2,2.159142852E0,2.180422415E0
1.524581671E1,4.491885882E-3,1.041761411E-1,1.873093554E0,1.875993685E0
1.525581571E1,-1.747784653E-1,3.956040096E-1,2.006322947E0,2.052408783E0
1.526581471E1,1.586870922E-1,-2.064133455E-1,2.098109615E0,2.114202454E0
1.527581271E1,1.362287957E-2,-3.514257006E-1,2.037520766E0,2.067649989E0
1.528581171E1,-1.950548002E-1,8.262127594E-2,1.989192944E0,2.000440256E0
1.529581071E1,-9.194161892E-2,1.852311672E-1,1.874844795E0,1.886214954E0
1.530580871E1,-2.750623433E-1,5.277818543E-1,1.874767027E0,1.966968323E0
1.531580771E1,1.159784627E-1,1.228433862E-1,1.630240561E0,1.638970954E0
1.532580671E1,-2.400977844E-1,-9.096093122E-1,2.567570865E0,2.734493773E0
1.533580471E1,6.182936463E-1,-4.011905491E-1,1.997606503E0,2.129242267E0
1.534580371E1,-8.031187975E-1,8.055073120E-1,1.334692461E0,1.753637876E0
1.535580271E1,-6.411697812E-1,1.666718307E-1,9.455795556E-1,1.154555708E0
1.536580071E1,-5.219036850E-1,3.520699176E-1,1.243230899E0,1.393542160E0
1.537579971E1,7.560616484E-1,-3.395116333E-1,1.872921646E0,2.048104699E0
1.538579871E1,-1.570708670E-1,-5.781509759E-1,1.336387569E0,1.464534583E0
1.539579671E1,6.050209053E-2,2.160500319E-1,1.339640960E0,1.358298944E0
1.540579571E1,-4.312965103E-1,9.717408755E-1,1.145239751E0,1.562648744E0
1.541579471E1,-6.130322485E-1,-4.049189530E-1,9.900072849E-1,1.232835074E0
1.542579271E1,3.653434261E-1,-2.436551025E-1,2.084010224E0,2.129775162E0
1.543579171E1,-3.342908737E-1,6.195877813E-2,1.123814383E0,1.174115857E0
1.544579071E1,-1.861940940E-1,1.641560661E-1,1.030151929E0,1.059635999E0
1.545578871E1,2.568039373E-1,2.232492061E-2,1.509172792E0,1.531028798E0
1.546578771E1,-3.138193332E-2,-1.568098802E-1,1.349602277E0,1.359043954E0
1.547578671E1,4.635759912E-1,-4.223404032E-1,1.867205408E0,1.969703061E0
1.548578471E1,-2.440373642E-1,3.518375273E-1,1.484857730E0,1.545362857E0
1.549578371E1,1.361955945E-1,-2.356393190E-1,1.573923104E0,1.597281774E0
1.550578171E1,1.966676267E-2,1.203488726E-1,1.463571526E0,1.468642995E0
1.551578071E1,-2.251943281E-1,3.503696387E-2,1.420416736E0,1.438583949E0
1.552577971E1,-1.025487605E-1,-5.799833563E-2,1.419319798E0,1.424201090E0
1.553577771E1,-2.064072790E-1,1.919332093E-1,1.340071315E0,1.369391635E0
1.554577671E1,-1.381289398E-1,6.718464946E-2,1.498375323E0,1.506227735E0
1.555577571E1,-1.513389146E-1,7.954431118E-3,1.590968907E0,1.598170455E0
1.556577371E1,-4.885885891E-2,1.077286718E-1,1.505309536E0,1.509950150E0
1.557577271E1,-1.119274020E-2,1.794339407E-2,1.499157096E0,1.499306253E0
1.558577171E1,-7.796989812E-2,-5.634517245E-2,1.393476859E0,1.396793414E0
1.559576971E1,-3.783143045E-2,7.036818429E-2,1.196641454E0,1.199305494E0
1.560576871E1,-1.596657700E-1,1.954043769E-2,1.095165950E0,1.106916187E0
1.561576771E1,-1.968098785E-1,8.231957789E-2,1.040233698E0,1.061883604E0
1.562576571E1,-2.166835047E-1,4.223313674E-2,1.007747737E0,1.031644745E0
1.563576471E1,-1.488214142E-1,-6.087349379E-2,9.444492888E-1,9.580385456E-1
1.564576371E1,-1.435308717E-3,1.548828572E-1,8.220688194E-1,8.365332650E-1
1.565576171E1,2.013359888E-1,-2.410742511E-1,8.804316330E-1,9.347795651E-1
1.566576071E1,8.709844328E-2,-8.518205490E-2,7.016764033E-1,7.121740632E-1
1.567575971E1,-3.280158246E-1,1.242172900E-1,1.782792664E-1,3.934562404E-1
1.568575771E1,-3.247187624E-1,1.479240950E-1,-9.484593093E-2,3.692147927E-1
1.569575671E1,1.403470628E-2,2.611260758E-2,-2.260650516E-2,3.728130001E-2
1.570575571E1,9.791546334E-2,-2.440223990E-1,-5.647416294E-2,2.689306607E-1
1.571575371E1,-5.431058351E-2,-2.100944098E-2,-2.285290682E-1,2.358316584E-1
1.572575271E1,-1.783981476E-1,1.691844158E-1,-4.472143489E-1,5.103429626E-1
1.573575171E1,-2.145945321E-1,8.278355445E-2,-5.980947322E-1,6.407973461E-1
1.574574971E1,1.150613269E-1,-8.568101426E-2,-3.931311125E-1,4.184882516E-1
1.575574871E1,1.421717595E-1,-2.120345297E-1,-4.311462003E-1,5.010573790E-1
1.576574671E1,-1.018594834E-1,1.746099924E-1,-7.212932271E-1,7.490847237E-1
1.577574571E1,-1.047550611E-1,8.231655378E-2,-6.628193164E-1,6.760762413E-1
1.578574471E1,1.538905664E-1,-8.660942419E-2,-4.257474661E-1,4.609169162E-1
1.579574371E1,1.631656392E-1,-1.351321322E-1,-5.124552423E-1,5.545215003E-1
1.580574171E1,-1.989449345E-2,5.003881789E-2,-6.942486852E-1,6.963339078E-1
1.581574071E1,-1.152228197E-1,1.996976356E-1,-7.771300435E-1,8.106087517E-1
1.582573871E1,4.888553683E-2,-1.250780002E-1,-6.287072450E-1,6.428896497E-1
1.583573771E1,2.029792392E-1,-2.923694621E-2,-5.509135491E-1,5.878444600E-1
1.584573671E1,8.458434155E-2,-5.483451230E-2,-6.002213645E-1,6.086271609E-1
1.585573471E1,-1.023775101E-1,1.049936184E-1,-7.619448245E-1,7.759283021E-1
1.586573371E1,-4.589095842E-2,2.299677711E-2,-8.634957576E-1,8.650200895E-1
1.587573271E1,1.944729108E-2,-1.671390392E-2,-1.025198168E0,1.025518812E0
1.588573071E1,5.339006731E-2,4.291446984E-2,-1.126851427E0,1.128931481E0
