"Time (s)","Linear Acceleration x (m/s^2)","Linear Acceleration y (m/s^2)","Linear Acceleration z (m/s^2)","Absolute acceleration (m/s^2)"
2.552749997E-3,1.087516330E-2,1.896866679E-2,-2.525587857E-2,3.340567166E-2
1.255175000E-2,3.764364347E-3,2.946725570E-2,-1.807257414E-2,3.477222359E-2
2.254974999E-2,1.711151116E-3,4.294849332E-2,-3.453950286E-2,5.514053296E-2
3.254774999E-2,-1.761473715E-3,5.360314351E-2,-3.663806856E-2,6.495188874E-2
4.254674999E-2,3.566381279E-3,4.987112157E-2,-3.140130222E-2,5.904142294E-2
5.254474998E-2,-1.473662797E-3,4.817576251E-2,-2.002320528E-2,5.219199675E-2
6.254374998E-2,-6.348687485E-3,3.784026752E-2,-1.882394135E-2,4.273795089E-2
7.254174998E-2,1.139174653E-2,5.360382873E-2,-2.780351043E-2,6.145061054E-2
8.254074998E-2,1.042907557E-2,5.448562082E-2,-2.899985075E-2,6.259744274E-2
9.253875000E-2,4.241387509E-3,5.006062618E-2,-3.124518156E-2,5.916347718E-2
1.025377500E-1,5.326210465E-3,3.133450692E-2,-1.837370574E-2,3.671257148E-2
1.125357500E-1,7.458598651E-3,2.883140983E-3,-1.208853364E-2,1.449399328E-2
1.225337500E-1,1.062053533E-2,1.306768188E-3,-1.358717501E-2,1.729493390E-2
1.325327500E-1,3.466302529E-3,-2.365013722E-3,-2.556753516E-2,2.590960049E-2
1.425307500E-1,-8.646570146E-4,-1.214200483E-2,-2.377302468E-2,2.670828739E-2
1.525297500E-1,-5.277112126E-3,-1.793547635E-2,-3.350162208E-2,3.836519134E-2
1.625277500E-1,6.177382339E-3,-3.492859852E-2,-2.032784522E-2,4.088261657E-2
1.725267500E-1,-1.110039074E-3,-3.923816090E-2,-1.074542820E-2,4.069803048E-2
1.825247500E-1,-2.797344513E-4,-5.227155434E-2,-2.032433689E-2,5.608451047E-2
1.925227500E-1,6.046934612E-4,-6.179561340E-2,-1.927242279E-2,6.473399239E-2
2.025217500E-1,1.533033963E-2,-6.633327659E-2,-1.732413054E-2,7.025132308E-2
2.125197500E-1,4.335947949E-3,-5.296218360E-2,-1.671952844E-2,5.570759345E-2
2.225187500E-1,3.220500201E-3,-4.694647678E-2,-1.866372764E-2,5.062290028E-2
2.325167500E-1,8.553709053E-3,-4.462931201E-2,-1.836318076E-2,4.901171122E-2
2.425157500E-1,-1.319058761E-3,-4.691287813E-2,-1.596816123E-2,4.957358392E-2
2.525137500E-1,1.771139894E-3,-4.131226880E-2,-6.985083818E-3,4.193604518E-2
2.625127500E-1,8.870865684E-3,-2.047657920E-2,-2.120258868E-2,3.078201293E-2
2.725107500E-1,4.913780764E-3,-6.566498552E-3,-2.628557324E-2,2.753535010E-2
2.825087500E-1,1.312197419E-2,1.932927326E-3,-1.999747753E-2,2.399628143E-2
2.925077500E-1,7.939824499E-3,7.459924553E-3,-1.700077951E-2,2.019202296E-2
3.025057500E-1,-9.566227533E-4,1.816069236E-2,-1.609621525E-2,2.428608695E-2
3.125047500E-1,2.108286694E-3,3.315911229E-2,-2.716616392E-2,4.291820200E-2
3.225027500E-1,3.037317898E-3,6.113710272E-2,-2.836075008E-2,6.746334393E-2
3.325017500E-1,5.049929526E-3,5.846973541E-2,-3.165097833E-2,6.667830364E-2
3.424997500E-1,4.104818478E-3,5.987281592E-2,-2.715914726E-2,6.587277815E-2
3.524987500E-1,-1.839241683E-3,4.151633662E-2,-1.757614553E-2,4.512105837E-2
3.624967500E-1,5.241864379E-3,4.174061846E-2,-2.655512989E-2,4.974868133E-2
3.724947500E-1,8.588189352E-3,4.680525281E-2,-2.864843309E-2,5.554476938E-2
3.824937500E-1,1.115959380E-2,4.405656810E-2,-3.373901904E-2,5.660246578E-2
3.924917500E-1,9.464029167E-3,4.515299869E-2,-3.059906423E-2,5.535940634E-2
4.024907500E-1,7.774092481E-3,3.643755931E-2,-2.192062676E-2,4.322783964E-2
4.124887500E-1,8.794011343E-3,5.565472363E-3,-2.506818295E-2,2.714264015E-2
4.224877500E-1,6.622337177E-3,4.279864929E-3,-1.519106627E-2,1.711552184E-2
4.324857500E-1,4.682852291E-3,1.429875375E-2,-2.207733214E-2,2.671688714E-2
4.424847500E-1,-1.444938350E-3,2.219424904E-3,-2.896008968E-2,2.908092998E-2
4.524827500E-1,3.026866000E-3,-1.622254823E-2,-2.132245660E-2,2.696256932E-2
4.624807500E-1,7.173619978E-3,-2.999897088E-2,-2.281875908E-2,3.836788819E-2
4.724797500E-1,-3.377845120E-3,-3.913139897E-2,-9.494708776E-3,4.040823824E-2
4.824777500E-1,5.964470599E-3,-3.027490921E-2,-2.401276052E-2,3.909933126E-2
4.924767500E-1,1.285057202E-2,-3.580195783E-2,-9.942020774E-3,3.931616923E-2
5.024747500E-1,7.284040991E-3,-3.372501313E-2,-2.206622243E-2,4.095548725E-2
5.124737500E-1,9.295483176E-3,-4.048453603E-2,2.397358418E-4,4.153867040E-2
5.224717500E-1,1.841105483E-3,-4.068237749E-2,-1.008878589E-2,4.195508441E-2
5.324707500E-1,-1.630203724E-3,-3.579289922E-2,-1.278259814E-2,3.804187185E-2
5.424687500E-1,-5.712199789E-3,-3.076783863E-2,-1.322991014E-2,3.397527987E-2
5.524667500E-1,-1.076655127E-3,-1.249891910E-2,-1.382808030E-2,1.867077850E-2
5.624657500E-1,5.262347907E-3,-7.811077262E-3,-1.173360765E-2,1.504602213E-2
5.724637500E-1,7.356729191E-3,-7.128812262E-3,-7.687334418E-3,1.280767501E-2
5.824627500E-1,1.035417639E-2,7.843289481E-3,-2.385313153E-2,2.716059724E-2
5.924607500E-1,1.722887574E-2,1.835561706E-2,-3.806478918E-2,4.563650964E-2
6.024597500E-1,1.696266297E-2,2.452782256E-2,-2.743338168E-2,4.052081496E-2
6.124577500E-1,5.623669289E-3,1.273765338E-2,-1.979984164E-2,2.420552001E-2
6.224557500E-1,1.051603463E-3,4.491726911E-2,-1.545594513E-2,4.751371564E-2
6.324547500E-1,8.645693064E-3,3.767171010E-2,-4.584158599E-2,5.996129382E-2
6.424527500E-1,6.391573157E-3,5.434510035E-2,-3.117150664E-2,6.297543145E-2
6.524517500E-1,-3.118064292E-3,4.959763176E-2,-3.161881864E-2,5.890158821E-2
6.624497500E-1,1.052120576E-2,3.035355426E-2,-1.230546534E-2,3.440143172E-2
6.724487500E-1,1.544757631E-2,4.161668032E-2,-2.338184595E-2,5.017256636E-2
6.824467500E-1,8.270356636E-3,2.768841393E-2,-1.095826685E-2,3.090518851E-2
6.924457500E-1,7.960600387E-3,2.837021754E-2,-3.865068018E-2,4.860159957E-2
7.024437500E-1,4.129374957E-2,3.048465067E-2,-4.299457669E-2,6.695536800E-2
7.124417500E-1,8.203325618E-2,4.531050350E-2,-2.578212798E-2,9.719678477E-2
7.224407500E-1,7.017987197E-2,3.443431465E-2,-2.308773100E-2,8.151061145E-2
7.324387500E-1,2.769467913E-2,1.829836460E-2,-5.003345490E-2,6.004308459E-2
7.424377500E-1,-2.839946961E-2,-3.393146781E-2,-3.296367824E-2,5.517679281E-2
7.524357500E-1,-4.856728384E-2,-8.514400232E-2,-1.933557272E-2,9.991069293E-2
7.624347500E-1,-7.648110565E-2,-9.581802140E-2,2.138151348E-2,1.244492743E-1
7.724327500E-1,-6.171432797E-2,-7.255922736E-2,-3.165097833E-3,9.530748972E-2
7.824317500E-1,9.489062559E-3,-3.422309769E-2,-2.262287736E-2,4.210768699E-2
7.924297500E-1,-1.450829420E-2,-4.208265316E-2,1.645172596E-2,4.745629131E-2
8.024277500E-1,2.949503683E-2,-4.953621316E-2,7.841993272E-2,9.733180087E-2
8.124267500E-1,1.826834623E-3,-2.768081940E-2,2.565313840E-1,2.580269677E-1
8.224252500E-1,-6.921458803E-2,2.668545427E-2,4.735490388E-1,4.793239664E-1
8.324242500E-1,3.863681132E-2,4.985909823E-2,6.229103154E-1,6.260958344E-1
8.424222500E-1,7.445674477E-2,-1.041787678E-3,8.701686001E-1,8.733488906E-1
8.524212500E-1,4.537812106E-2,5.640521147E-2,9.158102113E-1,9.186670043E-1
8.624192500E-1,2.027681364E-1,3.334303234E-2,9.614641017E-1,9.831784649E-1
8.724182500E-1,1.776794736E0,-6.449672554E-2,-4.069995970E0,4.441399167E0
8.824162500E-1,-3.414489255E-1,5.824316494E-2,8.946596628E-1,9.593724758E-1
8.924142500E-1,-1.073406633E0,-6.827975072E-2,-1.472960401E0,1.823863007E0
9.024132500E-1,-1.445233635E0,-3.320393302E-1,7.246740872E-1,1.650485658E0
9.124112500E-1,-2.190012131E-1,-2.423647134E-1,2.010109019E-1,3.835460446E-1
9.224102500E-1,8.053498757E-1,3.597468001E-1,-4.297510546E-1,9.811687681E-1
9.324082500E-1,-5.291240461E-1,4.981544877E-1,-3.066227263E-1,7.887633651E-1
9.424072500E-1,5.753724156E-1,6.757218738E-2,-2.924110687E-1,6.489404058E-1
9.524052500E-1,5.482473284E-1,-4.986869498E-1,-7.715167165E-2,7.451283026E-1
9.624032500E-1,5.723327771E-2,5.269048816E-1,-3.690546173E-1,6.458372186E-1
9.724022500E-1,1.096462936E-1,3.951175578E-1,-2.289617622E-1,4.696420794E-1
9.824002500E-1,-6.563755386E-2,-1.665706556E-1,1.763789213E-1,2.513236870E-1
9.923992500E-1,1.891801940E-1,-3.124925999E-1,1.412032413E-1,3.916364720E-1
1.002397250E0,2.902550541E-2,-1.840540679E-1,2.072896421E-2,1.874781849E-1
1.012396250E0,-6.427641341E-2,5.016733786E-2,-7.396844745E-2,1.100888293E-1
1.022394250E0,-8.071266253E-2,-1.006649612E-1,1.031940007E-1,1.652179472E-1
1.032393250E0,-1.225774475E-1,1.199761218E-1,-3.725962758E-2,1.755214525E-1
1.042391250E0,-2.948423958E-1,2.522941261E-1,-8.128857672E-2,3.964747118E-1
1.052389250E0,-2.461007370E-1,-1.119961433E-1,1.688728505E-1,3.187895050E-1
1.062388250E0,-1.392861586E-1,-1.883995496E-2,9.813966751E-2,1.714262880E-1
1.072386250E0,-1.489576177E-1,-5.203455938E-2,5.992285073E-2,1.687800797E-1
1.082385250E0,1.866098676E-2,-1.918383747E-1,6.410010159E-2,2.031231584E-1
1.092383250E0,7.289230395E-2,-1.190634262E-1,2.698723912E-2,1.421889536E-1
1.102382250E0,-8.626799248E-3,7.245459646E-4,6.207988858E-3,1.065296944E-2
1.112380250E0,-9.563121200E-4,6.643959085E-2,-7.908476114E-2,1.032934326E-1
1.122379250E0,4.179063864E-1,-3.619280674E-1,-6.610218823E-2,5.567828779E-1
1.132377250E0,1.194737455E-1,1.140984184E-1,-2.099284905E-1,2.671374104E-1
1.142375250E0,3.612117469E-3,8.462689832E-2,-1.475188190E-1,1.701074991E-1
1.152374250E0,6.817970395E-2,-7.065858991E-2,-5.132568955E-2,1.107945611E-1
1.162372250E0,-6.353321403E-2,5.432483610E-2,3.871733844E-2,9.212322942E-2
1.172371250E0,3.169340719E-2,-1.800090007E-2,1.178342593E-1,1.233426817E-1
1.182369250E0,2.600004639E-2,-6.703436231E-2,2.469448739E-1,2.571991036E-1
1.192368250E0,-8.235879991E-2,-2.071332656E-1,6.976044023E-1,7.323517350E-1
1.202366250E0,-1.148839370E-1,8.675933219E-2,7.585019839E-1,7.720432373E-1
1.212364250E0,3.128070340E-2,-7.421744747E-2,8.441075599E-1,8.479412035E-1
1.222363250E0,7.586133733E-2,2.462809043E-1,6.291399390E-1,6.798722594E-1
1.232361250E0,-6.295770183E-3,2.485189627E-1,6.928704965E-1,7.361187652E-1
1.242360250E0,-1.172009327E-1,2.240449847E-1,7.256160736E-1,7.684080297E-1
1.252358250E0,-6.009819411E-2,2.992469023E-1,7.323234147E-1,7.933839456E-1
1.262357250E0,1.591510140E-1,-1.802944544E-1,1.133167005E0,1.158405195E0
1.272355250E0,-8.230774641E-2,3.834480868E-1,1.073704330E0,1.143087043E0
1.282354250E0,1.438451596E-2,-2.818236615E-1,1.489984569E0,1.516471400E0
1.292352250E0,3.797022508E-1,-5.740866677E-2,1.153146356E0,1.215407780E0
1.302350250E0,-6.551094336E-2,-1.807229091E-2,1.378216796E0,1.379891238E0
1.312349250E0,-5.952617196E-2,-2.753736344E-1,1.626073251E0,1.650299434E0
1.322347250E0,1.949865339E-1,7.857534075E-3,1.308981085E0,1.323447381E0
1.332346250E0,-9.425729904E-2,-1.101716019E-1,1.492464958E0,1.499491204E0
1.342344250E0,5.536463549E-1,2.009214030E-1,8.777343124E-1,1.057029432E0
1.352343250E0,4.413698741E-1,-1.059857721E-1,1.188330806E0,1.272073290E0
1.362341250E0,-5.735253167E-1,2.672886163E-1,1.493001148E0,1.621550776E0
1.372339250E0,-6.595471049E-2,2.027895518E-1,1.088671448E0,1.109359792E0
1.382338250E0,6.233267102E-2,6.631470254E-2,9.239653230E-1,9.284368151E-1
1.392336250E0,-1.293206393E-1,-2.096752695E-1,1.195900612E0,1.221010164E0
1.402335250E0,-1.504894238E-2,-1.028200859E0,2.404856887E0,2.615484682E0
1.412333250E0,-4.070891837E-1,8.649088103E-1,5.771383113E-1,1.116636684E0
1.422332250E0,3.510011928E-1,-9.234707947E-1,1.725550761E0,1.988347448E0
1.432330250E0,-2.669090771E-1,5.927192041E-1,9.632387316E-1,1.162060826E0
1.442329250E0,3.049128177E-1,-4.375854465E-1,1.458795521E0,1.553234438E0
1.452327250E0,-2.878091272E-1,5.907656859E-1,1.189524808E0,1.358972942E0
1.462325250E0,4.923615050E-1,-3.277069454E-1,1.403320647E0,1.522865894E0
1.472324250E0,7.115822079E-2,5.340755049E-1,1.082373996E0,1.209063111E0
1.482322250E0,-7.696178332E-2,-3.613517512E-1,1.937134014E0,1.972051316E0
1.492321250E0,3.638875790E-1,4.743599379E-1,1.015020504E0,1.178006004E0
1.502319250E0,-2.702422276E-2,-2.043044558E-1,1.653690820E0,1.666482507E0
1.512318250E0,-4.669564493E-2,6.239088280E-2,1.442033892E0,1.444138100E0
1.522316250E0,2.077075901E-1,-1.397477780E-1,1.450840384E0,1.472280443E0
1.532314250E0,-4.221799336E-2,1.134134353E-1,1.291242971E0,1.296901453E0
1.542313250E0,-1.076127050E-1,-4.726351007E-2,1.309472836E0,1.314737024E0
1.552311250E0,-1.822626455E-1,3.480128636E-1,1.167390758E0,1.231719857E0
1.562310250E0,-1.530221087E-1,-3.108295422E-1,1.635497208E0,1.671790025E0
1.572308250E0,-1.289047378E-1,-7.191684677E-2,1.580639800E0,1.587517132E0
1.582307250E0,-2.979825150E-1,1.693704851E-1,1.481169307E0,1.520309987E0
1.592305250E0,6.210833894E-2,6.569078179E-2,1.238460740E0,1.241755906E0
1.602304250E0,1.682508895E-2,-2.094569857E-1,1.205332171E0,1.223511730E0
1.612302250E0,2.048020173E-2,-1.035203850E-3,9.249020469E-1,9.251293459E-1
1.622300250E0,3.603441663E-2,-1.201610857E-1,7.823527765E-1,7.923465357E-1
1.632299250E0,3.287376999E-1,-1.009943604E-1,5.246788466E-1,6.273405999E-1
1.642297250E0,3.213960456E-2,1.345677297E-1,4.864082354E-1,5.057018880E-1
1.652296250E0,8.197412621E-3,-1.986558171E-2,4.873537302E-1,4.878273232E-1
1.662294250E0,-3.752483536E-2,1.732301956E-1,3.137697780E-1,3.603724289E-1
1.672293250E0,2.125664253E-1,1.638216237E-3,2.229391301E-1,3.080406217E-1
1.682291250E0,2.268253175E-1,-9.324672659E-2,1.706860721E-1,2.987949328E-1
1.692289250E0,-1.238878999E-1,-1.396899363E-2,2.169375479E-1,2.502103999E-1
1.702288250E0,6.132338678E-2,-1.298148387E-1,2.424477804E-1,2.817683025E-1
1.712286250E0,2.026110839E-1,-1.579469809E-1,-2.156336188E-2,2.578051176E-1
1.722285250E0,-1.310360845E-1,2.847740020E-1,-2.695899707E-1,4.134554873E-1
1.732283250E0,-7.499364708E-3,-2.281282507E-2,-2.378460217E-1,2.390552143E-1
1.742282250E0,1.896158115E-1,3.783639145E-2,-5.050579298E-1,5.408042723E-1
1.752280250E0,-1.178320848E-1,8.818695730E-2,-4.887792814E-1,5.104571731E-1
1.762279250E0,-1.227543075E-1,-9.592993163E-2,-3.295192534E-1,3.644915776E-1
1.772277250E0,1.059460476E-1,3.772547708E-2,-6.269887483E-1,6.369950291E-1
1.782275250E0,-4.344340531E-2,-1.586448278E-1,-5.376649278E-1,5.622624703E-1
1.792274250E0,-1.249268953E-1,1.042734515E-1,-7.038392884E-1,7.224053057E-1
1.802272250E0,-9.936661435E-2,-1.765624142E-1,-5.808203030E-1,6.151424506E-1
1.812271250E0,-3.026283106E-2,-1.485031612E-1,-6.862070096E-1,7.027439703E-1
1.822268792E0,-1.529561996E-1,1.038065057E-1,-7.737690639E-1,7.955438102E-1
1.832267792E0,-1.640015900E-1,1.602008815E-1,-7.897904348E-1,8.223927133E-1
1.842265792E0,3.518545574E-2,-6.035958749E-2,-8.164502299E-1,8.194341181E-1
1.852263792E0,-1.602683986E-1,2.716469481E-1,-9.076393121E-1,9.608783195E-1
1.862262792E0,-1.333561683E-2,-1.461236185E-1,-6.543958175E-1,6.706443443E-1
1.872260792E0,6.659667995E-3,8.037047250E-2,-6.881260657E-1,6.928356561E-1
1.882259792E0,-5.333599884E-2,-1.604434862E-1,-4.265134513E-1,4.588034058E-1
1.892257792E0,4.662909631E-2,1.296144985E-2,-4.967718405E-1,4.991237655E-1
1.902256792E0,8.600422824E-2,-1.599104942E-1,-2.967035097E-1,3.478520750E-1
1.912254792E0,-9.749603525E-2,6.528846595E-2,-2.014219612E-1,2.331069864E-1
1.922253792E0,-1.903614046E-2,5.857509036E-2,-2.910083216E-1,2.974546337E-1
1.932251792E0,1.716715472E-1,1.552359559E-1,-5.005432945E-1,5.514643342E-1
1.942249792E0,4.339858275E-2,-1.604733070E-1,-2.038310140E-1,2.630250968E-1
1.952248792E0,-2.142885765E-2,7.232352518E-3,-2.758043915E-1,2.767301307E-1
1.962246792E0,-1.437791408E-1,-4.709882141E-1,6.689507067E-2,4.969680972E-1
1.972245792E0,-2.675610051E-1,1.572054991E-1,-3.317563981E-1,4.542738911E-1
1.982243792E0,7.097830927E-2,-1.357957729E-1,-7.923678875E-1,8.070472610E-1
1.992242792E0,8.550856708E-2,7.569485157E-2,-7.409866494E-1,7.497350467E-1
2.002240792E0,-5.021442622E-2,-2.458978569E-1,-7.813739526E-1,8.206902573E-1
2.012238792E0,-1.517381881E-1,2.189478389E-1,-8.581098872E-1,8.985072134E-1
2.022237792E0,-3.819097940E-2,-3.288241656E-1,-8.660837352E-1,9.271919538E-1
2.032235792E0,1.014052826E-1,4.349939971E-1,-1.411026692E0,1.480033491E0
2.042234792E0,-1.187913937E-1,-1.210054601E-1,-8.903303844E-1,9.063343257E-1
2.052232792E0,6.056712253E-2,1.116955234E-2,-1.086026752E0,1.087771686E0
2.062231792E0,1.150782473E-1,-6.912938770E-2,-1.273383236E0,1.280440057E0
2.072229792E0,-2.628858821E-2,-2.240902824E-1,-1.400833241E0,1.418887351E0
2.082227792E0,-1.852167685E-2,2.613390926E-1,-1.992327052E0,2.009479598E0
2.092226792E0,-3.274521165E-2,-1.027913742E-1,-1.957547228E0,1.960517653E0
2.102224792E0,-1.815388698E-2,-6.041091965E-3,-1.915724434E0,1.915819972E0
2.112223792E0,-3.866571849E-2,1.330409942E-1,-1.733207690E0,1.738736277E0
2.122221792E0,-7.064463425E-2,-1.206647136E-1,-1.381691211E0,1.388748084E0
2.132220792E0,-1.547538713E-2,8.832766506E-2,-1.426256935E0,1.429073164E0
2.142218792E0,-5.076556284E-2,-4.467035215E-2,-1.220695730E0,1.222567236E0
2.152217792E0,-9.542546310E-3,-2.872081294E-2,-1.189229524E0,1.189614562E0
2.162215792E0,-1.227801632E-1,-4.413592578E-2,-1.125739287E0,1.133274852E0
2.172213792E0,-1.164880110E-1,-1.233376038E-1,-1.198303818E0,1.210253552E0
2.182212792E0,-9.265223835E-3,-1.044136020E-1,-1.384627683E0,1.388589884E0
2.192210792E0,-3.276388619E-2,1.767514620E-2,-1.518417240E0,1.518873529E0
2.202209792E0,-1.227743160E-1,5.096847036E-2,-1.512854199E0,1.518683359E0
2.212207792E0,-1.417787353E-1,1.961537112E-1,-1.584692506E0,1.603068254E0
2.222206792E0,6.059241174E-2,-7.573294527E-2,-1.550104471E0,1.553135792E0
2.232204792E0,-3.655850988E-2,6.074056100E-2,-1.565828803E0,1.567432863E0
2.242202792E0,-9.477227429E-2,8.124112291E-2,-1.489045506E0,1.494268525E0
2.252201792E0,3.938858053E-2,-1.371683976E-1,-1.398349344E0,1.405612862E0
2.262199792E0,1.277013626E-2,-5.017760703E-2,-1.443730170E0,1.444658323E0
2.272198792E0,-6.192541245E-2,-1.793594572E-2,-1.433279441E0,1.434728689E0
2.282196792E0,3.328459902E-2,-1.014853895E-1,-1.429420863E0,1.433405439E0
2.292195792E0,-1.972099559E-2,1.378851566E-2,-1.427069113E0,1.427271976E0
2.302193792E0,-6.908063198E-2,-3.540282598E-2,-1.258406178E0,1.260798002E0
2.312191792E0,-5.795522612E-3,9.734186062E-2,-1.263392683E0,1.267150385E0
2.322190792E0,-6.622150797E-2,2.798467361E-2,-1.121093674E0,1.123396393E0
2.332188792E0,-4.518762974E-2,5.185199835E-2,-1.082978014E0,1.085159864E0
2.342187792E0,-5.582440937E-2,-7.742893931E-2,-9.631305581E-1,9.678492018E-1
2.352185792E0,-4.723135952E-2,-8.107228456E-2,-9.419162750E-1,9.465779344E-1
2.362184792E0,-4.626165362E-2,-8.543819949E-2,-9.055793381E-1,9.107764622E-1
2.372182792E0,6.403103136E-3,-5.382756238E-2,-9.228268701E-1,9.244175671E-1
2.382181792E0,2.337647382E-2,-1.032383208E-1,-8.554967666E-1,8.620204916E-1
2.392179792E0,-1.460762378E-3,-5.952841492E-2,-8.335147440E-1,8.356390336E-1
2.402177792E0,-5.476279255E-2,-2.631745884E-2,-8.053861284E-1,8.076746795E-1
2.412176792E0,-2.037827745E-3,-1.073742117E-1,-7.690146929E-1,7.764772836E-1
2.422174792E0,-3.152674327E-2,7.383617247E-4,-8.389158171E-1,8.395083257E-1
2.432173792E0,-3.978012471E-2,-3.942518501E-2,-9.017768937E-1,9.035144546E-1
2.442171792E0,-4.858778564E-2,-5.333236260E-3,-9.493667972E-1,9.506242854E-1
2.452170792E0,-4.867770486E-2,-1.270619604E-2,-9.646087343E-1,9.659197568E-1
2.462168792E0,-4.890406519E-2,2.092306893E-2,-9.499053258E-1,9.513934572E-1
2.472166792E0,-1.413138634E-2,-4.260587846E-2,-8.566106611E-1,8.577859767E-1
2.482165792E0,-1.188022658E-2,-3.539426072E-2,-7.237905729E-1,7.247528454E-1
2.492163792E0,-1.303022772E-2,-2.160702871E-2,-5.954558837E-1,5.959902348E-1
2.502162792E0,2.605700193E-2,-3.671014463E-2,-4.738642037E-1,4.759977790E-1
2.512160792E0,3.296660185E-3,2.610834779E-2,-3.853496379E-1,3.862471452E-1
2.522159792E0,3.063456779E-2,7.587767299E-4,-3.070144898E-1,3.085400289E-1
2.532157792E0,-1.072488986E-2,2.169436692E-2,-2.740344393E-1,2.751009683E-1
2.542156792E0,-1.210401049E-2,3.561221112E-2,-2.275900054E-1,2.306771493E-1
2.552154792E0,2.775326092E-3,4.845596747E-3,-1.094487673E-1,1.095911260E-1
2.562152792E0,-1.379230265E-3,-4.592010314E-3,-3.431730866E-3,5.896237070E-3
2.572151792E0,-8.392380718E-3,3.151969006E-4,3.762507856E-2,3.855097845E-2
2.582149792E0,-9.277978074E-3,-2.833203020E-2,1.775682449E-2,3.469999465E-2
2.592148792E0,-2.656262163E-2,-4.080659428E-2,5.042931139E-2,7.009897611E-2
2.602146792E0,-1.592085360E-2,-1.458336240E-2,1.205193007E-1,1.224379430E-1
2.612145792E0,1.057905665E-2,-2.912392136E-2,2.334167558E-1,2.354644371E-1
2.622143792E0,-2.294935299E-2,-2.716150899E-2,3.123331171E-1,3.143507538E-1
2.632141792E0,-3.574074022E-2,-2.982486547E-3,2.881092721E-1,2.903329957E-1
2.642140792E0,8.842634596E-3,-1.315502009E-2,2.520588487E-1,2.525567460E-1
2.652138792E0,-2.721199147E-2,2.554488177E-2,2.191419482E-1,2.222976089E-1
2.662137792E0,-3.723086659E-3,2.493908739E-2,1.953513819E-1,1.969720332E-1
2.672135792E0,2.895738535E-2,-4.376956117E-3,1.264922315E-1,1.298382553E-1
2.682134792E0,9.631460533E-5,6.128104472E-2,1.795972288E-2,6.385865144E-2
2.692132792E0,2.752319125E-2,2.471380056E-2,-9.449100494E-3,3.817831184E-2
2.702130792E0,4.250260659E-2,-2.699465321E-2,8.339883685E-3,5.103661948E-2
2.712129792E0,1.685606092E-3,2.019701377E-3,-4.333722353E-2,4.341699442E-2
2.722127792E0,2.560956202E-2,-5.225922951E-2,-1.352823508E-1,1.472691114E-1
2.732126792E0,1.447819931E-2,-5.463413096E-2,-1.933989966E-1,2.014886558E-1
2.742124792E0,-1.406911349E-2,-1.045960899E-2,-1.551131827E-1,1.561007457E-1
2.752123792E0,7.676571887E-3,-5.360426270E-2,-8.284978330E-2,9.897693332E-2
2.762121792E0,-5.365279002E-2,6.068880857E-2,-6.492280483E-2,1.038110011E-1
2.772119792E0,8.208723329E-3,-2.831011685E-4,-3.547213376E-2,3.641065171E-2
2.782118792E0,-2.740365224E-2,6.350832682E-2,-3.625273705E-5,6.916841075E-2
2.792116792E0,-5.449805986E-3,-8.559876038E-3,3.120366633E-2,3.281220284E-2
2.802115792E0,-3.366428431E-2,1.477883756E-2,-8.652709723E-3,3.776992803E-2
2.812113792E0,-1.494449649E-2,-5.906274815E-2,-7.889648080E-2,9.968149716E-2
2.822112792E0,5.644024909E-3,-7.398591600E-2,-1.784739786E-1,1.932840703E-1
2.832111375E0,-4.208718019E-2,-2.502949082E-2,-1.940685028E-1,2.001509179E-1
2.842110375E0,1.007615956E-2,-9.495852638E-2,-1.424551302E-1,1.714996060E-1
2.852108375E0,-3.297802219E-2,7.058365876E-3,-1.043043870E-1,1.096210546E-1
2.862106375E0,-1.157706672E-2,3.979218459E-2,-1.613580090E-1,1.665948783E-1
2.872105375E0,4.731228864E-2,-2.539480933E-2,-2.158639991E-1,2.224423861E-1
2.882103375E0,-5.038216822E-3,8.895410285E-3,-2.215708816E-1,2.218065994E-1
2.892102375E0,-3.047040721E-2,1.012673340E-2,-2.730749112E-1,2.749561849E-1
2.902100375E0,2.697028220E-4,-7.050107597E-2,-2.703863615E-1,2.794266611E-1
2.912099375E0,4.701501254E-2,-1.048945172E-1,-3.100497794E-1,3.306722499E-1
2.922097375E0,-3.979799526E-2,3.373879977E-2,-3.429719424E-1,3.469177717E-1
2.932095375E0,-1.678373817E-2,-1.449737179E-2,-2.753021157E-1,2.761939944E-1
2.942094375E0,1.552379111E-2,-5.146812407E-2,-2.073264796E-1,2.141826907E-1
2.952092375E0,-4.791400367E-2,2.893203675E-2,-2.122504199E-1,2.195063899E-1
2.962091375E0,-2.375025708E-2,-1.135194435E-2,-1.641816294E-1,1.662785278E-1
2.972089375E0,-1.017881474E-2,-2.509712209E-2,-9.141010702E-2,9.533772323E-2
2.982088375E0,-1.973369502E-2,7.526736986E-4,-2.117686093E-2,2.895590916E-2
2.992086375E0,-7.844112888E-3,1.670699804E-2,1.057872409E-1,1.073852607E-1
3.002085375E0,4.469470946E-2,-4.650674789E-2,2.361883360E-1,2.448375476E-1
3.012083375E0,7.912342586E-3,4.685442424E-2,2.646525818E-1,2.688846059E-1
3.022081375E0,1.314198263E-2,1.331513787E-2,3.853215712E-1,3.857754760E-1
3.032080375E0,4.292627390E-2,-9.320247048E-3,5.311370963E-1,5.329504171E-1
3.042078375E0,3.702493496E-3,3.998220996E-2,6.197668523E-1,6.210662096E-1
3.052077375E0,2.254987853E-2,2.360370210E-3,7.271065289E-1,7.274599458E-1
3.062075375E0,3.414708160E-2,-6.192470896E-3,8.015123481E-1,8.022633071E-1
3.072074375E0,4.624142591E-3,3.139775278E-2,9.179795283E-1,9.185279615E-1
3.082072375E0,4.156602882E-2,-2.754535586E-2,1.112584221E0,1.113701095E0
3.092070375E0,3.519912360E-2,-2.938285708E-2,1.404036346E0,1.404784820E0
3.102069375E0,2.279208116E-2,2.032318572E-4,1.748028628E0,1.748177223E0
3.112067375E0,6.009057445E-2,-3.392449911E-2,2.107884405E0,2.109013612E0
3.122066375E0,6.039806491E-2,-9.389449758E-3,2.406216365E0,2.406992580E0
3.132064375E0,4.894872330E-2,4.704450443E-3,2.629853067E0,2.630312770E0
3.142063375E0,6.928760514E-2,-1.204661641E-2,2.718615555E0,2.719525038E0
3.152061375E0,4.902378693E-2,3.645192153E-2,2.680738462E0,2.681434462E0
3.162059375E0,6.068591237E-2,3.399246843E-2,2.690904431E0,2.691803285E0
3.172058375E0,6.743915409E-2,2.164356924E-2,2.778154829E0,2.779057526E0
3.182056375E0,6.452486526E-2,5.700487542E-2,2.861654822E0,2.862949761E0
3.192055375E0,8.209030308E-2,3.859041732E-2,2.919245803E0,2.920654738E0
3.202053375E0,8.276565649E-2,1.495680305E-2,2.993147008E0,2.994328451E0
3.212052375E0,6.778722787E-2,2.618152021E-2,3.116737851E0,3.117584868E0
3.222050375E0,8.258368017E-2,-1.936400024E-2,3.202755071E0,3.203878130E0
3.232048375E0,7.054347742E-2,-1.063636850E-2,3.167519749E0,3.168323039E0
3.242047375E0,6.276693642E-2,2.956851531E-2,3.006389782E0,3.007190301E0
3.252045375E0,7.132031657E-2,5.386870303E-2,2.861426196E0,2.862821737E0
3.262044375E0,7.771702431E-2,5.060454514E-2,2.782171866E0,2.783717128E0
3.272042375E0,4.249973780E-2,1.198024321E-1,2.667578133E0,2.670605165E0
3.282041375E0,7.465238895E-2,2.565658186E-2,2.633805200E0,2.634987870E0
3.292039375E0,4.095238181E-2,4.448689576E-2,2.572783658E0,2.573494110E0
3.302037375E0,4.713190204E-2,-2.011323413E-3,2.515802541E0,2.516244799E0
3.312036375E0,6.635113344E-2,-6.774222715E-2,2.360473012E0,2.362376837E0
3.322034375E0,1.559879992E-2,-2.015756333E-1,2.411546686E0,2.420006917E0
3.332033375E0,-8.445087885E-2,1.525910227E-1,1.943088818E0,1.950899825E0
3.342031375E0,7.526738813E-2,-1.219618271E-1,1.966380617E0,1.971596459E0
3.352030375E0,-5.934315411E-2,-9.611221857E-2,1.948816166E0,1.952086990E0
3.362028375E0,-5.046797611E-2,-4.630307292E-3,1.780080725E0,1.780802023E0
3.372027375E0,-2.223381825E-2,-5.293880844E-2,1.683810412E0,1.684789116E0
3.382025375E0,1.154733729E-3,7.450253578E-2,1.548628634E0,1.550420139E0
3.392023375E0,1.218159573E-2,-1.296182900E-1,1.529922221E0,1.535451496E0
3.402022375E0,9.609281313E-2,-2.136561636E-2,1.210187699E0,1.214184741E0
3.412020375E0,5.711359251E-2,1.012872877E-1,9.435996884E-1,9.507373186E-1
3.422019375E0,1.355395917E-1,3.549448337E-2,8.551447642E-1,8.665468291E-1
3.432017375E0,7.407969072E-2,-1.023630017E-2,8.213349938E-1,8.247325351E-1
3.442016375E0,1.274419472E-1,2.433212585E-2,6.595390284E-1,6.721794643E-1
3.452014375E0,9.638954105E-2,6.146647912E-2,5.796192849E-1,5.907855678E-1
3.462012375E0,7.868457405E-2,2.044129947E-2,5.658654642E-1,5.716754608E-1
3.472011375E0,1.446350818E-2,5.751700471E-2,5.009204400E-1,5.044191571E-1
3.482009375E0,6.307797175E-2,-6.124392861E-2,4.133887911E-1,4.226345252E-1
3.492008375E0,6.065682247E-3,4.344603199E-2,3.433660448E-1,3.461568877E-1
3.502006375E0,-3.956589734E-2,1.364459193E-2,3.693066323E-1,3.716705850E-1
3.512005375E0,-6.472147789E-2,3.099798595E-2,3.389701080E-1,3.464830140E-1
3.522003375E0,8.716882914E-3,-1.229429076E-1,2.646350402E-1,2.919291816E-1
3.532001375E0,-9.010919290E-2,6.004503013E-2,9.375951827E-2,1.432337933E-1
3.542000375E0,-7.350708386E-2,-5.614431602E-2,8.426247060E-2,1.251224982E-1
3.551998375E0,-3.673542470E-2,-4.171262948E-2,-2.476880550E-2,6.085169358E-2
3.561997375E0,-1.114095580E-3,-2.777549633E-2,-2.240536094E-1,2.257714315E-1
3.571995375E0,-5.522658639E-3,-5.358119817E-2,-3.736417580E-1,3.775044475E-1
3.581994375E0,-4.421390388E-3,6.855328165E-3,-5.931286919E-1,5.931847852E-1
3.591992375E0,8.164193127E-3,1.354842807E-2,-7.301336324E-1,7.303049604E-1
3.601990375E0,5.937383372E-2,7.797600115E-2,-1.037198408E0,1.041818625E0
3.611989375E0,1.041591933E-2,4.690110604E-2,-1.192196401E0,1.193164055E0
3.621987375E0,-6.126253920E-2,1.032703526E-1,-1.306638106E0,1.312143667E0
3.631986375E0,-3.253975511E-3,3.556712360E-2,-1.382777624E0,1.383238796E0
3.641984375E0,7.493268985E-2,-2.312361372E-2,-1.475114515E0,1.477197496E0
3.651983375E0,-4.056655694E-2,-2.548398850E-2,-1.424062475E0,1.424868068E0
3.661981375E0,-7.985979130E-2,-2.289483227E-2,-1.348766710E0,1.351322832E0
3.671979375E0,-1.028134383E-1,-5.343242765E-2,-1.269871398E0,1.275146656E0
3.681978375E0,7.682850335E-2,-6.421578967E-2,-1.454739307E0,1.458181312E0
3.691976375E0,-2.206799487E-2,-4.961189806E-2,-1.504314925E0,1.505294566E0
3.701975375E0,-2.540667278E-1,1.091193498E-1,-1.460627453E0,1.486569706E0
3.711973375E0,5.537313223E-2,8.863118123E-2,-1.666338347E0,1.669612278E0
3.721972375E0,7.105139947E-2,-2.380520629E-1,-1.519112474E0,1.539291978E0
3.731970375E0,-1.482241759E-1,8.204501457E-2,-1.625741129E0,1.634544588E0
3.741969375E0,-1.049722852E-1,-1.729969648E-1,-1.451106432E0,1.465147435E0
3.751967375E0,-8.769800216E-3,-2.156349893E-1,-1.427493621E0,1.443715137E0
3.761965375E0,-6.160224415E-2,-1.169388678E-1,-1.425881544E0,1.431994313E0
3.771964375E0,-1.519637079E-1,9.824952208E-2,-1.553000012E0,1.563507267E0
3.781962375E0,-2.086235382E-2,-2.297482036E-2,-1.590761331E0,1.591064012E0
3.791961375E0,3.104392771E-2,-2.143175842E-2,-1.584076794E0,1.584525902E0
3.801959375E0,-1.327281591E-1,1.170907493E-1,-1.530246742E0,1.540448668E0
3.811958375E0,-3.125632782E-2,-6.469643536E-2,-1.522222608E0,1.523917404E0
3.821956375E0,2.848498514E-2,5.248479042E-3,-1.619142546E0,1.619401595E0
3.831954125E0,2.135987878E-3,-6.723635620E-2,-1.477309560E0,1.478840365E0
3.841953125E0,7.252648752E-3,-3.240984185E-2,-1.472148222E0,1.472522797E0
3.851951125E0,-3.713619651E-2,9.231910694E-3,-1.539436811E0,1.539912341E0
3.861950125E0,3.468783941E-2,8.536690457E-3,-1.628588138E0,1.628979879E0
3.871948125E0,-3.028382622E-2,2.261385986E-2,-1.650678919E0,1.651111562E0
3.881947125E0,-4.899827845E-2,7.740639098E-2,-1.802997133E0,1.805323029E0
3.891945125E0,-3.468213838E-2,4.460436084E-2,-1.961747868E0,1.962561361E0
3.901943125E0,-3.378901273E-2,-2.109309500E-2,-2.025136364E0,2.025528056E0
3.911942125E0,-1.050258603E-1,-4.924127595E-2,-1.996445246E0,1.999812180E0
3.921940125E0,-8.964580106E-2,-8.646873470E-2,-2.018771085E0,2.022609677E0
3.931939125E0,-1.738930872E-2,-1.394265649E-1,-2.021757842E0,2.026634384E0
3.941937125E0,-5.830713714E-2,-6.862642666E-2,-2.006450416E0,2.008470209E0
3.951936125E0,-4.476586277E-2,1.550524447E-2,-2.086021081E0,2.086558973E0
3.961934125E0,1.170389649E-2,3.546917360E-2,-2.168867356E0,2.169188939E0
3.971932125E0,6.170098901E-2,1.000847575E-2,-2.196921712E0,2.197810772E0
3.981931125E0,4.880214091E-2,4.631276651E-2,-2.214944585E0,2.215966163E0
3.991929125E0,-1.981000118E-2,6.233626158E-2,-2.192395967E0,2.193371451E0
4.001928125E0,7.937253552E-2,-1.153128485E-2,-2.254423231E0,2.255849524E0
4.011926125E0,2.205637353E-2,-3.749185797E-2,-2.254029713E0,2.254449394E0
4.021925125E0,-5.950033458E-2,6.805087334E-2,-2.261718217E0,2.263523913E0
4.031923125E0,-2.431215623E-2,-3.220283214E-3,-2.229438078E0,2.229572963E0
4.041921125E0,-2.818617415E-2,-4.467142110E-2,-2.215563805E0,2.216193351E0
4.051920125E0,-1.188332743E-1,2.189355141E-2,-2.214258707E0,2.217553222E0
4.061918125E0,-1.008478054E-1,-3.817157852E-2,-2.218487998E0,2.221107009E0
4.071917125E0,-6.709166503E-2,-1.350787032E-1,-2.258484707E0,2.263515124E0
4.081915125E0,-1.329839748E-1,-3.832936198E-2,-2.336343307E0,2.340438832E0
4.091914125E0,-1.235257380E-1,-4.246496513E-2,-2.442346310E0,2.445836744E0
4.101912125E0,-1.298259301E-1,-3.272517123E-2,-2.471257868E0,2.474882049E0
4.111911125E0,-1.474893636E-1,7.503830062E-2,-2.575161136E0,2.580472580E0
4.121909125E0,-1.048613525E-1,1.059850777E-1,-2.613975538E0,2.618223988E0
4.131907125E0,1.333088972E-1,-2.594298671E-1,-2.523175880E0,2.539978669E0
4.141906125E0,-1.985160777E-1,1.617355747E-1,-2.679533935E0,2.691740912E0
4.151904125E0,-1.435473901E-1,-1.656537573E-1,-2.511962675E0,2.521508180E0
4.161903125E0,-9.643410780E-2,-1.247244355E-1,-2.523562966E0,2.528482898E0
4.171901125E0,-1.498429410E-2,-1.156727721E-2,-2.437138195E0,2.437211709E0
4.181900125E0,-3.070519120E-4,-1.714531354E-1,-2.104032260E0,2.111006400E0
4.191898125E0,-7.188782539E-2,1.342687359E-1,-2.159698337E0,2.165061861E0
4.201896125E0,5.472306803E-2,-5.520264935E-3,-2.133964741E0,2.134673419E0
4.211895125E0,-1.442676209E-2,-3.293766270E-2,-1.931927653E0,1.932262269E0
4.221893125E0,-1.099779769E-1,8.005799364E-2,-1.661940656E0,1.667498481E0
4.231892125E0,-3.621447433E-2,-1.517518925E-1,-1.340597565E0,1.349645122E0
4.241890125E0,-3.223193575E-2,-1.574332482E-1,-1.181196034E0,1.192077261E0
4.251889125E0,-7.077034939E-2,-6.914291396E-2,-1.150965929E0,1.155210697E0
4.261887125E0,1.626765561E-1,7.769761886E-4,-1.301741062E0,1.311866632E0
4.271885125E0,1.556995122E-1,-1.042569149E-1,-1.179245988E0,1.194040595E0
4.281884125E0,-1.577658634E-1,1.223262365E-1,-9.694970065E-1,9.898374723E-1
4.291882125E0,1.274190700E-1,-1.260700351E-2,-7.656045967E-1,7.762376920E-1
4.301881125E0,3.017254639E-3,-7.401506072E-2,-4.286406684E-1,4.349944317E-1
4.311879125E0,-1.831976701E-1,3.457370907E-1,-4.905866557E-1,6.275115848E-1
4.321878125E0,1.370120851E-1,-1.290628045E-2,-4.678234452E-1,4.876450137E-1
4.331876125E0,1.800627402E-1,1.761422095E-2,-4.379295552E-1,4.738302929E-1
4.341874125E0,-2.441174528E-1,8.765866136E-2,-1.099621528E-1,2.817251262E-1
4.351873125E0,1.739511939E-1,-2.433556337E-3,-2.508239168E-1,3.052500242E-1
4.361871125E0,-5.830373844E-2,-2.413757665E-1,8.927821219E-2,2.638791120E-1
4.371870125E0,-1.880773360E-2,6.657044970E-2,5.187298894E-2,8.646480555E-2
4.381868125E0,-1.149618511E-1,-1.377972474E-1,3.219506174E-1,3.685871792E-1
4.391867125E0,4.655646292E-2,-1.142947569E-1,2.749951369E-1,3.014185147E-1
4.401865125E0,-2.478900581E-1,2.182729058E-1,4.271619076E-1,5.399628113E-1
4.411863125E0,-2.183478232E-2,-1.039083203E-1,6.003201824E-1,6.096376122E-1
4.421862125E0,-1.749261075E-1,2.472058059E-1,5.251793683E-1,6.062369359E-1
4.431860125E0,-2.553259805E-3,-8.350456182E-2,6.005207419E-1,6.063041254E-1
4.441859125E0,1.730624171E-2,8.395974929E-2,4.961099356E-1,5.034618295E-1
4.451857125E0,7.191278569E-2,-1.023279550E-1,4.777888548E-1,4.938872836E-1
4.461856125E0,1.327719584E-1,-1.098356246E-1,3.120366633E-1,3.564535546E-1
4.471854125E0,1.012167830E-1,-4.800624807E-2,2.085666740E-1,2.367477445E-1
4.481852125E0,7.907083746E-2,4.134790940E-2,2.006086135E-1,2.195578802E-1
4.491851125E0,1.009920307E-1,7.684430910E-2,1.278423536E-1,1.801335767E-1
4.501849125E0,5.340943621E-2,1.622921565E-1,-4.566792369E-2,1.768526822E-1
4.511848125E0,8.330464186E-2,1.080097493E-1,-9.208896875E-2,1.645786969E-1
4.521846125E0,4.996977506E-2,7.630708246E-2,-2.549795330E-2,9.470952896E-2
4.531845125E0,3.780060466E-2,3.949809248E-2,4.693384588E-2,7.205394445E-2
4.541843125E0,-4.966855209E-2,-6.628706531E-2,8.238843799E-2,1.168280566E-1
4.551841125E0,9.535460215E-2,-1.956682553E-2,-1.344216406E-2,9.826521555E-2
4.561840125E0,-3.491909679E-2,-1.871857087E-1,2.571634680E-1,3.199857530E-1
4.571838125E0,-1.045713306E-1,9.252034709E-2,1.473960274E-1,2.030289800E-1
4.581837125E0,2.995959811E-2,-1.693738656E-1,3.304010135E-1,3.724914946E-1
4.591835125E0,3.589993067E-2,-1.276563025E-1,3.154941219E-1,3.422301529E-1
4.601834125E0,-4.037469517E-2,2.211538838E-1,-1.679612696E-2,2.254357252E-1
4.611832125E0,6.105779529E-2,-2.628121707E-1,3.862968868E-1,4.711937777E-1
4.621831125E0,-8.819888927E-2,1.930111435E-1,3.932731998E-1,4.468737576E-1
4.631829125E0,-1.169109108E-1,-1.847291838E-1,6.295767260E-1,6.664532139E-1
4.641827125E0,-1.885639340E-2,-1.493488970E-1,5.982561153E-1,6.169043979E-1
4.651826125E0,-1.208447713E-1,1.232885420E-2,5.197829729E-1,5.337881587E-1
4.661824125E0,2.151067299E-1,-1.987382719E-1,2.311088598E-1,3.730671669E-1
4.671823125E0,-2.960079834E-2,7.146902771E-2,1.331083560E-1,1.539540958E-1
4.681821125E0,-1.750542346E-1,1.703464951E-1,3.698381442E-1,4.432179670E-1
4.691819125E0,2.857847846E-1,-1.026485560E-2,2.607542431E-1,3.870026947E-1
4.701818125E0,-8.845470496E-2,2.202704060E-1,3.546371377E-1,4.267444036E-1
4.711816125E0,5.358532777E-2,7.238778974E-2,2.069247758E-1,2.256750813E-1
4.721815125E0,2.563381883E-1,-6.780044806E-2,1.193732464E-1,2.907853839E-1
4.731813125E0,-1.296167277E-1,1.067932543E-1,3.771828318E-1,4.128827725E-1
4.741812125E0,2.455916638E-1,-1.922826352E-1,4.008856899E-1,5.079342610E-1
4.751810125E0,3.418229280E-2,2.038338463E-2,3.994373345E-1,4.014151165E-1
4.761809125E0,2.985860573E-2,4.616305951E-2,4.463548082E-1,4.497278946E-1
4.771807125E0,5.464794958E-2,-3.843644368E-3,4.593028826E-1,4.625584395E-1
4.781805125E0,-5.169687811E-3,4.473359801E-2,3.406821728E-1,3.436454034E-1
4.791804125E0,-3.002833944E-2,1.315168261E-1,1.786575812E-1,2.238680595E-1
4.801802125E0,-5.966133401E-3,-2.968587989E-3,8.969745755E-2,8.994465606E-2
4.811801125E0,-3.389910484E-2,7.610790711E-2,1.456430322E-1,1.677899153E-1
4.821799125E0,-8.209973171E-2,-3.820362400E-2,3.499435776E-1,3.614697641E-1
4.831797417E0,2.096990604E-2,-8.807598811E-2,2.994832760E-1,3.128695403E-1
4.841795417E0,-1.217632776E-1,-3.510823138E-2,2.635538900E-1,2.924372353E-1
4.851793417E0,-1.500969294E-2,-1.503172507E-2,2.259919614E-1,2.269881280E-1
4.861792417E0,4.125680247E-2,-8.428496411E-2,3.563801926E-1,3.685280459E-1
4.871790417E0,-7.478543138E-2,1.266192348E-1,2.649443579E-1,3.030194782E-1
4.881789417E0,5.761457099E-2,-6.677775177E-2,2.491060048E-1,2.642584125E-1
4.891787417E0,1.273158118E-2,2.631809381E-2,2.036386406E-1,2.057265933E-1
4.901786417E0,-1.539405601E-2,5.338360797E-2,1.653586739E-1,1.744427631E-1
4.911784417E0,9.053108778E-2,-5.895471627E-2,1.936960351E-1,2.217874894E-1
4.921782417E0,2.446913570E-2,1.051971837E-1,1.362611747E-1,1.738743621E-1
4.931781417E0,7.182787316E-2,-1.639011321E-2,2.743244612E-1,2.840453999E-1
4.941779417E0,7.174341744E-2,1.079900560E-2,3.731693029E-1,3.801566324E-1
4.951778417E0,5.856602261E-2,-2.487837684E-2,3.796556193E-1,3.849510383E-1
4.961776417E0,5.241800426E-2,-5.298640843E-2,3.172909713E-1,3.259275489E-1
4.971775417E0,4.040513724E-2,-4.105118605E-2,1.983515882E-1,2.065457033E-1
4.981773417E0,7.505584683E-2,-7.879479406E-2,2.677212006E-1,2.889924583E-1
4.991771417E0,-1.631903071E-3,5.775995652E-2,3.201806653E-1,3.253529377E-1
5.001770417E0,6.073672833E-2,-3.523262632E-2,4.229343706E-1,4.287234190E-1
5.011768417E0,-2.784338113E-2,1.196865476E-1,4.339253819E-1,4.509893132E-1
5.021767417E0,9.226898991E-2,-5.395055491E-2,5.486454141E-1,5.589597654E-1
5.031765417E0,-3.336423079E-2,7.587857292E-2,5.916633797E-1,5.974414487E-1
5.041764417E0,2.112260973E-2,3.882196249E-2,5.349763781E-1,5.367988772E-1
5.051762417E0,9.153404972E-2,-9.678770903E-2,5.757320559E-1,5.909430963E-1
5.061760417E0,-5.216576999E-2,1.111662955E-1,4.358046770E-1,4.527747004E-1
5.071759417E0,-4.686870424E-2,-9.232894214E-2,5.174177742E-1,5.276764748E-1
5.081757417E0,7.173411671E-2,-7.216558641E-2,4.999217355E-1,5.101719289E-1
5.091756417E0,-4.754197458E-2,3.321087385E-2,5.744842601E-1,5.774039891E-1
5.101754417E0,-5.562629839E-2,1.378376480E-1,7.256751305E-1,7.407414510E-1
5.111753417E0,8.195832046E-2,-1.898285314E-2,8.973587376E-1,9.012936364E-1
5.121751417E0,-6.298547611E-3,1.071613183E-1,9.950855917E-1,1.000858908E0
5.131749417E0,3.284393823E-2,-2.171469970E-2,1.091148913E0,1.091859058E0
5.141748417E0,5.191510716E-2,-1.658737679E-2,1.130177323E0,1.131490655E0
5.151746417E0,1.756695444E-2,-1.667831470E-3,1.146296343E0,1.146432154E0
5.161745417E0,-1.314114209E-2,2.367418389E-2,1.235907846E0,1.236204417E0
5.171743417E0,7.552086493E-2,-1.929382908E-2,1.337343004E0,1.339612617E0
5.181742417E0,1.613352779E-2,3.978108858E-2,1.473950334E0,1.474575333E0
5.191740417E0,3.560579745E-2,-8.851958164E-3,1.626722292E0,1.627135994E0
5.201739417E0,5.155564958E-2,-1.655748747E-2,1.810769836E0,1.811579293E0
5.211737417E0,5.048111407E-2,-1.791600580E-2,2.019817151E0,2.020527320E0
5.221735417E0,5.547425251E-2,5.778334995E-2,2.158657533E0,2.160143202E0
5.231734417E0,9.877361532E-2,-2.810725958E-2,2.229086076E0,2.231450421E0
5.241732417E0,7.711382920E-2,5.149568364E-2,2.195926516E0,2.197883439E0
5.251731417E0,8.604314877E-2,-2.641899026E-2,2.245851797E0,2.247654707E0
5.261729417E0,7.346492909E-2,4.963594473E-2,2.281410470E0,2.283132619E0
5.271728417E0,1.048074851E-1,5.420094822E-4,2.423097861E0,2.425363508E0
5.281726417E0,9.453242881E-2,1.408490097E-2,2.619577755E0,2.621320732E0
5.291724417E0,5.718586044E-2,-5.580204834E-2,2.837018749E0,2.838143666E0
5.301723417E0,1.627285598E-2,-4.460338326E-3,2.943432226E0,2.943480588E0
5.311721417E0,7.951685211E-2,9.952568603E-2,2.592702783E0,2.595830505E0
5.321720417E0,1.510525472E-1,1.880232858E-1,2.598074035E0,2.609244780E0
5.331718417E0,7.436117934E-2,2.149743909E-2,2.842789950E0,2.843843601E0
5.341717417E0,5.023578683E-2,1.073447198E-1,2.906532787E0,2.908948154E0
5.351715417E0,1.497276412E-2,-5.744304200E-2,3.064589458E0,3.065164340E0
5.361713417E0,1.770600853E-1,-2.206330978E-1,3.102750142E0,3.115619951E0
5.371712417E0,3.410726571E-2,2.259896773E-2,3.150796128E0,3.151061767E0
5.381710417E0,6.170435116E-2,-1.033508431E-1,3.344496256E0,3.346661625E0
5.391709417E0,6.343119839E-2,1.013258519E-1,3.383569105E0,3.385680188E0
5.401707417E0,6.494557243E-2,5.336634954E-2,3.561701022E0,3.562692811E0
5.411706417E0,3.313202323E-2,2.151774629E-1,3.588642068E0,3.595240042E0
5.421704417E0,8.514563771E-2,1.098525084E-1,3.632938820E0,3.635596487E0
5.431702417E0,1.027226055E-1,8.030310161E-2,3.602689419E0,3.605048068E0
5.441701417E0,8.703282656E-2,-1.892440839E-2,3.690837949E0,3.691912460E0
5.451699417E0,1.027878568E-1,-3.782055372E-2,3.718813367E0,3.720425863E0
5.461698417E0,1.232907165E-1,-2.236506997E-2,3.623889084E0,3.626054728E0
5.471696417E0,1.108278697E-1,-3.118577294E-2,3.473581143E0,3.475488646E0
5.481695417E0,8.276991399E-2,1.153923889E-1,3.267284358E0,3.270368991E0
5.491693417E0,9.498807309E-2,6.511799677E-3,3.152286583E0,3.153724122E0
5.501691417E0,4.070977718E-2,8.743541650E-2,2.947620587E0,2.949198088E0
5.511690417E0,7.198196556E-3,5.362599790E-2,2.704189889E0,2.704731136E0
5.521688417E0,1.410063364E-2,-7.390173437E-2,2.488606557E0,2.489743539E0
5.531687417E0,3.140300157E-2,-2.925743704E-1,2.631255814E0,2.647658035E0
5.541685417E0,-3.450686809E-2,2.826030771E-1,1.887456654E0,1.908807964E0
5.551684417E0,1.791462623E-1,1.922173109E-1,1.680889728E0,1.701302782E0
5.561682417E0,1.113952871E-1,-3.869116484E-1,2.026994024E0,2.066594858E0
5.571680417E0,-6.342686780E-2,3.907965751E-1,1.244150666E0,1.305624682E0
5.581679417E0,2.978993749E-2,-3.287970857E-1,1.714064491E0,1.745569260E0
5.591677417E0,2.320601835E-1,5.188714560E-2,8.367213571E-1,8.698544902E-1
5.601676417E0,-6.035543505E-2,1.821892081E-1,8.335960203E-1,8.554051737E-1
5.611674417E0,-3.696401428E-2,-4.895943101E-2,8.250777966E-1,8.273552651E-1
5.621673417E0,2.648447177E-1,-1.707313515E-1,4.475803846E-1,5.473756658E-1
5.631671417E0,-3.118497351E-2,1.269769748E-1,1.203386217E-1,1.776992926E-1
5.641669417E0,-3.750340166E-2,-9.908790316E-2,2.748284912E-1,2.945430652E-1
5.651668417E0,3.509517107E-3,1.993365700E-1,-8.547284424E-2,2.169170163E-1
5.661666417E0,1.951529237E-1,-2.876548521E-1,-1.582437819E-1,3.819307164E-1
5.671665417E0,-2.511198590E-1,3.388230506E-1,-4.206697440E-1,5.956721218E-1
5.681663417E0,-4.080400871E-2,-1.758405023E-1,-3.242766398E-1,3.711336532E-1
5.691662417E0,7.256723531E-2,3.194000894E-2,-7.109489179E-1,7.153562271E-1
5.701660417E0,-2.643485997E-2,-8.182648402E-2,-8.069333017E-1,8.115021434E-1
5.711658417E0,-3.410076069E-2,2.228182206E-1,-1.119069368E0,1.141545913E0
5.721657417E0,7.450830990E-2,-2.080487203E-1,-1.139617068E0,1.160845735E0
5.731655417E0,-1.550006786E-1,1.218237962E-1,-1.503849487E0,1.516716693E0
5.741654417E0,-1.990476262E-2,-1.731209989E-1,-1.622881840E0,1.632210939E0
5.751652417E0,-2.702966798E-3,9.330558475E-3,-1.790414509E0,1.790440862E0
5.761651417E0,-3.508985376E-2,2.103580827E-2,-1.816635178E0,1.817095808E0
5.771649417E0,-1.461266517E-1,1.059528632E-1,-1.909765536E0,1.918276156E0
5.781647417E0,-4.618812488E-2,-7.770738554E-2,-1.986869845E0,1.988925228E0
5.791646417E0,1.544275235E-2,-7.202160786E-2,-2.112921197E0,2.114204714E0
5.801644417E0,-1.124426514E-1,1.807309491E-1,-2.387150348E0,2.396621333E0
5.811643417E0,6.243337104E-2,-1.190161003E-1,-2.392090661E0,2.395863203E0
5.821641417E0,-4.606295792E-2,4.494899939E-2,-2.438333366E0,2.439182611E0
5.831640625E0,8.686492011E-2,-7.165726237E-2,-2.286833178E0,2.289603953E0
5.841638625E0,4.098291524E-2,2.855802509E-2,-2.276939689E0,2.277487543E0
5.851636625E0,4.266165085E-2,-1.004044700E-2,-2.215103045E0,2.215536577E0
5.861635625E0,3.594108045E-2,-8.253199855E-3,-2.109260840E0,2.109583174E0
5.871633625E0,7.478333004E-3,3.906279012E-2,-2.082151979E0,2.082531798E0
5.881632625E0,7.371511683E-4,8.559364406E-4,-2.047255796E0,2.047256107E0
5.891630625E0,-4.094074219E-2,7.098567768E-3,-1.986016737E0,1.986451362E0
5.901629625E0,-5.883757096E-2,7.237797738E-3,-1.857563934E0,1.858509622E0
5.911627625E0,-3.150554711E-2,-4.203911425E-2,-1.758895678E0,1.759680054E0
5.921625625E0,-8.639485879E-2,-2.138812814E-2,-1.734616869E0,1.736898732E0
5.931624625E0,-5.110758841E-2,-9.890790028E-2,-1.705533403E0,1.709163230E0
5.941622625E0,-4.346628254E-2,-3.661154595E-2,-1.699497907E0,1.700447841E0
5.951621625E0,-4.144952305E-2,-3.984262596E-2,-1.652747664E0,1.653747362E0
5.961619625E0,-2.547726877E-2,-3.843379417E-2,-1.626049862E0,1.626703538E0
5.971618625E0,-4.373187404E-2,-1.181222758E-2,-1.735270003E0,1.735861166E0
5.981616625E0,-1.732988639E-2,4.362457763E-2,-1.782375172E0,1.782993181E0
5.991614625E0,2.137888223E-2,1.006702557E-2,-1.651503376E0,1.651672426E0
6.001613625E0,1.485291447E-2,2.963343768E-3,-1.564341856E0,1.564415173E0
6.011611625E0,-6.677251669E-2,6.143369816E-2,-1.581074249E0,1.583675613E0
6.021610625E0,-1.339240791E-2,-1.283537383E-2,-1.595715677E0,1.595823494E0
6.031608625E0,5.391827188E-3,-3.777205837E-2,-1.584163917E0,1.584623336E0
6.041607625E0,-4.257200573E-2,8.191291317E-3,-1.614976990E0,1.615558773E0
6.051605625E0,-3.933610177E-2,7.114158820E-3,-1.653722979E0,1.654206043E0
6.061603625E0,-1.369072555E-2,-3.053531816E-2,-1.686634617E0,1.686966560E0
6.071602625E0,-3.976358805E-2,1.902644459E-2,-1.841694006E0,1.842221474E0
6.081600625E0,-6.550023565E-2,1.455575486E-2,-1.929539065E0,1.930705352E0
6.091599625E0,-4.408592295E-2,-7.335928178E-3,-2.007962506E0,2.008459811E0
6.101597625E0,-4.068611423E-2,-2.075413465E-2,-2.037294479E0,2.037806391E0
6.111596625E0,-4.139603930E-2,-3.922338755E-2,-2.071866726E0,2.072651403E0
6.121594625E0,-5.281702191E-2,-4.245428026E-3,-2.175742512E0,2.176387636E0
6.131593625E0,-3.433854137E-2,3.054814777E-2,-2.331564378E0,2.332017318E0
6.141591625E0,1.880976185E-3,-7.996151458E-2,-2.471968305E0,2.473261951E0
6.151589625E0,-7.001775792E-2,1.308582652E-2,-2.669258038E0,2.670208269E0
6.161588625E0,-5.522305978E-2,-6.878135503E-2,-2.744253257E0,2.745670483E0
6.171586625E0,-7.880880911E-2,-7.321302830E-2,-2.800979435E0,2.803044197E0
6.181585625E0,-8.668367470E-2,-2.280784124E-3,-2.879109930E0,2.880415465E0
6.191583625E0,-6.881997406E-2,-3.963751660E-2,-2.865917442E0,2.867017633E0
6.201581625E0,-4.955705300E-2,-2.640985399E-2,-2.817250482E0,2.817810082E0
6.211580625E0,-7.781670107E-2,2.126125270E-2,-2.789080936E0,2.790247291E0
6.221578625E0,-4.143486846E-2,-3.410387159E-2,-2.865239750E0,2.865742268E0
6.231577625E0,-1.056010801E-2,-6.941647686E-2,-2.969686224E0,2.970516190E0
6.241575625E0,-4.286020037E-2,-4.737519189E-3,-3.042991013E0,3.043296526E0
6.251574625E0,-3.194485573E-2,-2.739714264E-2,-2.952082597E0,2.952382553E0
6.261572625E0,-2.022434950E-2,-3.433770540E-2,-2.794264492E0,2.794548650E0
6.271571625E0,-2.754376614E-2,-1.417538663E-4,-2.645576230E0,2.645719613E0
6.281569625E0,-2.673001645E-2,1.040537607E-2,-2.540292435E0,2.540454373E0
6.291567625E0,-5.106610972E-3,-3.388391578E-2,-2.472579923E0,2.472817356E0
6.301566625E0,-3.041390849E-2,1.328981212E-2,-2.491394509E0,2.491615585E0
6.311564625E0,-5.813511936E-2,5.390662313E-3,-2.463210930E0,2.463902765E0
6.321563625E0,-3.848789005E-2,-2.240171100E-2,-2.458974037E0,2.459377252E0
6.331561625E0,-5.320997307E-2,-2.172167982E-2,-2.444260104E0,2.444935702E0
6.341560625E0,-9.487509392E-2,5.068827909E-3,-2.270280295E0,2.272267501E0
6.351558625E0,-8.010484446E-2,-2.462623394E-3,-1.912033671E0,1.913712520E0
6.361556625E0,-3.869162897E-2,-1.531280712E-3,-1.618007017E0,1.618470294E0
6.371555625E0,-4.920890613E-2,4.781583440E-3,-1.551062245E0,1.551850014E0
6.381553625E0,-5.283781607E-2,2.813845995E-2,-1.655071347E0,1.656153608E0
6.391552625E0,-3.511698849E-2,-1.590731821E-2,-1.798151545E0,1.798564768E0
6.401550625E0,-4.741043050E-2,-2.493274224E-2,-1.703228431E0,1.704070561E0
6.411549625E0,-2.510876628E-2,1.420853304E-2,-1.440808316E0,1.441097129E0
6.421547625E0,-2.467853911E-3,-6.036327397E-3,-1.146809728E0,1.146828270E0
6.431545625E0,1.895541234E-2,-8.373829513E-3,-9.237682718E-1,9.240006757E-1
6.441544625E0,2.624299821E-2,4.502104805E-3,-6.886102152E-1,6.891248017E-1
6.451542625E0,3.442559179E-2,3.060464649E-3,-4.110943437E-1,4.125446003E-1
6.461541625E0,6.039870445E-2,5.347141670E-4,-2.385137737E-1,2.460429021E-1
6.471539625E0,5.897847058E-2,-1.227503698E-2,-1.431813544E-1,1.553384588E-1
6.481538625E0,2.514759544E-2,9.996701377E-3,-5.519069910E-2,6.146827525E-2
6.491536625E0,3.522920022E-2,5.374322087E-4,5.000714242E-2,6.117270367E-2
6.501534625E0,1.504837593E-2,1.564445389E-3,2.674686009E-1,2.678961619E-1
6.511533625E0,3.325609384E-2,1.326595274E-2,4.037876630E-1,4.053719651E-1
6.521531625E0,1.666379716E-2,-4.382958650E-3,6.158474636E-1,6.160884603E-1
6.531530625E0,2.718098296E-2,2.686125903E-2,7.415327793E-1,7.425167984E-1
6.541528625E0,2.834202072E-2,5.541936178E-3,8.305373418E-1,8.310392646E-1
6.551527625E0,4.609137174E-2,-1.682974845E-3,6.262940991E-1,6.279900839E-1
6.561525625E0,3.039090335E-4,5.127108204E-3,3.460101557E-1,3.460482733E-1
6.571523625E0,-1.576299705E-3,7.623586063E-3,4.140559584E-1,4.141291350E-1
6.581522625E0,6.178551782E-3,-9.557977477E-3,5.638300484E-1,5.639449024E-1
6.591520625E0,1.831061063E-2,-2.263623916E-2,5.651082498E-1,5.658577664E-1
6.601519625E0,-1.871006683E-2,1.807372531E-2,4.331658286E-1,4.339462653E-1
6.611517625E0,1.003013100E-2,-3.098371052E-3,3.016759819E-1,3.018585786E-1
6.621516625E0,2.660921663E-3,1.336503792E-2,1.294778198E-1,1.301929743E-1
6.631514625E0,3.426007904E-2,-3.284805184E-2,6.416383624E-2,7.981068479E-2
6.641512625E0,-1.564775208E-2,4.212273400E-2,3.045294231E-1,3.078268124E-1
6.651511625E0,1.131207822E-2,-1.684888895E-4,4.342820621E-1,4.344293969E-1
6.661509625E0,5.218130166E-2,-8.867414456E-3,3.233440089E-1,3.276474743E-1
6.671508625E0,2.618081672E-2,-9.219624689E-3,2.727346033E-1,2.741433940E-1
6.681506625E0,-1.184382766E-2,5.566141823E-2,1.736348230E-1,1.827225259E-1
6.691505625E0,4.507477848E-2,-4.835853824E-2,2.088140112E-1,2.190287085E-1
6.701503625E0,1.803337952E-2,5.987460663E-2,2.688538063E-1,2.760299629E-1
6.711501625E0,9.611159731E-3,4.551189439E-3,2.685743093E-1,2.687847603E-1
6.721500625E0,1.571510470E-2,5.545483336E-3,3.182961076E-1,3.187320647E-1
6.731498625E0,3.988667194E-2,-3.364199409E-2,3.913798714E-1,3.948429233E-1
6.741497625E0,7.283200454E-3,5.023759124E-2,2.951727086E-1,2.995059073E-1
6.751495625E0,3.220993560E-2,-4.365589678E-2,2.190279275E-1,2.256469594E-1
6.761494625E0,5.589846801E-3,4.689479744E-2,2.021610492E-1,2.076040901E-1
6.771492625E0,4.060772499E-2,4.831323603E-3,4.652202648E-1,4.670141580E-1
6.781490625E0,-1.549987234E-3,9.094853329E-2,6.290329349E-1,6.355757007E-1
6.791489625E0,6.902316481E-2,-8.198426748E-3,5.840286702E-1,5.881504052E-1
6.801487625E0,1.503118146E-2,6.437888587E-2,5.005538195E-1,5.049006869E-1
6.811486625E0,3.751736188E-2,2.388494404E-2,5.242502457E-1,5.261334081E-1
6.821484625E0,6.159031218E-2,-3.345419568E-2,5.635125446E-1,5.678546801E-1
6.831484250E0,1.189376654E-2,3.884978245E-2,5.181954539E-1,5.197858171E-1
6.841482250E0,3.147492232E-2,-7.696044029E-2,4.113504517E-1,4.196698395E-1
6.851480250E0,6.198633313E-3,9.964580520E-3,3.145334244E-1,3.147522692E-1
6.861479250E0,3.825094990E-2,-6.890269846E-2,2.970490801E-1,3.073253537E-1
6.871477250E0,-2.051462721E-2,-7.203714866E-3,3.377942330E-1,3.384932603E-1
6.881476250E0,3.920229189E-2,-2.684419704E-2,3.662608176E-1,3.693296863E-1
6.891474250E0,4.262324195E-2,-3.614627204E-2,3.436724389E-1,3.481867875E-1
6.901473250E0,-8.411786165E-3,4.628361722E-2,1.915974694E-1,1.972879157E-1
6.911471250E0,5.199769909E-2,-7.649126519E-3,1.790300488E-1,1.865851769E-1
6.921469250E0,3.763172977E-2,4.177552816E-2,1.910004687E-1,1.991042965E-1
6.931468250E0,1.345610602E-2,7.831322104E-2,2.420308739E-1,2.547409886E-1
6.941466250E0,6.886541789E-2,9.723092797E-3,4.096600217E-1,4.155217415E-1
6.951465250E0,5.374616275E-2,3.342105384E-2,4.512424958E-1,4.556593101E-1
6.961463250E0,4.300530268E-2,1.880408366E-2,4.136337894E-1,4.162883152E-1
6.971462250E0,7.263511783E-2,-3.993642352E-2,4.704774964E-1,4.777236156E-1
6.981460250E0,6.082271894E-2,1.383008114E-3,5.475192404E-1,5.508889493E-1
6.991458250E0,-9.505014494E-4,2.686525615E-2,5.432800090E-1,5.439446789E-1
7.001457250E0,5.253505820E-2,-1.577962963E-2,5.990630311E-1,6.015691517E-1
7.011455250E0,-1.901731974E-2,7.093341362E-2,7.599240267E-1,7.634642978E-1
7.021454250E0,1.648313647E-2,5.411010167E-2,8.198971635E-1,8.218460656E-1
7.031452250E0,1.263930481E-2,2.364986541E-2,8.503798681E-1,8.508025554E-1
7.041451250E0,-7.903973758E-3,1.177499497E-2,7.501825655E-1,7.503166031E-1
7.051449250E0,-1.131639054E-2,3.625547793E-3,6.821759391E-1,6.822794275E-1
7.061447250E0,2.018782267E-2,-5.601361705E-2,8.075683093E-1,8.097602409E-1
7.071446250E0,3.208186330E-2,-1.702671511E-2,8.346210372E-1,8.354109353E-1
7.081444250E0,2.800249849E-3,6.363892986E-2,7.887753582E-1,7.913433645E-1
7.091443250E0,4.216884021E-2,-4.614573714E-2,8.372364968E-1,8.395669072E-1
7.101441250E0,-1.247629540E-2,6.990538174E-2,7.927432787E-1,7.959172861E-1
7.111440250E0,2.943501150E-2,-6.181719785E-3,7.967573923E-1,7.973248872E-1
7.121438250E0,4.349931931E-2,2.633363690E-2,8.090160799E-1,8.106125269E-1
7.131436250E0,5.670976918E-2,7.160904568E-3,7.269732124E-1,7.292169279E-1
7.141435250E0,3.858999705E-2,-1.633497351E-3,7.365509516E-1,7.375629875E-1
7.151433250E0,2.858961375E-2,-1.150431685E-2,7.789140290E-1,7.795234313E-1
7.161432250E0,3.019990040E-2,7.949271407E-3,7.905961812E-1,7.912127063E-1
7.171430250E0,7.687201029E-2,-5.062685135E-2,8.584215438E-1,8.633423023E-1
7.181429250E0,3.799957445E-2,1.759524263E-2,8.017088145E-1,8.028017087E-1
7.191427250E0,2.492205737E-2,-6.854254652E-3,6.695605713E-1,6.700592872E-1
7.201425250E0,2.459249368E-2,2.834442584E-2,5.601679373E-1,5.614234722E-1
7.211424250E0,2.958152080E-2,-4.703925108E-3,5.694796282E-1,5.702668149E-1
7.221422250E0,3.192788053E-2,4.070953507E-2,6.266899556E-1,6.288218796E-1
7.231421250E0,5.217128830E-2,-1.833590898E-3,6.368997788E-1,6.390356279E-1
7.241419250E0,4.477677148E-2,-7.710225354E-3,6.514575917E-1,6.530401217E-1
7.251418250E0,2.692931514E-2,3.909043191E-2,7.065757853E-1,7.081684759E-1
7.261416250E0,5.826335611E-2,1.472752824E-2,8.567480707E-1,8.588531745E-1
7.271415250E0,5.966363635E-2,2.012456539E-2,1.058263587E0,1.060135165E0
7.281413250E0,7.041027054E-2,1.337887481E-2,1.223401821E0,1.225499334E0
7.291411250E0,6.887839140E-2,-1.482950962E-2,1.409492383E0,1.411252254E0
7.301410250E0,4.763434231E-2,3.584914212E-2,1.614896883E0,1.615996947E0
7.311408250E0,8.084829966E-2,-1.098714205E-2,1.850082421E0,1.851880701E0
7.321407250E0,7.496294919E-2,1.334757621E-2,2.110412157E0,2.111785281E0
7.331405250E0,6.480200501E-2,4.371859447E-2,2.412499782E0,2.413765899E0
7.341404250E0,9.071905749E-2,-2.421396412E-2,2.701711255E0,2.703342370E0
7.351402250E0,7.648053920E-2,5.072104634E-2,2.904104438E0,2.905554076E0
7.361400250E0,8.807087179E-2,2.300143889E-2,3.119364420E0,3.120692220E0
7.371399250E0,9.840335866E-2,7.693885127E-2,3.317104390E0,3.319455428E0
7.381397250E0,9.711198281E-2,5.522173502E-2,3.580396909E0,3.582139333E0
7.391396250E0,9.256083906E-2,7.564879104E-2,3.899663070E0,3.901494881E0
7.401394250E0,1.025134396E-1,3.522278655E-2,4.197365869E0,4.198765281E0
7.411392250E0,1.214412970E-1,3.239276387E-2,4.367525691E0,4.369333810E0
7.421391250E0,1.175586361E-1,4.262604679E-2,4.391282929E0,4.393063028E0
7.431389250E0,1.096847938E-1,-3.311129760E-3,4.363840191E0,4.365219689E0
7.441388250E0,7.666445240E-2,7.620244014E-2,4.275474730E0,4.276840938E0
7.451386250E0,1.330429037E-1,2.940103141E-2,4.197134319E0,4.199345345E0
7.461385250E0,9.171423532E-2,1.166848520E-1,4.090641904E0,4.093333366E0
7.471383250E0,1.366620196E-1,3.345906303E-2,4.054201471E0,4.056642156E0
7.481382250E0,8.106418982E-2,1.017049342E-1,3.970454140E0,3.972583716E0
7.491380250E0,1.173214950E-1,1.126766222E-2,3.931608163E0,3.933374384E0
7.501378250E0,1.010315542E-1,1.083282489E-1,3.842014201E0,3.844868724E0
7.511377250E0,1.334207252E-1,4.600129721E-2,3.772921747E0,3.775560318E0
7.521375250E0,1.417030687E-1,6.057311593E-2,3.516409074E0,3.519784317E0
7.531374250E0,9.861241490E-2,-1.177721280E-2,3.372609669E0,3.374071589E0
7.541372250E0,6.773893353E-2,-2.772233234E-2,3.202765011E0,3.203601225E0
7.551371250E0,2.792520560E-3,2.925955849E-2,2.930089465E0,2.930236883E0
7.561369250E0,5.071955256E-2,-1.293238279E-1,2.829866434E0,2.833273930E0
7.571367250E0,-1.039359028E-1,-3.334851639E-1,2.923252316E0,2.944048085E0
7.581366250E0,-1.657036414E-1,4.378858838E-1,2.547893815E0,2.590552960E0
7.591364250E0,1.905076581E-1,-1.875022989E-1,1.915827929E0,1.934385415E0
7.601363250E0,2.566915246E-1,6.421372030E-2,1.910314590E0,1.928552766E0
7.611361250E0,4.149348680E-2,-6.990920984E-2,1.839005456E0,1.840801476E0
7.621360250E0,1.473924643E-1,4.657720227E-1,1.183874643E0,1.280713585E0
7.631358250E0,1.094803240E-1,-2.092319044E-1,1.743946102E0,1.759861340E0
7.641356250E0,2.418218908E-1,2.448410275E-1,1.256898766E0,1.303157497E0
7.651355250E0,9.194037639E-2,-6.571755107E-1,1.582643057E0,1.716126956E0
7.661353250E0,2.938068721E-2,3.047556190E-1,6.077759671E-1,6.805371689E-1
7.671352250E0,-4.929226549E-2,-1.035688986E-1,8.703966415E-1,8.779217264E-1
7.681350250E0,1.710978988E-1,7.143899677E-2,4.977161658E-1,5.311303069E-1
7.691349250E0,8.514587525E-3,-6.090283950E-3,4.674971706E-1,4.676143649E-1
7.701347250E0,-5.370102955E-2,4.784236797E-1,1.151480484E-1,4.950071625E-1
7.711345250E0,-2.187023107E-3,-5.563601025E-2,3.507721281E-1,3.551636729E-1
7.721344250E0,-2.806674477E-2,4.015069200E-2,2.566319561E-1,2.612657289E-1
7.731342250E0,-1.123986145E-1,-1.856074584E-2,2.192705870E-3,1.139419053E-1
7.741341250E0,4.827753603E-3,-1.592607955E-1,-3.258916408E-1,3.627570395E-1
7.751339250E0,-2.895117268E-2,-1.040131500E-1,-4.815293187E-1,4.934849446E-1
7.761338250E0,-8.885123754E-2,-2.343753611E-2,-6.530223066E-1,6.594558313E-1
7.771336250E0,6.721261103E-2,-1.836258690E-1,-8.114935452E-1,8.347201739E-1
7.781334250E0,-3.910590420E-2,1.788728501E-1,-1.123253050E0,1.138078285E0
7.791333250E0,-1.250678863E-1,7.892748931E-2,-1.211522618E0,1.220515702E0
7.801331250E0,8.644052189E-2,6.131681780E-2,-1.566399491E0,1.569980599E0
7.811330250E0,-7.473543769E-2,9.122305093E-2,-1.558760104E0,1.563214666E0
7.821328250E0,-7.083547276E-2,1.713749472E-1,-1.718914756E0,1.728888364E0
7.831326750E0,9.914979229E-2,-3.298402929E-2,-1.856335434E0,1.859274017E0
7.841324750E0,-1.572016619E-2,6.037390860E-2,-1.874926071E0,1.875963727E0
7.851322750E0,-5.087676957E-2,-1.457929219E-1,-1.874501563E0,1.880850907E0
7.861321750E0,8.415619746E-2,-1.678220328E-1,-2.129001040E0,2.137262719E0
7.871319750E0,2.062448177E-2,-7.699727775E-2,-2.217215644E0,2.218648048E0
7.881318750E0,-8.928014908E-2,-5.027450636E-2,-2.188659596E0,2.191056663E0
7.891316750E0,-3.556824736E-2,1.089907659E-1,-2.353955705E0,2.356745966E0
7.901315750E0,1.702243248E-2,-9.975835039E-2,-2.278713734E0,2.280959836E0
7.911313750E0,-7.490054844E-2,1.729351305E-1,-2.379969968E0,2.387419883E0
7.921311750E0,-8.885905819E-2,1.164035735E-1,-2.280339845E0,2.285037315E0
7.931310750E0,1.641965764E-2,-6.379593674E-2,-2.187902967E0,2.188894451E0
7.941308750E0,4.525032286E-3,-7.541846557E-2,-2.113873124E0,2.115222920E0
7.951307750E0,-9.851577139E-2,-4.238917060E-2,-2.078166516E0,2.080932067E0
7.961305750E0,6.730318805E-2,-1.927302030E-1,-2.134213248E0,2.143954486E0
7.971304750E0,-1.553011341E-2,-5.536599223E-2,-2.175438457E0,2.176198304E0
7.981302750E0,-7.579308936E-2,2.073937043E-2,-2.099157436E0,2.100627681E0
7.991300750E0,-3.811299216E-2,-7.854707312E-2,-2.109844977E0,2.111650555E0
8.001299750E0,-4.670324631E-2,-1.726221857E-2,-2.231450690E0,2.232006129E0
8.011297750E0,-1.044895793E-1,1.107650760E-1,-2.266082579E0,2.271192909E0
8.021296750E0,-6.189670628E-2,5.460771800E-2,-2.219574995E0,2.221109264E0
8.031294750E0,-4.646639753E-2,1.600089535E-2,-2.136533423E0,2.137098552E0
8.041293750E0,-9.093131142E-2,2.509331227E-2,-2.064110979E0,2.066265306E0
8.051291750E0,-3.194567800E-2,-6.558299202E-2,-2.042571591E0,2.043873861E0
8.061289750E0,2.039285894E-2,-1.261907618E-1,-2.044975966E0,2.048967223E0
8.071288750E0,-2.330590524E-3,3.694752102E-2,-2.150805892E0,2.151124482E0
8.081286750E0,3.106351588E-3,3.949203513E-2,-2.201536335E0,2.201892709E0
8.091285750E0,7.308221055E-2,-1.973661406E-2,-2.239536805E0,2.240815843E0
8.101283750E0,1.393753286E-2,7.706418268E-2,-2.274085663E0,2.275433749E0
8.111282750E0,4.926474703E-2,9.158965308E-2,-2.369398202E0,2.371679472E0
8.121280750E0,6.560236093E-2,2.926512705E-2,-2.449593349E0,2.450646383E0
8.131278750E0,-1.128136206E-2,5.372701311E-2,-2.419761440E0,2.420384119E0
8.141277750E0,-1.683557739E-2,4.414971242E-2,-2.326750950E0,2.327230675E0
8.151275750E0,3.709647199E-2,-8.109224732E-2,-2.258432667E0,2.260192516E0
8.161274750E0,-4.417717606E-2,-1.572185983E-2,-2.346686447E0,2.347154890E0
8.171272750E0,-6.022995746E-2,-5.385944341E-2,-2.543608391E0,2.544891379E0
8.181271750E0,-5.623329420E-2,-6.895414026E-2,-2.771656233E0,2.773084047E0
8.191269750E0,-8.700719018E-2,-2.416080471E-2,-2.896707711E0,2.898114828E0
8.201267750E0,-9.689254778E-2,-4.194273569E-2,-2.916221039E0,2.918131681E0
8.211266750E0,-9.167737959E-2,-3.305080175E-2,-2.843215628E0,2.844885271E0
8.221264750E0,-1.013323021E-1,6.426590213E-3,-2.780684334E0,2.782537493E0
8.231263750E0,-5.818273762E-2,-5.091323244E-2,-2.816789721E0,2.817850550E0
8.241261750E0,-5.705575990E-2,-4.594082421E-2,-2.924589574E0,2.925506810E0
8.251260750E0,-6.077193953E-2,4.033834194E-3,-3.056484048E0,3.057090812E0
8.261258750E0,-7.245944554E-2,-2.013326084E-2,-3.110091906E0,3.111001026E0
8.271256750E0,-6.730671465E-2,4.645349711E-2,-3.158455396E0,3.159513983E0
8.281255750E0,-2.100853421E-2,3.005026650E-2,-3.213708075E0,3.213917231E0
8.291253750E0,-8.163785649E-2,8.664109966E-2,-3.264629722E0,3.266799449E0
8.301252750E0,-1.030743886E-1,1.031693145E-1,-3.248947490E0,3.252218939E0
8.311250750E0,-2.424957275E-2,7.763681696E-3,-3.157994050E0,3.158096696E0
8.321249750E0,-9.433619991E-2,-3.916757405E-3,-3.028132069E0,3.029603684E0
8.331247750E0,-7.869741965E-2,-3.945018186E-2,-2.944976476E0,2.946291914E0
8.341245750E0,-6.285303667E-2,-1.401419260E-1,-2.884726766E0,2.888812693E0
8.351244750E0,-3.377969373E-2,-5.264555688E-2,-2.931522033E0,2.932189293E0
8.361242750E0,9.634300087E-2,-7.910046640E-2,-2.955172850E0,2.957800777E0
8.371241750E0,-7.551697288E-2,-7.825870489E-2,-2.687718868E0,2.689918205E0
8.381239750E0,-1.356171039E-1,2.245669995E-2,-2.408151208E0,2.412071422E0
8.391238750E0,-6.367420502E-2,-9.147174032E-2,-2.029653922E0,2.032711619E0
8.401236750E0,-1.145591790E-1,-5.664282313E-2,-1.754895013E0,1.759542191E0
8.411234750E0,-1.786569234E-1,2.623185880E-2,-1.613347955E0,1.623421705E0
8.421233750E0,-1.091048597E-1,-9.850461599E-2,-1.424178250E0,1.431743943E0
8.431231750E0,5.515267393E-2,1.067475455E-3,-1.291593220E0,1.292770669E0
8.441230750E0,1.400172433E-2,-1.198615255E-3,-1.013369250E0,1.013466685E0
8.451228750E0,1.697993053E-2,1.227175432E-1,-9.034065127E-1,9.118614153E-1
8.461227750E0,1.319819082E-1,-1.744500801E-2,-8.462961727E-1,8.567034285E-1
8.471225750E0,1.006169683E-1,1.776000849E-2,-7.883005643E-1,7.948943149E-1
8.481223750E0,6.881620992E-2,5.286893879E-2,-4.210503978E-1,4.299002592E-1
8.491222750E0,2.783381362E-1,-2.440307130E-2,-1.544121015E-1,3.192345925E-1
8.501220750E0,3.012517116E-1,-8.611475432E-3,-1.080384189E-1,3.201547301E-1
8.511219750E0,-1.691547594E-1,4.048945135E-2,1.215823245E-1,2.122144904E-1
8.521217750E0,-7.572893444E-2,3.994711753E-2,2.060389227E-1,2.231203293E-1
8.531216750E0,3.068163422E-1,-1.576817183E-1,3.151590765E-1,4.672526465E-1
8.541214750E0,-2.163601171E-1,4.140542225E-2,5.486939460E-1,5.912623408E-1
8.551212750E0,-1.133936462E-1,2.540816930E-1,3.169980258E-1,4.217859339E-1
8.561211750E0,-5.110044384E-2,-1.727056456E-1,5.174756616E-1,5.479229469E-1
8.571209750E0,-1.196285870E-1,1.936966564E-1,5.055648834E-1,5.544594167E-1
8.581208750E0,-2.031963171E-1,1.072225519E-2,7.092350990E-1,7.378469595E-1
8.591206750E0,-3.634949019E-2,1.090269546E-2,6.569644994E-1,6.580596535E-1
8.601205750E0,-4.643918971E-2,-5.207251147E-2,6.358566356E-1,6.396732023E-1
8.611203750E0,-6.336187234E-2,9.509690439E-2,5.736130250E-1,5.848846472E-1
8.621201750E0,1.559907766E-1,-2.740960544E-1,6.007388431E-1,6.784901820E-1
8.631200750E0,2.447596963E-2,8.868811850E-2,3.404769355E-1,3.526885298E-1
8.641198750E0,9.938079385E-2,-6.471195789E-3,2.606080627E-1,2.789892129E-1
8.651197750E0,1.152722652E-1,9.365684481E-2,3.124798822E-1,3.459811794E-1
8.661195750E0,9.116477977E-2,1.586192097E-1,3.339760011E-1,3.808031514E-1
8.671194750E0,6.945050491E-2,2.329754006E-1,7.780772924E-2,2.552546820E-1
8.681192750E0,1.009651335E-1,7.109031086E-2,-2.551900327E-2,1.260912765E-1
8.691190750E0,1.405869814E-1,4.560654620E-3,1.549681717E-1,2.092860080E-1
8.701189750E0,4.515731558E-3,8.153577690E-2,2.618084961E-1,2.742483608E-1
8.711187750E0,5.315981492E-2,-5.174050382E-2,2.774907285E-1,2.872353566E-1
8.721186750E0,9.308650374E-2,-1.095150418E-1,2.026089460E-1,2.484130161E-1
8.731184750E0,-2.137610480E-2,4.676444108E-2,6.814695954E-2,8.536895748E-2
8.741183750E0,5.275394507E-3,-8.904457938E-2,1.908507800E-1,2.106674800E-1
8.751181750E0,-7.870041635E-3,2.610365632E-2,1.633981025E-1,1.656571107E-1
8.761179750E0,-9.850652548E-2,1.876139898E-2,2.669177932E-1,2.851326603E-1
8.771178750E0,5.229760643E-2,-4.680517972E-2,2.213270527E-1,2.321883476E-1
8.781176750E0,-3.017784543E-2,1.328884367E-1,1.344333351E-2,1.369334225E-1
8.791175750E0,-3.473194934E-2,-2.532659333E-2,1.188429040E-1,1.263779271E-1
8.801173750E0,9.622167114E-2,-1.781632174E-1,2.833455455E-1,3.482605924E-1
8.811172750E0,-3.089071238E-2,-7.152933169E-2,4.589163816E-1,4.654835407E-1
8.821170750E0,5.861705784E-2,-3.549338473E-1,7.555894858E-1,8.368568972E-1
8.831169417E0,2.569407256E-2,5.256924614E-2,5.482314312E-1,5.513450945E-1
8.841168417E0,-7.539089229E-3,-1.608615073E-1,5.713998538E-1,5.936590396E-1
8.851166417E0,5.766801819E-2,4.183296792E-2,3.067028332E-1,3.148685843E-1
8.861165417E0,-4.829030855E-2,3.453410515E-1,3.645557696E-1,5.044732945E-1
8.871163417E0,1.510429724E-1,-1.977342867E-2,6.436375254E-1,6.614183488E-1
8.881162417E0,-5.639528034E-2,3.444785872E-1,7.574436378E-1,8.340064683E-1
8.891160417E0,1.251037188E-1,-1.103636281E-1,9.296371222E-1,9.444872946E-1
8.901158417E0,1.426220865E-1,4.390085401E-2,6.758118296E-1,6.920910153E-1
8.911157417E0,-2.185301833E-2,2.668519846E-2,5.366562831E-1,5.377635358E-1
8.921155417E0,1.377859093E-1,-9.473409380E-2,4.939031965E-1,5.214401910E-1
8.931154417E0,1.077808856E-1,-9.383781614E-2,6.282418066E-1,6.442903248E-1
8.941152417E0,4.664559642E-2,2.519462670E-2,6.539128375E-1,6.560583663E-1
8.951151417E0,2.462733943E-2,9.280276760E-2,5.005602515E-1,5.096856138E-1
8.961149417E0,3.779495845E-2,6.804338160E-2,3.567994380E-1,3.651906346E-1
8.971147417E0,-5.402516630E-2,2.205324709E-1,3.086984879E-1,3.832075753E-1
8.981146417E0,9.596559964E-3,2.142397660E-2,4.581960046E-1,4.587969697E-1
8.991144417E0,1.343416069E-3,1.163977080E-1,4.993305820E-1,5.127194763E-1
9.001143417E0,1.993602695E-2,-9.614301467E-3,5.686107320E-1,5.690413381E-1
9.011141417E0,-1.213171350E-1,7.223665749E-2,6.509290034E-1,6.660664752E-1
9.021140417E0,6.625295503E-2,-1.990628655E-1,7.182854193E-1,7.482976828E-1
9.031138417E0,-1.007906489E-2,8.906189947E-3,5.504861176E-1,5.506504095E-1
9.041136417E0,-2.721323401E-2,6.844000098E-2,3.961652327E-1,4.029534532E-1
9.051135417E0,4.490827901E-2,-7.657856229E-3,4.223724532E-1,4.248221811E-1
9.061133417E0,1.301277744E-2,4.627515703E-2,5.424421030E-1,5.445678632E-1
9.071132417E0,3.986412361E-3,5.961033532E-2,6.116216809E-1,6.145326387E-1
9.081130417E0,5.207292717E-2,3.662658654E-2,5.615046108E-1,5.651022248E-1
9.091129417E0,6.560828123E-2,3.669018872E-2,5.256103081E-1,5.309583905E-1
9.101127417E0,2.496296961E-2,7.254966168E-2,4.597806001E-1,4.661381807E-1
9.111125417E0,1.066245256E-1,-5.362682473E-2,3.960494578E-1,4.136421144E-1
9.121124417E0,6.647039836E-2,2.163544480E-2,3.737855995E-1,3.802658027E-1
9.131122417E0,9.197291980E-2,-6.398463279E-2,4.543567228E-1,4.679669676E-1
9.141121417E0,9.502746871E-2,-8.279756036E-2,5.488500667E-1,5.631359085E-1
9.151119417E0,5.447525572E-2,-1.679201564E-3,5.204518944E-1,5.232977619E-1
9.161118417E0,9.343779350E-2,-6.744607938E-2,4.730479324E-1,4.868818555E-1
9.171116417E0,5.128872419E-2,2.636268112E-2,3.401687872E-1,3.450222138E-1
9.181114417E0,3.999299990E-2,9.635715752E-3,2.448574179E-1,2.482890295E-1
9.191113417E0,3.900591681E-2,2.886118038E-2,1.740920752E-1,1.807276402E-1
9.201111417E0,1.347421411E-2,6.996564461E-2,1.335626847E-1,1.513794458E-1
9.211110417E0,2.474596482E-2,1.969356393E-2,2.195190936E-1,2.217855534E-1
9.221108417E0,-1.283555198E-2,1.006291013E-1,2.473839998E-1,2.673757857E-1
9.231107417E0,5.533803066E-2,-7.742426153E-2,2.894675803E-1,3.047101803E-1
9.241105417E0,-9.833518378E-3,7.684984569E-2,2.221240282E-1,2.352481260E-1
9.251103417E0,1.505371151E-2,-5.622067700E-2,3.532659656E-1,3.580282408E-1
9.261102417E0,4.659848979E-2,-8.845268584E-2,5.097052968E-1,5.194177379E-1
9.271100417E0,-2.658144236E-2,5.618700983E-2,5.646509975E-1,5.680618823E-1
9.281099417E0,-2.550113272E-2,1.343801071E-1,6.059721011E-1,6.212169575E-1
9.291097417E0,9.099066066E-2,1.070149643E-2,7.165862185E-1,7.224192902E-1
9.301096417E0,-3.689909192E-2,1.642160366E-1,8.475527394E-1,8.641030585E-1
9.311094417E0,3.869849944E-2,9.114765383E-3,1.047666678E0,1.048420775E0
9.321092417E0,3.991804590E-2,1.263546072E-2,1.180716562E0,1.181458719E0
9.331091417E0,5.216438128E-2,3.884785012E-3,1.296246434E0,1.297301442E0
9.341089417E0,3.649638321E-2,3.116856248E-2,1.372715735E0,1.373554497E0
9.351088417E0,6.508798867E-2,-2.784840836E-2,1.450974870E0,1.452700951E0
9.361086417E0,2.815543972E-2,3.731457999E-2,1.521745475E0,1.522463266E0
9.371085417E0,6.649086362E-2,2.579339300E-3,1.752984143E0,1.754246588E0
9.381083417E0,4.698500901E-2,6.075847266E-2,1.991854597E0,1.993334873E0
9.391081417E0,8.093858432E-2,2.920323336E-2,2.272184148E0,2.273812808E0
9.401080417E0,6.238427270E-2,6.384608575E-2,2.580350540E0,2.581894078E0
9.411078417E0,8.074834881E-2,9.703305911E-3,2.832086037E0,2.833253567E0
9.421077417E0,1.386413934E-1,-2.315874498E-2,3.028579381E0,3.031839512E0
9.431075417E0,8.186783480E-2,1.070144801E-1,3.152469601E0,3.155347687E0
9.441074417E0,1.923236023E-1,-1.249685430E-2,3.320961798E0,3.326549534E0
9.451072417E0,1.286883726E-1,9.131170020E-2,3.385265967E0,3.388941456E0
9.461070417E0,1.593051795E-1,-2.895363719E-2,3.487439629E0,3.491196302E0
9.471069417E0,1.424194257E-1,-1.205002424E-2,3.564161530E0,3.567026200E0
9.481067417E0,9.076411759E-2,-7.025440570E-2,3.749852142E0,3.751608308E0
9.491066417E0,1.139448559E-1,-6.998054130E-2,3.821515033E0,3.823853796E0
9.501064417E0,3.009499770E-2,2.634338759E-1,3.457443413E0,3.467595430E0
9.511063417E0,1.689218758E-1,5.772898455E-2,3.496334998E0,3.500889266E0
9.521061417E0,7.866591778E-2,7.914074823E-2,3.736712279E0,3.738378023E0
9.531059417E0,2.123204768E-1,2.334810021E-1,3.438950424E0,3.453400263E0
9.541058417E0,8.766229760E-2,3.470142277E-2,3.857029851E0,3.858181973E0
9.551056417E0,1.194554912E-1,6.302620562E-2,4.021821345E0,4.024088574E0
9.561055417E0,1.558565648E-1,-1.079878313E-1,4.191551982E0,4.195838493E0
9.571053417E0,1.078585622E-1,-4.058974023E-2,4.278953238E0,4.280504855E0
9.581052417E0,1.779835434E-1,-1.774972378E-1,4.241371429E0,4.248813365E0
9.591050417E0,7.909287415E-2,4.016145910E-2,3.940926286E0,3.941924481E0
9.601048417E0,3.459570922E-2,3.796421707E-2,3.759929819E0,3.760280626E0
9.611047417E0,3.050468652E-2,3.362280197E-1,3.485821704E0,3.502132603E0
9.621045417E0,6.619291143E-2,6.178454481E-2,3.470374530E0,3.471555589E0
9.631044417E0,4.447690068E-2,2.511278989E-1,3.119908211E0,3.130314787E0
9.641042417E0,1.270426189E-1,-7.658975422E-2,3.004299402E0,3.007959560E0
9.651041417E0,3.883225450E-2,-5.080336874E-2,2.874024607E0,2.874735878E0
9.661039417E0,3.922208106E-2,-1.860188603E-1,2.721595881E0,2.728227543E0
9.671037417E0,-2.176001105E-2,-1.792484606E-1,2.410660833E0,2.417413734E0
9.681036417E0,5.595982723E-2,6.842397138E-2,2.141180205E0,2.143003970E0
9.691034417E0,1.161411614E-1,1.081189277E-1,1.703620779E0,1.710994515E0
9.701033417E0,6.094196560E-2,-5.848660554E-2,1.643883285E0,1.646051901E0
9.711031417E0,-5.183772292E-2,3.640845205E-1,1.453854623E0,1.499645943E0
9.721030417E0,5.309414338E-2,-1.929866765E-1,1.403614177E0,1.417813670E0
9.731028417E0,3.102151094E-1,5.016916512E-1,9.397218150E-1,1.109506655E0
9.741026417E0,4.775817538E-2,-4.164984135E-1,1.190008957E0,1.261694531E0
9.751025417E0,-2.015557528E-1,5.574067724E-1,6.793102187E-1,9.015483374E-1
9.761023417E0,1.044813932E-1,-5.118339391E-1,1.217181553E0,1.324545687E0
9.771022417E0,-5.925787613E-4,6.176850608E-2,8.669707578E-1,8.691685650E-1
9.781020417E0,9.628935266E-2,-2.947605713E-1,7.737690639E-1,8.335910257E-1
9.791019417E0,2.983760509E-1,3.392695677E-2,4.479493439E-2,3.036212975E-1
9.801017417E0,-1.557297898E-1,1.605364204E-1,5.080470264E-2,2.293574231E-1
9.811015417E0,-3.692443594E-3,1.514743873E-1,7.283993483E-2,1.681183519E-1
9.821014417E0,1.805609047E-1,-5.490168676E-2,-1.391029215E-1,2.344484129E-1
9.831011500E0,-1.857414099E-1,3.695743251E-1,-4.874244815E-1,6.392712087E-1
9.841010500E0,1.209081588E-1,1.996556224E-2,-4.992294252E-1,5.140500224E-1
9.851008500E0,-8.760852149E-2,-1.426941717E-2,-5.230217457E-1,5.305003447E-1
9.861007500E0,-1.774781613E-2,-2.545414714E-2,-7.816522801E-1,7.822679755E-1
9.871005500E0,1.663503982E-1,-1.038515841E-1,-1.116787199E0,1.133874444E0
9.881003500E0,2.682898058E-2,-1.054079576E-1,-1.155698665E0,1.160805771E0
9.891002500E0,-2.013095850E-2,1.576474436E-3,-1.208385587E0,1.208554288E0
9.901000500E0,-5.744677417E-2,-2.080062915E-1,-1.217939352E0,1.236908653E0
9.910999500E0,1.815786309E-1,7.342370393E-3,-1.589760872E0,1.600113852E0
9.920997500E0,-1.023628190E-1,1.723416564E-1,-1.660260751E0,1.672317421E0
9.930996500E0,-2.126467880E-2,6.506983947E-2,-1.903197944E0,1.904428703E0
9.940994500E0,-1.489408253E-2,2.753715879E-1,-2.138669996E0,2.156376752E0
9.950992500E0,-2.165225783E-2,5.215184174E-2,-2.019980873E0,2.020769993E0
9.960991500E0,-1.017176153E-2,4.867584106E-2,-2.151574801E0,2.152149373E0
9.970989500E0,-6.378458949E-2,-6.522935653E-3,-2.174801695E0,2.175746639E0
9.980988500E0,-4.147018930E-2,-1.742394251E-1,-2.225868938E0,2.233063296E0
9.990986500E0,9.764851967E-2,-1.038316213E-1,-2.461950270E0,2.466072864E0
1.000098550E1,-5.992800359E-2,-7.967397776E-2,-2.447457946E0,2.449487641E0
1.001098350E1,-6.952796225E-2,-1.534452256E-2,-2.487448223E0,2.488467049E0
1.002098150E1,-2.482937900E-2,7.173818692E-2,-2.629229754E0,2.630325449E0
1.003098050E1,-8.583739987E-2,2.751704620E-1,-2.782398153E0,2.797289103E0
1.004097850E1,6.422702271E-2,1.105056835E-2,-2.605220502E0,2.606035512E0
1.005097750E1,1.499335729E-3,-3.174069883E-2,-2.513067799E0,2.513268684E0
1.006097550E1,-1.515222431E-1,1.085894550E-1,-2.581678442E0,2.588399938E0
1.007097450E1,-8.615225416E-2,-2.495364513E-1,-2.478282713E0,2.492303323E0
1.008097250E1,1.296356946E-2,-1.119613159E-1,-2.638645526E0,2.641051609E0
1.009097050E1,-6.242158525E-2,-1.207213768E-1,-2.641677307E0,2.645170902E0
1.010096950E1,-8.889300859E-2,5.119841668E-2,-2.831962076E0,2.833819410E0
1.011096750E1,3.777314102E-2,1.519106055E-2,-2.910131164E0,2.910415944E0
1.012096650E1,1.177221755E-2,2.694554117E-2,-2.855826902E0,2.855978281E0
1.013096450E1,-2.469796283E-2,8.116901030E-2,-2.867083962E0,2.868339039E0
1.014096350E1,-6.312182587E-2,2.211585296E-2,-2.892406499E0,2.893179709E0
1.015096150E1,5.011703353E-3,-4.933689163E-2,-2.955150046E0,2.955566112E0
1.016095950E1,2.021609031E-2,-6.408129457E-2,-3.016540548E0,3.017288846E0
1.017095850E1,-3.946550796E-2,1.494200457E-2,-3.032115192E0,3.032408832E0
1.018095650E1,9.491492808E-4,-3.875851563E-2,-3.011454055E0,3.011703613E0
1.019095550E1,5.622317120E-3,-6.016562210E-4,-3.001858190E0,3.001863515E0
1.020095350E1,-1.104445847E-2,7.442436581E-2,-2.991947744E0,2.992893628E0
1.021095250E1,-1.251488702E-2,7.878427821E-2,-2.992350617E0,2.993413737E0
1.022095050E1,3.318662161E-2,2.302226503E-2,-3.036901138E0,3.037169718E0
1.023094850E1,2.768146807E-2,3.348273969E-2,-3.030549892E0,3.030861265E0
1.024094750E1,2.501194004E-2,1.408014782E-2,-2.959977508E0,2.960116669E0
1.025094550E1,-1.901008381E-2,-5.320186805E-3,-2.925326323E0,2.925392928E0
1.026094450E1,5.130913462E-3,1.677973306E-2,-3.024642450E0,3.024693346E0
1.027094250E1,-4.020582028E-3,-5.577153775E-2,-3.092514591E0,3.093020065E0
1.028094150E1,-6.898230739E-2,4.360321246E-2,-3.300793582E0,3.301802245E0
1.029093950E1,-7.734934408E-2,4.277911593E-2,-3.416410577E0,3.417553833E0
1.030093750E1,-4.481106905E-2,-2.726842396E-2,-3.452384402E0,3.452782886E0
1.031093650E1,-9.959500294E-2,-8.196230045E-3,-3.385518567E0,3.386993107E0
1.032093450E1,-1.729062599E-1,4.672689898E-3,-3.233623692E0,3.238246530E0
1.033093350E1,-6.796087191E-2,3.877206473E-6,-3.181413319E0,3.182139121E0
1.034093150E1,-5.217169030E-2,3.249985243E-3,-3.166183076E0,3.166614552E0
1.035093050E1,-1.978617560E-1,1.192458776E-1,-3.153491110E0,3.161941655E0
1.036092850E1,-1.306179538E-1,1.038456272E-1,-3.129864850E0,3.134309963E0
1.037092650E1,-3.548638634E-3,-2.725308644E-2,-2.967785879E0,2.967913130E0
1.038092550E1,-7.873608436E-2,9.237914597E-2,-2.752720025E0,2.755394856E0
1.039092350E1,-5.366607416E-2,4.066752191E-2,-2.428988346E0,2.429921455E0
1.040092250E1,4.062647263E-2,-3.930934162E-2,-2.192084895E0,2.192813700E0
1.041092050E1,1.807875026E-1,-4.274768715E-2,-2.115233771E0,2.123375942E0
1.042091950E1,-6.347554587E-3,-5.684266543E-2,-1.898301485E0,1.899162949E0
1.043091750E1,3.137822399E-2,-6.641820283E-3,-1.860274118E0,1.860550591E0
1.044091550E1,1.158233104E-1,-1.711913446E-1,-1.655365462E0,1.668219509E0
1.045091450E1,2.232390191E-2,-2.661558461E-2,-1.600916775E0,1.601293623E0
1.046091250E1,-1.025175875E-1,1.020824450E-1,-1.635256888E0,1.641644228E0
1.047091150E1,-5.660970870E-2,-5.348163106E-2,-1.594614061E0,1.596514625E0
1.048090950E1,-6.846634543E-2,-4.097491186E-3,-1.505175050E0,1.506736992E0
1.049090850E1,-1.634041325E-1,2.621840107E-2,-1.360488038E0,1.370516697E0
1.050090650E1,-7.639242897E-2,1.048580955E-2,-1.200373147E0,1.202847225E0
1.051090450E1,-1.064119245E-1,-3.731787590E-2,-1.008215514E0,1.014502166E0
1.052090350E1,-7.807251675E-2,3.643774203E-2,-9.248646247E-1,9.288689902E-1
1.053090150E1,5.878728490E-2,-1.029373080E-1,-6.518452621E-1,6.625362480E-1
1.054090050E1,6.717851445E-2,-6.444193530E-2,-4.015633821E-1,4.122121610E-1
1.055089850E1,1.220539938E-1,6.441656386E-2,-3.545663863E-1,3.804786373E-1
1.056089750E1,5.786358197E-1,-6.034477759E-2,-5.594142312E-1,8.070967638E-1
1.057089550E1,2.356661797E-1,2.572418344E-2,-3.721805388E-1,4.412693455E-1
1.058089350E1,-1.223277166E-1,1.711175966E-1,-9.241115034E-2,2.297501313E-1
1.059089250E1,-1.576138175E-1,1.193238557E-1,6.225238144E-2,2.072574655E-1
1.060089050E1,-4.269812286E-2,4.578991123E-2,4.062528491E-2,7.463417072E-2
1.061088950E1,5.638183540E-1,6.487492048E-3,-9.632995427E-2,5.720250728E-1
1.062088750E1,-4.051823701E-1,6.839080671E-2,5.564935470E-1,6.917623315E-1
1.063088650E1,5.986308122E-2,1.301435344E-1,2.606156641E-1,2.973910766E-1
1.064088450E1,-6.124349920E-2,-2.042413789E-1,6.646734685E-1,6.980373391E-1
1.065088250E1,-9.924369492E-3,6.649793509E-2,7.217656821E-1,7.248904526E-1
1.066088150E1,-2.346620483E-1,1.070961584E-1,1.035896233E0,1.067528393E0
1.067087950E1,7.464191878E-2,-8.509078352E-2,8.680489844E-1,8.753975650E-1
1.068087850E1,-1.311169040E-1,4.769354994E-2,6.170046276E-1,6.325828228E-1
1.069087650E1,-4.476918837E-2,1.498669968E-1,4.914228076E-1,5.157138478E-1
1.070087550E1,7.524551589E-2,-9.283104437E-2,7.700145668E-1,7.792316238E-1
1.071087350E1,1.108691656E-1,4.598519452E-2,8.270810527E-1,8.357449836E-1
1.072087150E1,6.883267349E-2,5.851966058E-2,7.283367831E-1,7.339189037E-1
1.073087050E1,1.408229896E-1,4.922257399E-2,5.251203114E-1,5.458986331E-1
1.074086850E1,1.590267789E-1,7.110185911E-2,4.118772858E-1,4.472000552E-1
1.075086750E1,1.057684201E-1,2.189291827E-1,2.866650099E-1,3.758906405E-1
1.076086550E1,1.148191425E-1,1.151919482E-1,3.476748580E-1,3.838364590E-1
1.077086450E1,1.683459616E-1,5.008346229E-2,3.564421731E-1,3.973660010E-1
1.078086250E1,7.183993304E-2,1.030433710E-1,2.301879233E-1,2.622315624E-1
1.079086050E1,4.501712859E-2,7.086838162E-2,7.758962810E-2,1.143198135E-1
1.080085950E1,1.003297056E-1,-1.884055567E-2,1.918857372E-1,2.173502990E-1
1.081085750E1,1.040543089E-2,5.464428137E-2,2.804330474E-1,2.858967726E-1
1.082085650E1,-4.143203622E-2,-4.063114126E-2,3.596961486E-1,3.643471183E-1
1.083085525E1,6.250344627E-3,-6.063636635E-2,4.352158624E-1,4.394640857E-1
1.084085425E1,3.881144207E-2,-1.045739984E-1,5.020442748E-1,5.142864018E-1
1.085085225E1,-8.770622481E-2,-1.030192603E-3,6.085390288E-1,6.148277748E-1
1.086085025E1,4.546528112E-2,-7.391374857E-2,6.566510886E-1,6.623601635E-1
1.087084925E1,-1.223149806E-2,-1.035474055E-2,6.623913002E-1,6.625851378E-1
1.088084725E1,2.263426664E-1,-1.151017275E-1,5.702198857E-1,6.242035953E-1
1.089084625E1,1.308940337E-1,-1.825556686E-2,5.125868046E-1,5.293503056E-1
1.090084425E1,-1.748335387E-1,5.878504195E-2,7.492475957E-1,7.716180448E-1
1.091084325E1,-7.217189044E-2,-9.373678265E-3,8.943140924E-1,8.972704963E-1
1.092084125E1,3.311739423E-1,-1.599631740E-1,6.916168535E-1,7.833251363E-1
1.093083925E1,9.072157910E-2,-8.792997217E-2,7.475519031E-1,7.581529745E-1
1.094083825E1,-1.079083366E-1,1.954007726E-1,5.201326364E-1,5.660067407E-1
1.095083625E1,-1.346867205E-1,-2.224125289E-2,6.162275326E-1,6.311668226E-1
1.096083525E1,4.003020646E-1,7.389360309E-2,3.173997295E-1,5.161827155E-1
1.097083325E1,-7.172072293E-2,1.959931686E-1,5.024945104E-1,5.441120448E-1
1.098083225E1,3.000080271E-2,1.090318517E-1,4.032064497E-1,4.187641746E-1
1.099083025E1,2.736170029E-1,3.672845600E-2,3.000136185E-1,4.077050589E-1
1.100082825E1,-6.333895857E-2,-1.532267430E-4,5.759864098E-1,5.794585329E-1
1.101082725E1,1.984914829E-1,4.738860394E-2,3.397167975E-1,3.962979322E-1
1.102082525E1,1.107705669E-1,-8.359365877E-2,3.954863709E-1,4.191270546E-1
1.103082425E1,-7.500139464E-2,1.333479731E-1,2.779368711E-1,3.172629752E-1
1.104082225E1,1.886844597E-1,-7.672174598E-2,1.006644952E-1,2.272034160E-1
1.105082125E1,-1.188931900E-1,2.370944352E-1,7.278555572E-2,2.750401770E-1
1.106081925E1,7.878741195E-2,1.385853333E-1,2.142022204E-1,2.670129999E-1
1.107081725E1,-3.010546787E-2,9.999204716E-2,4.360069907E-1,4.483378688E-1
1.108081625E1,-9.522556141E-3,2.196637665E-2,5.296823090E-1,5.302231127E-1
1.109081425E1,-1.357005363E-2,5.062252533E-2,5.476215667E-1,5.501237740E-1
1.110081325E1,3.637881763E-3,-2.067165607E-3,5.246963882E-1,5.247130713E-1
1.111081125E1,-1.775865175E-2,4.848684351E-2,5.094006568E-1,5.120111062E-1
1.112081025E1,-1.048071379E-2,-3.032881552E-2,6.116170031E-1,6.124581952E-1
1.113080825E1,1.174592335E-2,1.943338396E-4,5.015753281E-1,5.017128803E-1
1.114080625E1,-3.151119333E-3,4.023046538E-2,2.928922945E-1,2.956591214E-1
1.115080525E1,3.548147103E-2,2.020895488E-2,2.520161641E-1,2.553027293E-1
1.116080325E1,7.442745388E-2,-4.250641184E-2,3.716092658E-1,3.813655561E-1
1.117080225E1,6.729114644E-2,-1.447448542E-4,3.681623322E-1,3.742614356E-1
1.118080025E1,9.983892320E-2,-1.685804806E-3,3.934591413E-1,4.059319504E-1
1.119079925E1,1.077051824E-1,-2.267517111E-3,4.780402851E-1,4.900286340E-1
1.120079725E1,9.624235567E-2,1.126756058E-2,5.602264094E-1,5.685447905E-1
1.121079525E1,1.095333509E-1,-3.559268690E-3,6.244533956E-1,6.339970557E-1
1.122079425E1,1.197776179E-1,3.536133359E-2,5.746111447E-1,5.880264188E-1
1.123079225E1,7.730112283E-2,4.879163420E-2,5.500703806E-1,5.576141235E-1
1.124079125E1,9.911640834E-2,3.365388266E-2,6.238768601E-1,6.325970146E-1
1.125078925E1,5.798811670E-2,4.303036348E-2,6.593612731E-1,6.633034918E-1
1.126078825E1,6.748730225E-2,8.237045780E-3,7.716354150E-1,7.746248114E-1
1.127078625E1,5.320918735E-2,4.369716533E-2,9.128024036E-1,9.153954817E-1
1.128078425E1,8.435165891E-2,2.823523822E-2,1.127465969E0,1.130969470E0
1.129078325E1,7.504892154E-2,1.224412439E-2,1.294970571E0,1.297201233E0
1.130078125E1,3.042733882E-2,5.482444413E-2,1.290786304E0,1.292308332E0
1.131078025E1,6.444740793E-2,-4.290770900E-2,1.318492166E0,1.320763465E0
1.132077825E1,6.067613656E-2,5.602234219E-2,1.402333637E0,1.404763228E0
1.133077725E1,6.036312779E-2,4.040439720E-2,1.526738997E0,1.528465959E0
1.134077525E1,7.653002126E-2,4.846786290E-2,1.625698444E0,1.628220320E0
1.135077325E1,6.718503775E-2,5.654168457E-3,1.854438597E0,1.855663846E0
1.136077225E1,1.490303608E-2,9.567581529E-2,2.048300108E0,2.050587549E0
1.137077025E1,6.169877803E-2,3.776285815E-2,2.309971195E0,2.311103566E0
1.138076925E1,6.777398027E-2,3.275166186E-2,2.473742350E0,2.474887310E0
1.139076725E1,6.586491918E-2,7.187778463E-2,2.471206997E0,2.473129318E0
1.140076625E1,5.275672249E-2,8.308929987E-2,2.501002069E0,2.502937964E0
1.141076425E1,7.509518763E-2,-1.377773029E-3,2.625996829E0,2.627070713E0
1.142076225E1,6.100908067E-2,7.766640935E-2,2.757721733E0,2.759489688E0
1.143076125E1,1.083464575E-1,5.072422120E-2,2.931953557E0,2.934393219E0
1.144075925E1,9.343368217E-2,2.680132051E-2,3.192547587E0,3.194026965E0
1.145075825E1,1.160640147E-1,4.153685669E-2,3.440261954E0,3.442469822E0
1.146075625E1,1.019078508E-1,5.852569966E-2,3.665964478E0,3.667847601E0
1.147075525E1,1.375142878E-1,3.910918412E-2,3.706047726E0,3.708804316E0
1.148075325E1,1.329307286E-1,7.092218057E-2,3.677118042E0,3.680203477E0
1.149075125E1,9.444952626E-2,8.876592301E-2,3.648182511E0,3.650484315E0
1.150075025E1,1.206156884E-1,5.857795458E-2,3.581372225E0,3.583881490E0
1.151074825E1,1.371493485E-1,4.024480019E-2,3.598532048E0,3.601369530E0
1.152074725E1,1.162830112E-1,1.083915816E-1,3.640093473E0,3.643562949E0
1.153074525E1,1.601806356E-1,2.427723282E-2,3.729848233E0,3.733365112E0
1.154074425E1,1.588363607E-1,7.325990652E-2,3.783971230E0,3.788011916E0
1.155074225E1,1.517567347E-1,2.891927109E-2,3.807859445E0,3.810991995E0
1.156074025E1,1.492104733E-1,4.982762834E-2,3.739389135E0,3.742696576E0
1.157073925E1,1.460023984E-1,2.665605374E-2,3.694569057E0,3.697548886E0
1.158073725E1,9.682409881E-2,9.315477912E-2,3.612477658E0,3.614975456E0
1.159073625E1,1.262753729E-1,1.366009048E-2,3.536221780E0,3.538502020E0
1.160073425E1,8.732661260E-2,7.219526560E-2,3.333180724E0,3.335105971E0
1.161073325E1,1.014962068E-1,1.255848019E-3,3.172499823E0,3.174123215E0
1.162073125E1,7.597290952E-2,-4.970646649E-3,2.998052237E0,2.999018807E0
1.163072925E1,-1.289623512E-2,-3.153662506E-1,3.068932770E0,3.085120829E0
1.164072825E1,4.557288816E-2,2.888622473E-1,2.664330590E0,2.680331281E0
1.165072625E1,1.863770388E-1,3.620846631E-1,1.673434528E0,1.722273156E0
1.166072525E1,3.026767877E-1,7.660772984E-2,1.853539295E0,1.879651537E0
1.167072325E1,2.134793584E-1,-3.914646195E-1,2.499215160E0,2.538679657E0
1.168072225E1,1.594288664E-1,1.681461695E-1,1.651153128E0,1.667332405E0
1.169072025E1,-1.642166762E-2,4.152655646E-1,1.579049358E0,1.632823332E0
1.170071825E1,1.532770473E-1,3.636641057E-2,1.807499489E0,1.814351336E0
1.171071725E1,3.815171169E-2,-3.816698754E-2,1.796021404E0,1.796831978E0
1.172071525E1,1.874906044E-1,-8.382777580E-2,1.494570540E0,1.508615565E0
1.173071425E1,4.734232871E-2,-2.325715865E-2,1.465246169E0,1.466195255E0
1.174071225E1,-2.197901304E-1,1.923589414E-1,1.362154495E0,1.393116840E0
1.175071125E1,2.409547852E-1,5.067261952E-2,8.854245704E-1,9.190231732E-1
1.176070925E1,-1.319763168E-1,1.290996054E-1,6.841195536E-1,7.085929861E-1
1.177070725E1,-7.222851707E-2,-4.031434551E-2,6.437357587E-1,6.490284525E-1
1.178070625E1,9.722488889E-2,-1.222060031E-1,4.039677572E-1,4.331015298E-1
1.179070425E1,-7.077798732E-2,6.066495833E-2,3.068034053E-2,9.813788235E-2
1.180070325E1,-6.756357187E-2,2.891106443E-1,-4.319753355E-1,5.241683808E-1
1.181070125E1,1.471331768E-1,-2.207025518E-1,-3.541132271E-1,4.424409178E-1
1.182070025E1,-2.214505021E-3,1.975193467E-1,-6.010768121E-1,6.327022447E-1
1.183069825E1,-2.989701463E-2,-1.812439326E-1,-5.802484453E-1,6.086308017E-1
1.184069600E1,4.449489914E-2,1.773236212E-2,-1.042774313E0,1.043873795E0
1.185069500E1,-4.561743664E-2,-6.901316516E-2,-1.126131050E0,1.129165581E0
1.186069300E1,1.277748182E-1,1.002932884E-1,-1.507384713E0,1.516111415E0
1.187069200E1,-5.818637386E-2,1.014618910E-1,-1.623396980E0,1.627604966E0
1.188069000E1,2.666421700E-3,6.535527952E-2,-1.616215430E0,1.617538481E0
1.189068900E1,8.998755254E-3,7.977047509E-2,-1.666525458E0,1.668457794E0
1.190068700E1,4.382555740E-2,-5.133537857E-2,-1.726281078E0,1.727600174E0
1.191068500E1,-2.519062730E-2,-9.856381905E-3,-1.758950642E0,1.759158627E0
1.192068400E1,3.309032528E-2,-3.725647328E-2,-1.905675994E0,1.906327361E0
1.193068200E1,2.889176862E-2,-2.230054503E-2,-2.144162870E0,2.144473470E0
1.194068100E1,7.410139851E-3,-2.714024545E-3,-2.249434971E0,2.249448814E0
1.195067900E1,6.788215376E-3,-4.039926661E-3,-2.195136557E0,2.195150771E0
1.196067800E1,5.992571952E-2,2.818000945E-2,-2.198176525E0,2.199173763E0
1.197067600E1,-5.381561670E-2,5.669359341E-2,-2.163790219E0,2.165201699E0
1.198067400E1,3.700297136E-2,1.271284908E-1,-2.285833889E0,2.289665355E0
1.199067300E1,8.282526154E-3,7.241679284E-2,-2.285286589E0,2.286448685E0
1.200067100E1,7.591768987E-3,9.752396484E-2,-2.449395128E0,2.451347600E0
1.201067000E1,-8.595701197E-2,4.584378784E-2,-2.371301470E0,2.373301693E0
1.202066800E1,1.325757477E-2,-2.010147118E-2,-2.274344695E0,2.274472163E0
1.203066700E1,-2.827967478E-2,-1.109371760E-1,-2.119312204E0,2.122402180E0
1.204066500E1,-3.341924943E-2,2.345840108E-3,-2.203480534E0,2.203735196E0
1.205066300E1,-1.865791697E-2,9.315436799E-4,-2.266238115E0,2.266315110E0
1.206066200E1,-1.533145426E-2,1.836589880E-2,-2.337221559E0,2.337344000E0
1.207066000E1,-6.235585889E-2,6.230554999E-2,-2.414932809E0,2.416541062E0
1.208065900E1,-3.797455933E-2,6.593686734E-2,-2.452521635E0,2.453701715E0
1.209065700E1,2.333879583E-3,9.720598594E-2,-2.429184812E0,2.431130047E0
1.210065600E1,-1.527453527E-2,1.327595148E-1,-2.478432986E0,2.482033132E0
1.211065400E1,3.839296415E-2,3.816465779E-2,-2.402684646E0,2.403294420E0
1.212065200E1,4.783247156E-2,-1.526618700E-2,-2.251642295E0,2.252202040E0
1.213065100E1,1.394217409E-2,1.018613175E-2,-2.241748806E0,2.241815303E0
1.214064900E1,8.157763017E-2,-3.479456023E-2,-2.358344041E0,2.360011056E0
1.215064800E1,2.939413581E-2,-2.789429759E-2,-2.424194214E0,2.424532881E0
1.216064600E1,-3.739614179E-2,5.795657372E-2,-2.476115150E0,2.477075629E0
1.217064500E1,2.340629462E-2,3.470879346E-2,-2.551384603E0,2.551728031E0
1.218064300E1,1.387379821E-3,2.699417355E-2,-2.608083884E0,2.608223946E0
1.219064100E1,-4.457392791E-2,4.915324794E-2,-2.641425292E0,2.642258589E0
1.220064000E1,-6.442239281E-2,3.379904208E-2,-2.607847071E0,2.608861623E0
1.221063800E1,8.334694281E-3,-2.984657783E-2,-2.631594368E0,2.631776815E0
1.222063700E1,1.840221092E-2,-7.500226258E-2,-2.705485048E0,2.706587025E0
1.223063500E1,-5.723490397E-2,-1.894110265E-2,-2.812754558E0,2.813400576E0
1.224063400E1,-2.943345834E-2,-7.477932378E-2,-2.926452497E0,2.927555720E0
1.225063200E1,-1.261619003E-2,-3.170369235E-2,-3.105266783E0,3.105454248E0
1.226063000E1,-5.058793539E-2,-6.806587282E-3,-3.227189416E0,3.227593065E0
1.227062900E1,-6.773206305E-2,6.603036341E-2,-3.385036172E0,3.386357560E0
1.228062700E1,-3.488308160E-2,3.537869708E-2,-3.454703407E0,3.455060653E0
1.229062600E1,-4.630676854E-2,9.075674462E-2,-3.493231881E0,3.494717453E0
1.230062400E1,-3.903761968E-2,5.345735141E-2,-3.472032800E0,3.472663731E0
1.231062300E1,-4.148763958E-2,3.077558162E-2,-3.346346315E0,3.346744989E0
1.232062100E1,-5.239386622E-2,-8.357412770E-3,-3.252386822E0,3.252819547E0
1.233061900E1,-4.060149405E-2,-1.973965187E-2,-3.193305386E0,3.193624496E0
1.234061800E1,-1.680102400E-2,-5.496454661E-3,-3.111466001E0,3.111516216E0
1.235061600E1,-7.681865444E-2,4.595948505E-2,-3.059268492E0,3.060577901E0
1.236061500E1,-8.240897633E-2,1.217250331E-1,-3.031921064E0,3.035482427E0
1.237061300E1,-5.561718039E-2,6.304762561E-2,-2.954283489E0,2.955479522E0
1.238061200E1,-4.637428561E-2,1.925335767E-2,-2.821268104E0,2.821714900E0
1.239061000E1,-1.150063631E-1,4.631837618E-2,-2.644845328E0,2.647749736E0
1.240060800E1,-7.757420607E-2,-3.355353439E-2,-2.382364987E0,2.383863782E0
1.241060700E1,1.137685989E-1,-4.827266640E-2,-2.113328748E0,2.116939286E0
1.242060500E1,1.329888901E-2,-7.693577235E-2,-1.734611607E0,1.736367876E0
1.243060400E1,-3.393501040E-2,-4.305622827E-2,-1.608588907E0,1.609522816E0
1.244060200E1,4.182160696E-2,-6.309348057E-2,-1.602645212E0,1.604431834E0
1.245060100E1,-1.494193833E-2,-9.192260633E-2,-1.417688425E0,1.420743995E0
1.246059900E1,-3.353816718E-3,8.158284699E-2,-1.349508137E0,1.351976043E0
1.247059700E1,4.370671274E-2,-1.645877916E-2,-1.206944248E0,1.207847501E0
1.248059600E1,-2.606668638E-2,1.627051709E-1,-1.242075489E0,1.252958086E0
1.249059400E1,-1.434475489E-2,1.541526861E-1,-1.185593725E0,1.195659359E0
1.250059300E1,-2.756470649E-2,4.033736436E-2,-9.660863256E-1,9.673208902E-1
1.251059100E1,-4.261478176E-2,9.477996703E-2,-8.573263603E-1,8.636016153E-1
1.252059000E1,-1.378389727E-3,3.051931141E-2,-7.256347847E-1,7.262776116E-1
1.253058800E1,1.339850546E-1,-1.121562291E-1,-5.743205380E-1,6.003124978E-1
1.254058600E1,7.080592604E-2,-3.678756313E-2,-4.261357212E-1,4.335417591E-1
1.255058500E1,7.448132135E-2,-4.241717785E-2,-3.578718174E-1,3.679931003E-1
1.256058300E1,7.602076167E-1,-1.488989811E-1,-6.166286516E-1,9.901098025E-1
1.257058200E1,1.670330972E-1,-1.141062025E-1,-1.073952252E-1,2.290284161E-1
1.258058000E1,-2.935756148E-1,4.687401790E-1,-2.204400301E-2,5.535250085E-1
1.259057900E1,-2.460330920E-1,3.391894883E-2,1.892691082E-1,3.122588234E-1
1.260057700E1,4.339334584E-1,2.958301184E-1,-2.724632925E-1,5.916501931E-1
1.261057500E1,-1.941348687E-3,-1.338726602E-1,3.580829018E-1,3.822944187E-1
1.262057400E1,-1.948448303E-1,4.177187274E-1,3.307658798E-1,5.673266346E-1
1.263057200E1,9.181522770E-2,-1.387047170E-1,4.441533315E-1,4.742796817E-1
1.264057100E1,-4.790972790E-2,4.635231744E-3,3.252613109E-1,3.288035094E-1
1.265056900E1,-9.507682286E-2,-9.371323390E-2,4.852253437E-1,5.032548128E-1
1.266056800E1,2.899897367E-2,-1.592823936E-1,7.221299636E-1,7.400564207E-1
1.267056600E1,-2.149376174E-2,3.298747367E-2,7.342144042E-1,7.352693021E-1
1.268056400E1,-1.111860847E-2,4.138966446E-3,6.565107554E-1,6.566179456E-1
1.269056300E1,-8.394902330E-3,2.114334359E-1,6.397374326E-1,6.738238307E-1
1.270056100E1,8.183850735E-2,8.076484893E-2,6.922927916E-1,7.017761833E-1
1.271056000E1,3.737845397E-2,2.348118649E-1,6.324541408E-1,6.756715185E-1
1.272055800E1,1.221485543E-1,9.020571764E-2,6.000219744E-1,6.189375660E-1
1.273055700E1,1.472122056E-1,4.368161540E-2,6.469429564E-1,6.649170669E-1
1.274055500E1,1.847781907E-1,8.307423073E-4,6.898311138E-1,7.141502892E-1
1.275055300E1,1.396136210E-1,3.152130262E-2,6.155176806E-1,6.319395310E-1
1.276055200E1,1.837080041E-1,-3.780337067E-2,5.705467451E-1,6.005841439E-1
1.277055000E1,1.193327179E-1,5.477411239E-2,4.887605703E-1,5.060903042E-1
1.278054900E1,7.051948557E-2,1.100643969E-1,4.372208726E-1,4.563433584E-1
1.279054700E1,8.325238237E-2,1.204333740E-1,3.292403412E-1,3.603253516E-1
1.280054600E1,5.728517175E-2,1.216300615E-1,3.886229092E-1,4.112216292E-1
1.281054400E1,4.336633170E-2,4.688900047E-2,4.234518492E-1,4.282413872E-1
1.282054200E1,-7.620805895E-2,1.059898834E-1,2.924227631E-1,3.202383425E-1
1.283054100E1,1.125771008E-1,-3.385658462E-2,2.625645411E-1,2.876803959E-1
1.284053904E1,-7.962131627E-2,1.193316444E-2,4.259527034E-1,4.334947058E-1
1.285053804E1,8.424671967E-2,-5.269932842E-2,4.345434326E-1,4.457608370E-1
1.286053604E1,1.418806230E-1,-1.568845418E-1,5.222902590E-1,5.634979905E-1
1.287053504E1,5.801210856E-2,-7.380889155E-2,6.163053006E-1,6.234142930E-1
1.288053304E1,-1.652512679E-2,7.947826962E-2,6.153954738E-1,6.207265617E-1
1.289053104E1,2.158366269E-2,-3.089577845E-2,6.301918530E-1,6.313178085E-1
1.290053004E1,1.390183927E-1,-5.210582689E-2,5.015536934E-1,5.230652331E-1
1.291052804E1,-1.134210002E-2,1.475336791E-2,5.478940469E-1,5.482099887E-1
1.292052704E1,-3.426983658E-2,2.437729787E-2,6.514225084E-1,6.527786445E-1
1.293052504E1,-6.662969844E-2,1.106304805E-1,6.388129878E-1,6.517366441E-1
1.294052404E1,5.042646088E-2,1.033441371E-1,5.703684050E-1,5.818444432E-1
1.295052204E1,5.712182612E-1,-3.221035815E-2,4.695156294E-1,7.401167039E-1
1.296052004E1,-1.998486034E-1,3.193191511E-1,7.698233628E-1,8.570485368E-1
1.297051904E1,-9.392899616E-2,1.330571380E-1,7.462538213E-1,7.638204135E-1
1.298051704E1,4.580275317E-1,1.085619525E-3,4.530715048E-1,6.442547531E-1
1.299051604E1,5.694307309E-2,-2.503543625E-3,6.333306384E-1,6.358903041E-1
1.300051404E1,-1.488024655E-1,9.497753897E-2,6.766631842E-1,6.993110692E-1
1.301051304E1,1.919970353E-1,6.128750863E-2,5.797420764E-1,6.137751179E-1
1.302051104E1,1.334867622E-1,-1.743346547E-2,8.014994842E-1,8.127263159E-1
1.303050904E1,3.176207542E-2,1.847945812E-1,7.247886926E-1,7.486497950E-1
1.304050804E1,-4.828385834E-2,1.901129345E-1,7.313077533E-1,7.571560532E-1
1.305050604E1,1.570926844E-1,-8.914803855E-2,7.149378884E-1,7.374019721E-1
1.306050504E1,-4.565739870E-2,1.704718265E-1,5.626635289E-1,5.896910110E-1
1.307050304E1,2.582495883E-3,3.718636380E-2,5.042515987E-1,5.056275010E-1
1.308050204E1,5.476900522E-2,3.646190291E-2,4.778777325E-1,4.823859881E-1
1.309050004E1,-8.393842522E-3,6.471693716E-3,5.151356059E-1,5.152446331E-1
1.310049804E1,2.291889265E-2,-5.967148669E-3,5.291964054E-1,5.297260783E-1
1.311049704E1,1.397475405E-2,5.137613093E-2,5.362341142E-1,5.388708804E-1
1.312049504E1,8.516157137E-2,2.350527702E-2,5.660344487E-1,5.728874134E-1
1.313049404E1,8.178021792E-2,6.401348057E-2,5.063355464E-1,5.168765958E-1
1.314049204E1,4.948769040E-2,1.019777707E-1,5.232819468E-1,5.354180545E-1
1.315049104E1,9.815382874E-2,2.180096897E-2,5.887315857E-1,5.972556709E-1
1.316048904E1,3.576367227E-2,1.186786338E-1,5.592861772E-1,5.728566019E-1
1.317048704E1,8.000315772E-2,3.069056859E-2,5.513988680E-1,5.580171394E-1
1.318048604E1,1.073080468E-1,4.807576598E-2,5.565420789E-1,5.688280775E-1
1.319048404E1,7.223049050E-2,7.133819169E-2,4.854943156E-1,4.959950724E-1
1.320048304E1,1.181890574E-1,-4.229705868E-2,5.199788547E-1,5.349165390E-1
1.321048104E1,6.887365881E-2,4.877909466E-2,5.555141383E-1,5.618887246E-1
1.322048004E1,9.781322842E-2,-1.901991672E-2,6.557196271E-1,6.632476267E-1
1.323047804E1,1.057801511E-1,-2.889679129E-2,6.987451941E-1,7.072971873E-1
1.324047604E1,6.960266043E-2,1.922083710E-2,6.810012335E-1,6.848186993E-1
1.325047504E1,8.984709146E-2,-1.833656793E-2,7.039702660E-1,7.099175057E-1
1.326047304E1,6.058055285E-2,5.360917802E-2,6.663124430E-1,6.712050499E-1
1.327047204E1,6.957227318E-2,5.062822636E-2,6.386785018E-1,6.444484054E-1
1.328047004E1,5.863333868E-2,6.078754886E-2,5.680768812E-1,5.743207618E-1
1.329046904E1,4.445208656E-2,2.398493600E-2,6.203656071E-1,6.224184699E-1
1.330046704E1,4.957126904E-2,6.818427209E-2,6.930043977E-1,6.981128139E-1
1.331046504E1,8.284715205E-2,6.560044231E-2,7.966240758E-1,8.036025054E-1
1.332046404E1,2.461087586E-2,1.311654176E-1,8.550225574E-1,8.653748527E-1
1.333046204E1,3.780413127E-2,4.781873060E-2,1.027777374E0,1.029583467E0
1.334046104E1,6.554551503E-2,5.390027342E-2,1.151725482E0,1.154847627E0
1.335045904E1,4.105229611E-2,-1.074959891E-2,1.405291743E0,1.405932334E0
1.336045804E1,4.898004245E-2,7.869252261E-2,1.580119398E0,1.582835705E0
1.337045604E1,8.404007541E-2,5.075681943E-2,1.682036367E0,1.684899204E0
1.338045404E1,9.160450866E-2,7.418750790E-2,1.790533792E0,1.794409773E0
1.339045304E1,8.462092320E-2,1.255933683E-1,1.999012758E0,2.004740981E0
1.340045104E1,7.931208992E-2,5.291832949E-2,2.353579729E0,2.355510199E0
1.341045004E1,1.737850599E-1,3.990310353E-2,2.643920884E0,2.649926630E0
1.342044804E1,8.920709543E-2,9.929642036E-2,3.024372309E0,3.027316559E0
1.343044704E1,1.856122778E-1,4.548560476E-2,3.388649751E0,3.394034177E0
1.344044504E1,1.686556265E-1,6.161428120E-2,3.665042957E0,3.669438774E0
1.345044304E1,1.190647693E-1,8.745862263E-2,3.807017446E0,3.809882841E0
1.346044204E1,1.555364663E-1,8.847399163E-2,3.828784876E0,3.832963979E0
1.347044004E1,1.255935327E-1,1.085622289E-1,3.972695963E0,3.976163063E0
1.348043904E1,1.283818506E-1,8.623988930E-2,4.198336506E0,4.201184195E0
1.349043704E1,1.221109493E-1,7.943949527E-2,4.310962066E0,4.313422731E0
1.350043604E1,1.635750722E-1,-2.527060624E-1,4.608319879E0,4.618141322E0
1.351043404E1,7.819998605E-2,4.241510666E-1,3.647400738E0,3.672812479E0
1.352043204E1,3.152093625E-1,2.053539762E-1,3.551842031E0,3.571709537E0
1.353043104E1,2.338421042E-1,-2.356068852E-2,3.762990251E0,3.770322647E0
1.354042904E1,1.037720894E-1,9.939070671E-2,3.757092749E0,3.759839503E0
1.355042804E1,-2.611059532E-2,8.650719842E-2,3.792225745E0,3.793302171E0
1.356042604E1,2.164349249E-1,-1.672854594E-1,3.813126617E0,3.822925987E0
1.357042404E1,1.329022965E-1,-1.044527783E-1,3.816371237E0,3.820112933E0
1.358042304E1,2.051819036E-2,-6.732807526E-2,3.759886549E0,3.760545297E0
1.359042104E1,4.310207410E-2,3.747569819E-2,3.513607673E0,3.514071868E0
1.360042004E1,7.210649299E-2,1.284491758E-1,3.252370450E0,3.255704544E0
1.361041804E1,4.743736424E-4,4.870534026E-1,2.938314158E0,2.978407517E0
1.362041704E1,2.443488198E-1,1.290813969E-2,2.961371484E0,2.971463281E0
1.363041504E1,1.144957367E-1,-2.915858804E-1,3.196856400E0,3.212167872E0
1.364041404E1,1.292719795E-1,4.243167255E-1,2.777228045E0,2.812428051E0
1.365041204E1,3.946590630E-1,-2.997887565E-1,2.350427495E0,2.402111256E0
1.366041004E1,3.186295451E-1,3.624902772E-1,2.084177454E0,2.139326915E0
1.367040904E1,-6.652251167E-2,-2.157201211E-1,2.640810750E0,2.650441818E0
1.368040704E1,1.054095290E-1,4.265643587E-1,1.810724813E0,1.863274716E0
1.369040604E1,1.598456632E-1,-2.725434176E-1,2.098327716E0,2.121982506E0
1.370040404E1,1.149143608E-1,3.588555017E-1,1.468472663E0,1.516045693E0
1.371040304E1,-1.131865451E-1,-2.527531325E-1,1.664790004E0,1.687667354E0
1.372040104E1,1.564640174E-1,2.823802616E-1,9.048677319E-1,9.607316031E-1
1.373039904E1,-2.026696839E-1,5.473625167E-2,9.628580779E-1,9.854779227E-1
1.374039804E1,2.903146226E-2,2.694566451E-2,6.680397105E-1,6.692129328E-1
1.375039604E1,5.769246686E-2,-1.863259670E-1,5.682686698E-1,6.008120071E-1
1.376039504E1,-9.625284411E-2,2.394500956E-1,3.149251878E-1,4.071594678E-1
1.377039304E1,-9.877993762E-3,-1.168756996E-1,3.352202886E-1,3.551480619E-1
1.378039204E1,1.184935694E-1,-5.545495213E-2,1.287089109E-2,1.314596422E-1
1.379039004E1,-6.642835323E-2,6.546057508E-2,-1.398987275E-1,1.681352639E-1
1.380038804E1,-1.491984682E-2,8.451445819E-2,-2.709576344E-1,2.842240932E-1
1.381038704E1,7.890026322E-2,9.139197151E-2,-4.015592891E-1,4.193180257E-1
1.382038504E1,2.090036072E-1,1.316358718E-1,-4.780373615E-1,5.380801330E-1
1.383038404E1,9.862728875E-2,-4.305850320E-2,-3.840375227E-1,3.988310364E-1
1.384038212E1,1.218921538E-2,-2.254304459E-2,-4.684888583E-1,4.691892755E-1
1.385038112E1,2.456115626E-2,7.247853122E-2,-7.731358105E-1,7.769140038E-1
1.386037912E1,4.699281139E-2,-1.415205076E-1,-9.770463467E-1,9.883602288E-1
1.387037712E1,1.540319229E-2,1.173210473E-1,-1.260304184E0,1.265846801E0
1.388037612E1,-8.072245661E-2,4.506880792E-2,-1.286089236E0,1.289407939E0
1.389037412E1,-5.369775876E-2,1.259041432E-3,-1.410053716E0,1.411076368E0
1.390037312E1,6.005795795E-2,6.799378533E-2,-1.498693412E0,1.501436664E0
1.391037113E1,2.561029110E-1,1.541341463E-2,-1.524074421E0,1.545519044E0
1.392037012E1,-1.463354339E-1,-5.562659075E-2,-1.345269490E0,1.354347953E0
1.393036813E1,-2.730773963E-2,1.479771036E-1,-1.575865549E0,1.583033532E0
1.394036612E1,9.967152838E-2,-1.400256761E-1,-1.531938341E0,1.541550092E0
1.395036512E1,-1.917630918E-3,6.009784693E-2,-1.677077343E0,1.678154893E0
1.396036312E1,-1.441878247E-1,1.418379749E-1,-1.681494330E0,1.693614868E0
1.397036212E1,6.309898518E-2,3.424116924E-2,-1.765548640E0,1.767007623E0
1.398036012E1,-3.058276512E-4,3.195214419E-2,-1.851099837E0,1.851375607E0
1.399035912E1,-1.112248591E-1,1.920260521E-1,-1.999669400E0,2.011945001E0
1.400035712E1,-1.842640378E-3,-8.573023137E-2,-2.014862221E0,2.016686103E0
1.401035513E1,1.463097610E-2,1.109223661E-4,-2.164026446E0,2.164075909E0
1.402035412E1,-9.367747452E-2,3.193188222E-2,-2.247919373E0,2.250097025E0
1.403035213E1,3.781248182E-3,-8.607478769E-2,-2.325075138E0,2.326670918E0
1.404035113E1,-3.491019806E-2,-8.170826976E-2,-2.434703999E0,2.436324799E0
1.405034912E1,-1.047072053E-1,4.891996688E-2,-2.565715544E0,2.568317156E0
1.406034813E1,-7.248478957E-2,8.688894851E-2,-2.629044982E0,2.631478910E0
1.407034612E1,7.349306881E-2,-4.276550288E-2,-2.637413517E0,2.638783845E0
1.408034412E1,9.329488389E-3,1.539639490E-1,-2.812662756E0,2.816889014E0
1.409034312E1,9.473432221E-2,7.765261358E-2,-2.800944936E0,2.803622132E0
1.410034112E1,1.038429686E-1,1.754491432E-2,-2.676365914E0,2.678437173E0
1.411034012E1,1.114705883E-1,-5.420542499E-3,-2.585011940E0,2.587419913E0
1.412033812E1,1.388506141E-1,2.220626324E-2,-2.483183264E0,2.487161381E0
1.413033613E1,6.804390237E-2,2.070173354E-2,-2.366243629E0,2.367312283E0
1.414033513E1,2.590594277E-2,9.107150755E-2,-2.436113178E0,2.437952533E0
1.415033312E1,2.837386977E-2,2.745157200E-2,-2.464824176E0,2.465140338E0
1.416033213E1,-4.708779210E-2,5.923657490E-2,-2.550261353E0,2.551383781E0
1.417033012E1,-6.443339288E-2,8.393435044E-2,-2.687636422E0,2.689718605E0
1.418032912E1,-7.584587876E-2,-3.110664366E-2,-2.646724623E0,2.647993854E0
1.419032712E1,-9.239362696E-2,-2.665366461E-2,-2.488142872E0,2.490000392E0
1.420032612E1,-6.273362556E-2,-2.482235092E-2,-2.318472462E0,2.319453861E0
1.421032412E1,-4.280695416E-2,-6.879486301E-2,-2.305221502E0,2.306645040E0
1.422032212E1,-5.573988056E-2,-5.665902175E-2,-2.461258544E0,2.462541533E0
1.423032112E1,-4.414803134E-2,-5.479455938E-2,-2.627767950E0,2.628709929E0
1.424031913E1,-1.738960108E-2,-6.202579727E-2,-2.723468744E0,2.724230460E0
1.425031813E1,-2.771878062E-2,-2.672463062E-2,-2.770365168E0,2.770632726E0
1.426031613E1,-6.118784102E-2,1.424911454E-1,-2.911415212E0,2.915542182E0
1.427031513E1,-2.150267875E-2,4.405575040E-2,-2.954123860E0,2.954530598E0
1.428031312E1,-1.508439112E-2,1.717792639E-1,-3.079022141E0,3.083847110E0
1.429031112E1,-1.006167673E-1,1.488364525E-1,-3.073395950E0,3.078642345E0
1.430031012E1,2.489435619E-2,3.325639305E-2,-3.126593333E0,3.126869295E0
1.431030812E1,1.773310672E-2,5.491524499E-2,-3.160947479E0,3.161474199E0
1.432030712E1,-1.036109255E-1,1.287881681E-2,-3.120756642E0,3.122502699E0
1.433030512E1,-1.121945467E-1,-3.919036905E-2,-3.130860631E0,3.133115349E0
1.434030412E1,-1.203696851E-2,-6.767142103E-2,-3.222395868E0,3.223128828E0
1.435030212E1,9.801577963E-4,-6.381173793E-2,-3.292241444E0,3.292859946E0
1.436030013E1,-1.047618585E-1,-1.881005079E-2,-3.232313331E0,3.234065295E0
1.437029913E1,-8.648653217E-2,4.253891871E-2,-3.214599191E0,3.216043756E0
1.438029712E1,-2.017077439E-2,-3.137217349E-2,-3.061723738E0,3.061950901E0
1.439029612E1,-1.027048811E-2,1.714155123E-2,-3.002118391E0,3.002184896E0
1.440029412E1,-6.579661639E-2,5.123688382E-3,-2.910487259E0,2.911235396E0
1.441029312E1,-4.438025717E-2,-9.971777620E-3,-2.739235176E0,2.739612819E0
1.442029112E1,3.127134785E-2,-6.017840146E-2,-2.620246677E0,2.621124183E0
1.443028912E1,1.378468299E-2,-1.673184413E-2,-2.554713423E0,2.554805402E0
1.444028812E1,1.651257355E-2,2.993128936E-2,-2.434428011E0,2.434668003E0
1.445028612E1,7.969373038E-2,4.134775180E-3,-2.148165874E0,2.149647601E0
1.446028512E1,7.227874830E-2,2.674141852E-2,-1.834241729E0,1.835860028E0
1.447028313E1,3.567870492E-2,7.571327030E-2,-1.536503263E0,1.538781253E0
1.448028213E1,-5.999075152E-2,1.046383543E-1,-1.271983413E0,1.277689273E0
1.449028012E1,-9.757488130E-2,1.071718067E-1,-1.253830147E0,1.262179342E0
1.450027812E1,-1.000463166E-1,7.276055887E-2,-1.343872005E0,1.349553753E0
1.451027712E1,-5.520824075E-2,-3.082022146E-2,-1.156054176E0,1.157781972E0
1.452027512E1,-4.454662872E-2,-3.859219432E-2,-7.541528249E-1,7.564524062E-1
1.453027412E1,5.326734157E-1,-2.209252348E-2,-8.612381476E-1,1.012896932E0
1.454027212E1,2.709369134E-1,-2.864516778E-1,-5.130580902E-1,6.470625771E-1
1.455027112E1,-2.541034921E-1,2.083378834E-1,-3.961032522E-1,5.146562394E-1
1.456026912E1,-2.114080736E-1,1.301232062E-1,-2.216299385E-1,3.327840922E-1
1.457026713E1,4.435338190E-1,-2.291950935E-2,-2.488042885E-1,5.090688819E-1
1.458026613E1,-1.469630594E-1,6.659954874E-2,2.678422379E-1,3.126869123E-1
1.459026412E1,-3.296672976E-2,3.411777608E-1,7.946249127E-2,3.518570126E-1
1.460026313E1,-2.116666485E-2,-6.392045959E-4,1.262653595E-1,1.280288143E-1
1.461026112E1,9.954979666E-2,3.661781800E-2,-4.352199554E-2,1.146524780E-1
1.462026012E1,-1.287239858E-1,3.690105165E-2,1.450600648E-1,1.974182730E-1
1.463025812E1,9.962763771E-2,-1.033594678E-1,3.903776586E-1,4.159369689E-1
1.464025612E1,9.115524150E-2,-1.832274726E-1,6.830044895E-1,7.130054120E-1
1.465025512E1,3.777593672E-3,1.282537417E-1,5.611578709E-1,5.756400338E-1
1.466025312E1,4.317739354E-2,7.213539102E-2,4.291470373E-1,4.373042208E-1
1.467025212E1,5.593219914E-2,1.520241169E-1,2.104956704E-1,2.656090554E-1
1.468025013E1,6.137676090E-2,1.599227551E-1,6.251433671E-2,1.823470226E-1
1.469024912E1,9.909376865E-2,1.850010496E-2,2.206657326E-1,2.426008953E-1
1.470024713E1,7.066360116E-3,1.405327850E-1,3.849555355E-1,4.098660286E-1
1.471024512E1,1.235299224E-1,-9.502603431E-2,4.275606877E-1,4.550799167E-1
1.472024412E1,9.245608253E-2,4.244664291E-3,2.656916320E-1,2.813506490E-1
1.473024212E1,1.517396316E-2,5.509436622E-2,2.457274836E-1,2.522848282E-1
1.474024112E1,1.139471948E-1,-7.686042777E-3,3.107917911E-1,3.311111231E-1
1.475023912E1,2.522812257E-2,8.717139644E-2,3.843854320E-1,3.949524919E-1
1.476023812E1,-2.023209706E-2,1.054530634E-1,3.731020600E-1,3.882458415E-1
1.477023612E1,1.200303273E-1,1.620903682E-2,1.706568360E-1,2.092696061E-1
1.478023413E1,-2.361284751E-2,9.987049816E-2,-6.233307302E-2,1.200712079E-1
1.479023312E1,-1.455980452E-2,7.899190919E-2,-6.106481194E-2,1.008990628E-1
1.480023113E1,7.069839209E-2,-4.862185024E-2,9.556455374E-2,1.284325928E-1
1.481023013E1,4.468330739E-2,4.856150287E-3,3.141469234E-1,3.173459778E-1
1.482022812E1,9.268790636E-2,1.415483002E-2,3.884153330E-1,3.995721188E-1
1.483022712E1,1.165535363E-1,-6.584172675E-2,2.301937705E-1,2.662874984E-1
1.484022500E1,7.722971370E-2,1.965022373E-2,1.704586154E-1,1.881666802E-1
1.485022300E1,1.113828435E-1,-4.941615794E-2,1.830160958E-1,2.198703841E-1
1.486022200E1,4.475436933E-2,-1.876343980E-2,2.713043743E-1,2.756103840E-1
1.487022000E1,9.115809202E-2,5.807125680E-2,3.384707558E-1,3.553090502E-1
1.488021900E1,6.830487091E-2,6.133659555E-3,3.333240366E-1,3.403058779E-1
1.489021700E1,-4.254823314E-2,1.550324728E-1,2.144086272E-1,2.679859682E-1
1.490021600E1,8.456374839E-2,6.685938895E-2,1.120735824E-2,1.083827030E-1
1.491021400E1,-3.632805649E-2,9.334737179E-2,-5.309271812E-4,1.001685649E-1
1.492021200E1,9.917117117E-2,3.483944903E-2,4.774543941E-2,1.154484101E-1
1.493021100E1,1.779738955E-2,4.366082580E-2,1.812034589E-1,1.872370377E-1
1.494020900E1,1.112161065E-1,-2.790879914E-2,3.415996009E-1,3.603306964E-1
1.495020800E1,7.650845965E-2,-2.438486271E-2,5.756478560E-1,5.812216617E-1
1.496020600E1,7.201460034E-2,6.969329227E-2,5.673442250E-1,5.761273534E-1
1.497020500E1,3.598135315E-2,6.523591409E-2,5.621834725E-1,5.670984386E-1
1.498020300E1,5.963262783E-2,1.316213451E-1,4.157253385E-1,4.401224669E-1
1.499020100E1,1.095603760E-2,1.054055913E-1,3.306483507E-1,3.472156466E-1
1.500020000E1,3.235821733E-2,9.533093920E-2,2.115984553E-1,2.343265851E-1
1.501019800E1,4.804242315E-2,1.719143928E-3,2.569120377E-1,2.613710485E-1
1.502019700E1,5.948811024E-3,3.071575730E-2,5.278176320E-1,5.287440768E-1
1.503019500E1,7.761029435E-2,-5.012828942E-2,7.081586266E-1,7.141602366E-1
1.504019400E1,1.373476239E-2,9.778851480E-2,6.280494332E-1,6.357651515E-1
1.505019200E1,7.168596854E-2,-1.580735823E-2,6.756329048E-1,6.796091323E-1
1.506019000E1,6.286686899E-2,4.876035159E-2,9.267965448E-1,9.302051658E-1
1.507018900E1,4.692847375E-2,4.738271104E-2,9.844179314E-1,9.866742455E-1
1.508018700E1,4.393086210E-2,9.194351926E-2,8.285954815E-1,8.348377108E-1
1.509018600E1,5.685949445E-2,4.817610968E-2,7.137965119E-1,7.176763895E-1
1.510018400E1,4.976470225E-2,6.602971930E-2,5.789421773E-1,5.848166329E-1
1.511018300E1,2.811781654E-2,3.886294782E-2,6.264168906E-1,6.282507948E-1
1.512018100E1,9.529212831E-2,-1.139116181E-2,7.087743384E-1,7.152422044E-1
1.513017900E1,7.800203953E-2,7.822987994E-2,6.315647793E-1,6.411538838E-1
1.514017800E1,8.241264911E-2,7.105359674E-2,5.254693902E-1,5.366176836E-1
1.515017600E1,1.422239642E-1,-5.645685883E-2,6.380721456E-1,6.561639245E-1
1.516017500E1,7.225159530E-2,4.857534204E-2,7.548667699E-1,7.598708424E-1
1.517017300E1,8.032541240E-2,4.400276001E-2,7.863411623E-1,7.916570206E-1
1.518017200E1,1.318301547E-1,-3.318836892E-2,7.498603839E-1,7.620834946E-1
1.519017000E1,2.694535844E-2,1.281200872E-1,7.002105063E-1,7.123451146E-1
1.520016800E1,9.606529467E-2,1.662354559E-3,7.375245130E-1,7.437564867E-1
1.521016700E1,9.036162816E-2,1.573294784E-2,7.374163395E-1,7.430986525E-1
1.522016500E1,2.617001764E-2,1.107960297E-1,6.705464119E-1,6.801419855E-1
1.523016400E1,9.606849236E-2,-2.348044006E-2,6.973786998E-1,7.043561153E-1
1.524016200E1,5.392203603E-2,8.642213970E-2,6.403835499E-1,6.484346252E-1
1.525016100E1,3.806442373E-2,2.734123093E-2,6.967045158E-1,6.982790457E-1
1.526015900E1,7.035216384E-2,-1.656752710E-2,7.669365925E-1,7.703347628E-1
1.527015700E1,1.257007012E-2,6.121716846E-2,8.108158529E-1,8.132206931E-1
1.528015600E1,6.648841510E-2,1.037324151E-2,8.747487241E-1,8.773332570E-1
1.529015400E1,-3.012924045E-3,1.120418156E-1,8.774565697E-1,8.845860488E-1
1.530015300E1,8.511336839E-2,3.396354527E-2,9.560489953E-1,9.604308873E-1
1.531015100E1,2.922151504E-2,1.487004042E-1,9.713189989E-1,9.830698372E-1
1.532014900E1,9.798060497E-2,1.883378569E-2,8.714719445E-1,8.771648992E-1
1.533014800E1,4.770284610E-2,1.149100759E-1,8.301490867E-1,8.394208678E-1
1.534014600E1,8.407422680E-2,3.996644989E-2,8.512394089E-1,8.563143838E-1
1.535014500E1,9.914193509E-2,-1.902859847E-2,1.004947506E0,1.010005297E0
1.536014300E1,4.744518489E-2,9.350943103E-2,1.080069609E0,1.085147648E0
1.537014200E1,9.794374924E-2,4.206828409E-3,1.212818946E0,1.216774618E0
1.538014000E1,7.396088261E-2,1.167453981E-1,1.238385896E0,1.246073564E0
1.539013900E1,6.584748717E-2,5.379076147E-2,1.298826225E0,1.301606277E0
1.540013700E1,5.240863044E-2,6.762208514E-2,1.400276002E0,1.402887127E0
1.541013500E1,7.272436095E-2,9.807943662E-3,1.510559751E0,1.512341162E0
1.542013400E1,5.578044562E-2,6.431345187E-2,1.629974513E0,1.632196248E0
1.543013200E1,6.671895985E-2,5.035427974E-2,1.788004872E0,1.789957651E0
1.544013100E1,5.682662213E-2,2.946736305E-2,1.936002578E0,1.937060549E0
1.545012900E1,8.208275652E-2,3.556398986E-2,2.106754723E0,2.108653087E0
1.546012800E1,9.897086749E-2,1.951407040E-2,2.321814730E0,2.324005093E0
1.547012600E1,9.912463099E-2,5.325194968E-2,2.473713114E0,2.476270993E0
1.548012400E1,1.476324194E-1,5.400828703E-2,2.637133436E0,2.641814714E0
1.549012300E1,1.617781132E-1,3.635691341E-2,2.856685858E0,2.861494029E0
1.550012100E1,1.410958536E-1,2.501201998E-2,3.074291158E0,3.077628920E0
1.551012000E1,1.050119549E-1,9.044313286E-2,3.339644237E0,3.342518676E0
1.552011800E1,1.373935976E-1,6.541673467E-2,3.670260428E0,3.673413665E0
1.553011700E1,1.347697510E-1,7.111012287E-2,3.906572725E0,3.909543450E0
1.554011500E1,8.959560636E-2,1.102455601E-1,3.985261629E0,3.987792837E0
1.555011300E1,1.142815459E-1,6.819339923E-2,3.923094617E0,3.925351193E0
1.556011200E1,1.194444363E-1,4.169690595E-2,3.827549359E0,3.829639631E0
1.557011000E1,9.039380612E-2,1.083847933E-1,3.823017182E0,3.825621346E0
1.558010900E1,1.150340277E-1,1.566399638E-2,3.916383768E0,3.918104134E0
1.559010700E1,1.349094081E-1,-1.448579498E-2,3.929665718E0,3.932007508E0
1.560010600E1,1.306921951E-1,5.940234347E-2,3.928879852E0,3.931501746E0
1.561010400E1,1.590432790E-1,7.652294065E-2,3.962824109E0,3.966752506E0
1.562010200E1,1.479450445E-1,6.822858759E-2,3.956653542E0,3.960006329E0
1.563010100E1,9.104790855E-2,1.249043287E-1,3.843163179E0,3.846270146E0
1.564009900E1,8.795897070E-2,9.488068532E-2,3.704829751E0,3.707088158E0
1.565009800E1,1.236864085E-1,3.850339887E-2,3.653619837E0,3.655915583E0
1.566009600E1,5.840454809E-2,3.532401191E-2,3.604364646E0,3.605010871E0
1.567009500E1,-1.523886725E-2,-3.682350935E-1,4.015901624E0,4.032777599E0
1.568009300E1,8.067995466E-2,6.307781826E-1,2.694377092E0,2.768403563E0
1.569009100E1,3.237631812E-1,2.211201526E-1,2.584121409E0,2.613694737E0
1.570009000E1,1.299662268E-1,-1.836554522E-1,3.156767889E0,3.164775514E0
1.571008800E1,8.476072647E-2,1.251759867E-1,2.969306155E0,2.973151939E0
1.572008700E1,2.928431779E-2,-1.126628082E-1,2.844390918E0,2.846771887E0
1.573008500E1,1.816655717E-1,1.198931096E-1,2.387326350E0,2.397228366E0
1.574008400E1,2.262124562E-1,-9.796534739E-2,2.166312708E0,2.180293566E0
1.575008200E1,5.444607446E-2,1.624324166E-1,1.942471937E0,1.950011767E0
1.576008000E1,1.151773210E-1,1.402134631E-1,1.781184679E0,1.790403444E0
1.577007900E1,1.973435283E-6,1.415166064E-1,1.574993144E0,1.581338153E0
1.578007700E1,1.773574711E-1,1.758377797E-1,1.179429590E0,1.205582330E0
1.579007600E1,6.350247961E-2,2.171911709E-2,1.161675104E0,1.163612192E0
1.580007400E1,2.114654677E-2,1.539310036E-1,9.779053026E-1,9.901720614E-1
1.581007300E1,4.874460066E-2,-1.902421214E-1,9.005565798E-1,9.217213539E-1
1.582007100E1,1.215219703E-1,-4.811818114E-2,4.540544218E-1,4.724916577E-1
1.583006900E1,-6.556033406E-2,-7.608675207E-2,4.006465387E-1,4.130435815E-1
1.584006787E1,1.030442937E-1,-1.561002155E-3,1.291310799E-1,1.652131926E-1
1.585006587E1,-8.471864479E-2,1.328932790E-1,6.476259112E-2,1.703879854E-1
1.586006487E1,1.527689425E-1,-3.266134978E-2,-7.953967452E-2,1.753045162E-1
1.587006287E1,-5.535432978E-2,1.113490941E-1,-1.313623774E-1,1.808833790E-1
1.588006187E1,-7.223405365E-2,4.263694637E-2,-1.966518027E-1,2.137933563E-1
1.589005988E1,1.403980615E-1,-8.738847432E-2,-5.906687683E-1,6.133823888E-1
1.590005787E1,6.056757934E-2,1.134837481E-1,-9.604601347E-1,9.690359452E-1
1.591005688E1,-5.000120385E-2,3.101827076E-2,-9.232566404E-1,9.251297626E-1
1.592005487E1,-9.511641948E-2,1.171128864E-1,-1.124193283E0,1.134272057E0
1.593005387E1,6.774850834E-2,-5.470989580E-3,-1.283360925E0,1.285159545E0
1.594005187E1,2.675248620E-1,-1.604078433E-2,-1.574594364E0,1.597239578E0
1.595005087E1,-9.215699745E-2,1.123261090E-1,-1.671393265E0,1.677696490E0
1.596004887E1,-9.363798754E-2,1.016469919E-1,-1.726420242E0,1.731943139E0
1.597004687E1,1.637234270E-1,6.003514468E-2,-1.893564656E0,1.901577420E0
1.598004587E1,1.147403147E-1,-9.030179470E-3,-1.950863276E0,1.954255461E0
1.599004388E1,-2.920342156E-1,2.419094528E-1,-2.077139161E0,2.111471349E0
1.600004288E1,1.116180660E-1,-4.387607643E-2,-2.281405792E0,2.284555994E0
1.601004088E1,-5.233720304E-2,-8.313848044E-2,-2.334484477E0,2.336550655E0
1.602003988E1,-4.835996350E-2,9.857071694E-2,-2.539331152E0,2.541703676E0
1.603003787E1,-1.697077416E-1,-5.936641507E-2,-2.425174207E0,2.431829563E0
1.604003587E1,-5.028358782E-2,-1.179393082E-1,-2.528650044E0,2.531898332E0
1.605003487E1,-8.184802735E-2,-6.285540754E-2,-2.598865748E0,2.600913893E0
1.606003287E1,-6.684008857E-2,1.811158055E-1,-2.790147468E0,2.796818447E0
1.607003187E1,1.516311292E-1,2.456529727E-2,-2.853574555E0,2.857705932E0
1.608002987E1,1.005823053E-1,9.302051243E-2,-2.873134076E0,2.876398622E0
1.609002887E1,2.024459731E-1,1.409763146E-1,-2.924285519E0,2.934672808E0
1.610002688E1,1.762101195E-1,-3.262755470E-2,-2.805111077E0,2.810829543E0
