"Time (s)","Linear Acceleration x (m/s^2)","Linear Acceleration y (m/s^2)","Linear Acceleration z (m/s^2)","Absolute acceleration (m/s^2)"
1.280291667E-2,2.248927762E-2,2.182738194E-3,-2.291699231E-2,3.218261161E-2
2.280091666E-2,1.954950772E-2,1.514958758E-3,-1.737675548E-2,2.619980884E-2
3.279991666E-2,3.633103492E-3,5.290076500E-3,-1.228733897E-2,1.386228875E-2
4.279891666E-2,9.577821465E-3,6.063653994E-3,-3.264500499E-2,3.455718325E-2
5.279791667E-2,8.691237392E-3,-1.540408764E-2,-1.977294445E-2,2.652909451E-2
6.279591666E-2,1.875482543E-2,-1.110542483E-2,-2.590784311E-2,3.385690878E-2
7.279491666E-2,2.267287105E-2,-1.004929891E-2,-3.189539194E-2,4.040251870E-2
8.279391666E-2,2.639815042E-2,1.781418202E-3,-1.976826668E-2,3.302756672E-2
9.279191666E-2,2.901582096E-2,-6.943002138E-3,-8.241650462E-3,3.095234962E-2
1.027909167E-1,1.766078398E-2,-7.265622262E-3,-1.467592657E-2,2.408475406E-2
1.127899167E-1,2.101152177E-2,-1.009350020E-2,-1.752118170E-2,2.916084021E-2
1.227889167E-1,1.957712668E-2,-1.782357411E-2,-2.860048592E-2,3.897347147E-2
1.327869167E-1,7.962893592E-3,-2.101431747E-2,-2.470624030E-2,3.339771733E-2
1.427859167E-1,1.826253556E-2,-1.870886997E-2,-1.617339849E-2,3.074281769E-2
1.527849167E-1,1.393875713E-2,-1.839102812E-2,-2.290880620E-2,3.251664600E-2
1.627829167E-1,1.026389172E-2,-1.360558460E-2,-2.335728765E-2,2.891405008E-2
1.727819167E-1,1.655557799E-2,-1.279140551E-2,-2.919397831E-2,3.591650856E-2
1.827809167E-1,1.119586481E-2,-1.592181290E-2,-3.652989507E-2,4.139184399E-2
1.927799167E-1,2.379727235E-2,-1.834626951E-2,-2.635047734E-2,3.996552805E-2
2.027779167E-1,2.189531014E-2,-1.902821017E-2,-2.185806155E-2,3.632151213E-2
2.127769167E-1,2.507282417E-2,-9.125365745E-3,-2.500035524E-2,3.656414329E-2
2.227759167E-1,2.465881390E-2,-1.691780386E-2,-2.499918580E-2,3.897728160E-2
2.327749167E-1,2.333630162E-2,-1.876647418E-2,-2.499977052E-2,3.900964051E-2
2.427729167E-1,2.375484349E-2,-1.650182929E-2,-2.350288332E-2,3.726913580E-2
2.527719167E-1,1.344083930E-2,-2.325163577E-2,-2.245506227E-2,3.500749275E-2
2.627709167E-1,9.864554303E-3,-2.673567181E-2,-3.966984987E-2,4.884467798E-2
2.727689166E-1,3.596631484E-3,-1.133126440E-3,-3.832206666E-2,3.850714904E-2
2.827679167E-1,4.042774038E-3,-1.345864590E-4,-1.571965456E-2,1.623174898E-2
2.927669167E-1,1.517230949E-2,-8.749874001E-3,-2.440218508E-2,3.003707554E-2
3.027659167E-1,2.213167470E-2,-9.706588117E-3,-2.155751467E-2,3.238449191E-2
3.127639166E-1,1.904862975E-2,-1.393402454E-2,-2.784561038E-2,3.650185410E-2
3.227629167E-1,3.014902049E-2,-9.811326368E-3,-2.230361938E-2,3.876437797E-2
3.327619167E-1,2.473989833E-2,-6.399156265E-3,-2.365140259E-2,3.481954358E-2
3.427609167E-1,2.900949866E-2,9.406616818E-4,-2.858820677E-2,4.073967873E-2
3.527589166E-1,1.965134977E-2,1.111541991E-2,-2.424606442E-2,3.313004298E-2
3.627579166E-1,8.900558576E-3,-2.891201461E-3,-2.649139524E-2,2.809578279E-2
3.727569167E-1,2.295452412E-3,-7.777655628E-3,-2.334734738E-2,2.471557522E-2
3.827549166E-1,9.261934776E-3,-1.282903782E-2,-3.278007567E-2,3.639918966E-2
3.927539166E-1,2.560376963E-3,-9.020700585E-3,-1.317143798E-2,1.616834400E-2
4.027529166E-1,1.607630731E-2,-8.145116586E-3,-2.020388424E-2,2.707374225E-2
4.127519167E-1,2.508270049E-2,-6.316454709E-3,-2.544415891E-2,3.628284287E-2
4.227499166E-1,2.307027158E-2,-1.505285271E-2,-1.990743041E-2,3.398722688E-2
4.327489166E-1,3.208647712E-2,-1.858889242E-2,-3.233217895E-2,4.919815780E-2
4.427479166E-1,2.646168407E-2,-2.770425394E-2,-2.694280028E-2,4.683653379E-2
4.527467916E-1,2.027192208E-2,-1.863564273E-2,-2.275093138E-2,3.571894292E-2
4.627447916E-1,1.511560064E-2,-1.450947278E-2,-2.080497801E-2,2.952716196E-2
4.727437916E-1,5.139382789E-3,-1.642442677E-2,-2.559794068E-2,3.084525275E-2
4.827427916E-1,1.564967983E-2,-7.770666378E-3,-2.574996829E-2,3.111842865E-2
4.927407916E-1,9.104041681E-3,-1.215149171E-2,-2.515062869E-2,2.937850318E-2
5.027397916E-1,1.458495668E-2,-1.999997173E-2,-2.111078739E-2,3.253283226E-2
5.127387916E-1,2.119782868E-2,-1.591233859E-2,-2.679954350E-2,3.769304965E-2
5.227377916E-1,2.135712876E-2,4.319904651E-4,-2.934308231E-2,3.629504159E-2
5.327357917E-1,2.225917141E-2,-2.549020573E-5,-3.293736577E-2,3.975350834E-2
5.427347916E-1,2.051539466E-2,1.287757885E-3,-2.769767582E-2,3.449204233E-2
5.527337916E-1,2.452751650E-2,-3.801393667E-3,-2.455245852E-2,3.491235997E-2
5.627317917E-1,1.184166237E-2,-4.356303569E-3,-2.500035524E-2,2.800393027E-2
5.727307917E-1,6.750994194E-3,-5.169660402E-3,-2.170427978E-2,2.331044985E-2
5.827297916E-1,5.726260515E-3,-1.101802723E-2,-1.706159055E-2,2.110177375E-2
5.927287916E-1,8.900302760E-3,-2.746830052E-3,-2.679194212E-2,2.836491895E-2
6.027267917E-1,1.139800488E-2,3.214424578E-3,-2.828707516E-2,3.066603434E-2
6.127257917E-1,1.671495116E-2,3.044800507E-3,-2.274976194E-2,2.839387383E-2
6.227247917E-1,2.360997872E-2,-2.879543575E-3,-3.023478270E-2,3.846901287E-2
6.327237916E-1,2.055833515E-2,-7.491333922E-3,-2.274859250E-2,3.156364505E-2
6.427217917E-1,1.710014563E-2,-1.807797368E-2,-2.798886716E-2,3.745136577E-2
6.527207917E-1,1.413807409E-2,-1.201253811E-2,-3.128084958E-2,3.636863705E-2
6.627197917E-1,1.462512888E-2,-1.119129667E-3,-2.664049923E-2,3.041156105E-2
6.727187916E-1,1.452424614E-2,-1.347383039E-2,-2.993189692E-2,3.589451608E-2
6.827167917E-1,9.221662078E-3,-1.243338232E-2,-2.184753656E-2,2.677578946E-2
6.927157917E-1,1.375696354E-2,-1.497022424E-2,-2.274449944E-2,3.050694863E-2
7.027147917E-1,1.032952672E-2,-1.372357959E-2,-1.690839350E-2,2.410247974E-2
7.127127917E-1,1.934094485E-2,-2.067481351E-2,-2.843676388E-2,4.012691866E-2
7.227117917E-1,2.397809749E-2,-9.000874870E-3,-2.349703610E-2,3.475738214E-2
7.327107917E-1,2.127407089E-2,-8.931439184E-3,-2.319882810E-2,3.271914307E-2
7.427097917E-1,2.048803152E-2,-8.377863178E-3,-2.574470580E-2,3.395199410E-2
7.527077917E-1,1.989258396E-2,-8.605118869E-3,-2.799237549E-2,3.540248654E-2
7.627067917E-1,1.366214728E-2,-1.311132129E-2,-2.125755250E-2,2.846830787E-2
7.727057917E-1,8.961141212E-3,-1.362055896E-2,-1.900988281E-2,2.504390789E-2
7.827037917E-1,1.278771445E-2,-3.264783723E-3,-2.334968626E-2,2.682148956E-2
7.927027917E-1,1.339555993E-2,9.969831593E-3,-1.346906126E-2,2.145353535E-2
8.027017917E-1,1.596179324E-2,-6.073237946E-3,-2.200131834E-2,2.785176962E-2
8.127007917E-1,1.993663908E-2,8.652600087E-4,-3.232925534E-2,3.799209133E-2
8.226987917E-1,2.528262044E-2,7.262150478E-4,-1.750656366E-2,3.076065760E-2
8.326977917E-1,2.067847716E-2,-2.071887776E-3,-2.663640618E-2,3.378446789E-2
8.426967917E-1,1.707980828E-2,-3.383710608E-3,-2.184812129E-2,2.793760463E-2
8.526957917E-1,1.731207065E-2,7.647628170E-3,-3.262512445E-2,3.771727393E-2
8.626937917E-1,9.639701452E-3,-3.239585878E-3,-3.456932366E-2,3.603410744E-2
8.726927917E-1,2.257355061E-2,-5.879329657E-3,-1.944900870E-2,3.037096712E-2
8.826917917E-1,1.332515580E-2,-9.236079119E-3,-1.016889274E-2,1.913821606E-2
8.926907917E-1,1.955290642E-2,-1.288716280E-2,-1.286679804E-2,2.671983545E-2
9.026887917E-1,1.475113638E-2,-1.592787939E-2,-2.619143307E-2,3.401888494E-2
9.126877917E-1,6.005592970E-3,-1.625761667E-2,-2.589322507E-2,3.115824693E-2
9.226867917E-1,2.206545498E-2,-1.527522963E-2,-3.023887575E-2,4.043026775E-2
9.326847917E-1,1.957495225E-2,-1.812148062E-2,-2.650016606E-2,3.760087255E-2
9.426837917E-1,2.025047011E-2,-1.905341716E-2,-2.245798588E-2,3.574178751E-2
9.526827917E-1,1.630879808E-2,-1.038881200E-2,-2.215977788E-2,2.941020342E-2
9.626817917E-1,1.897623391E-2,-1.366591142E-2,-2.859873176E-2,3.694241528E-2
9.726797917E-1,1.255061899E-2,-1.581560371E-2,-2.351165414E-2,3.099111547E-2
9.826787917E-1,1.658641292E-2,-7.086706599E-3,-1.288726330E-2,2.216781584E-2
9.926777917E-1,1.382557696E-2,-3.194516636E-3,-1.333457530E-2,1.947209319E-2
1.002675792E0,1.475458075E-2,-2.523027873E-3,-2.186332405E-2,2.649657074E-2
1.012674792E0,1.257656601E-2,-3.717339942E-3,-2.126573861E-2,2.498440048E-2
1.022673792E0,1.254096195E-2,-1.197217405E-4,-2.351106942E-2,2.664695940E-2
1.032672792E0,1.426003422E-2,2.838558247E-3,-1.992146373E-2,2.466314469E-2
1.042670792E0,1.817031400E-2,6.574371736E-3,-3.129956067E-2,3.678376235E-2
1.052669792E0,1.296209852E-2,-3.237612443E-3,-1.887539685E-2,2.312528354E-2
1.062668792E0,7.456542989E-3,-4.644808844E-3,-2.890278697E-2,3.020836601E-2
1.072666792E0,2.182422993E-2,-5.420551635E-4,-3.174628794E-2,3.852814080E-2
1.082665792E0,1.706294272E-2,-3.878211463E-3,-2.545994639E-2,3.089325831E-2
1.092664792E0,1.693039365E-2,-6.128347954E-3,-2.575873911E-2,3.142781441E-2
1.102663792E0,1.824625472E-2,-8.265633183E-3,-2.141484261E-2,2.932306237E-2
1.112661792E0,1.618355803E-2,-1.180754752E-2,-2.111429572E-2,2.910565603E-2
1.122660792E0,3.160173381E-3,-1.603985357E-2,-1.827254891E-2,2.451835317E-2
1.132659792E0,2.741430514E-3,-1.609977840E-2,-1.632659554E-2,2.309277003E-2
1.142658792E0,9.541020552E-3,1.943102852E-3,-2.680480599E-2,2.851849130E-2
1.152656792E0,1.007636969E-2,-5.281406175E-3,-3.623578012E-2,3.797970824E-2
1.162655792E0,1.629517590E-2,-1.591612101E-3,-2.411216319E-2,2.914553825E-2
1.172654792E0,3.121094794E-2,-1.766694183E-2,-2.545877695E-2,4.398173972E-2
1.182653792E0,3.819971368E-2,-4.980557794E-3,-1.498115122E-2,4.133350908E-2
1.192651792E0,2.348505844E-2,-1.029956887E-2,-1.767730236E-2,3.114668695E-2
1.202650792E0,1.485849674E-2,-1.681729571E-2,-2.127041638E-2,3.091968585E-2
1.212649792E0,6.798548503E-3,-9.069533972E-3,-2.635807872E-2,2.869189819E-2
1.222647792E0,7.157859905E-3,-4.896001574E-3,-1.647979259E-2,1.862228111E-2
1.232646792E0,8.846069835E-3,-7.206199933E-3,-2.471501112E-2,2.722157313E-2
1.242645792E0,3.015893335E-3,-2.660930799E-3,-7.954552174E-3,8.913532723E-3
1.252644792E0,1.113018413E-2,-4.475321816E-3,-7.656928897E-3,1.423158685E-2
1.262642792E0,1.791151989E-2,-4.407128664E-3,-3.609837055E-2,4.053810164E-2
1.272641792E0,1.897873725E-2,-6.465960704E-3,-3.206028342E-2,3.781352785E-2
1.282640792E0,1.841914044E-2,8.470605500E-4,-3.430561423E-2,3.894685371E-2
1.292638792E0,2.733292834E-2,-1.193167294E-2,-1.664351463E-2,3.415348255E-2
1.302637792E0,2.094244240E-2,9.608345758E-4,-1.380059838E-2,2.509911577E-2
1.312636792E0,5.331747048E-3,-9.630921492E-3,-2.218550563E-2,2.476648613E-2
1.322635792E0,1.433134284E-3,-7.249770826E-3,-2.532896876E-2,2.638502813E-2
1.332633792E0,8.482263386E-3,1.277927253E-3,-2.458461821E-2,2.603815168E-2
1.342632792E0,6.585243903E-3,1.089166341E-2,-1.320886016E-2,1.834305743E-2
1.352631792E0,7.384850644E-3,7.942218203E-3,-4.228121638E-3,1.164009715E-2
1.362630792E0,1.452979186E-2,-1.258732854E-2,-1.589974880E-2,2.494709809E-2
1.372628792E0,1.553586926E-2,-2.199194452E-2,-3.400799096E-2,4.337686372E-2
1.382627792E0,2.124277001E-2,-1.846121298E-2,-3.924826562E-2,4.829594203E-2
1.392626792E0,2.262855099E-2,-1.321693663E-2,-2.263398707E-2,3.462710072E-2
1.402624792E0,2.068750380E-2,-5.909534181E-3,-2.308071434E-2,3.155336404E-2
1.412623792E0,1.202987876E-2,-4.717177274E-3,-1.709316552E-2,2.142769357E-2
1.422622792E0,8.656108417E-3,-1.147752701E-2,-2.876830101E-2,3.216017696E-2
1.432621792E0,4.792880444E-3,-1.392868895E-2,-1.724285424E-2,2.267809739E-2
1.442619792E0,8.118402120E-4,-1.700552124E-2,-1.829301417E-2,2.498962193E-2
1.452618333E0,6.594581176E-3,-1.563773872E-2,-1.963904321E-2,2.595610509E-2
1.462617333E0,1.564136582E-2,-9.858606588E-3,-1.514604270E-2,2.390077527E-2
1.472616333E0,9.800810516E-3,1.224480048E-3,-1.858888328E-2,2.104998384E-2
1.482614333E0,1.924077474E-2,4.874586146E-3,-2.981670678E-2,3.581905925E-2
1.492613333E0,2.239183011E-2,-2.936937651E-3,-3.176499903E-2,3.897479727E-2
1.502612333E0,2.155341248E-2,5.402671946E-3,-2.128620386E-2,3.077078043E-2
1.512610333E0,2.096697330E-2,3.658831241E-3,-2.368180811E-2,3.184068232E-2
1.522609333E0,1.870032756E-2,2.316091256E-3,-2.083772242E-2,2.809407776E-2
1.532608333E0,7.236934360E-3,-3.804253321E-4,-1.859122217E-2,1.995373359E-2
1.542607333E0,1.346239178E-2,-1.417104690E-2,-2.682059348E-2,3.318732886E-2
1.552605333E0,5.224176552E-3,-2.819344662E-3,-2.232817769E-2,2.310385777E-2
1.562604333E0,7.744564041E-3,-6.525602303E-3,-1.963495016E-2,2.209282747E-2
1.572603333E0,1.434314691E-2,-1.253293117E-2,-1.379942894E-2,2.352072418E-2
1.582602333E0,2.211928591E-2,-8.026884058E-3,-2.098390281E-2,3.152804869E-2
1.592600333E0,2.197617531E-2,-1.005817937E-2,-2.786841452E-2,3.688858606E-2
1.602599333E0,1.552800293E-2,-8.319043843E-3,-3.460557640E-2,3.883131833E-2
1.612598333E0,1.086395309E-2,-7.639241070E-3,-2.307720602E-2,2.662594446E-2
1.622596333E0,1.218171450E-2,-6.446189806E-3,-3.399863541E-2,3.668589294E-2
1.632595333E0,9.461160377E-3,-1.077586113E-2,-2.337073624E-2,2.741941012E-2
1.642594333E0,1.184579196E-2,-7.940747263E-3,-3.504411757E-2,3.783475163E-2
1.652593333E0,7.194898361E-3,2.363051707E-3,-1.858128190E-2,2.006525885E-2
1.662591333E0,1.326174092E-2,-1.191689959E-2,-1.663708270E-2,2.438603675E-2
1.672590333E0,2.108350648E-2,-1.324511290E-2,-1.289427996E-2,2.803943146E-2
1.682589333E0,1.535007399E-2,-1.150206705E-2,-2.756494403E-2,3.358196625E-2
1.692587333E0,8.785048658E-3,-8.987636408E-3,-2.921151996E-2,3.180043374E-2
1.702586333E0,1.141287873E-2,-6.854499048E-3,-3.205852926E-2,3.471292636E-2
1.712585333E0,1.841937798E-2,-3.993785335E-3,-2.277607441E-2,2.956304064E-2
1.722584333E0,1.094881081E-2,-9.853261868E-3,-2.651595354E-2,3.033247467E-2
1.732582333E0,1.830267121E-2,-2.743166406E-3,-3.025524795E-2,3.546678395E-2
1.742581333E0,1.583510966E-2,5.638698461E-3,-2.396773696E-2,2.927452875E-2
1.752580333E0,2.151021617E-2,3.611715473E-3,-3.100018322E-2,3.790442255E-2
1.762579333E0,3.080053736E-2,-4.772926820E-3,-2.935185313E-2,4.281337658E-2
1.772577333E0,2.788632162E-2,-5.572889876E-3,-8.542782068E-3,2.969315006E-2
1.782576333E0,2.431813136E-2,-2.017417308E-2,-2.246324837E-2,3.876810931E-2
1.792575333E0,1.066285456E-2,-4.800874684E-3,-5.314885139E-2,5.442008149E-2
1.802573333E0,1.522103325E-2,-8.528273664E-3,-3.668367684E-2,4.062146540E-2
1.812572333E0,3.566917579E-2,-4.090313729E-2,1.040804386E-3,5.428112025E-2
1.822571333E0,6.344091939E-3,-5.084150355E-2,2.484189570E-2,5.694054591E-2
1.832570333E0,-4.127474612E-2,-5.161151790E-2,7.173948884E-3,6.647419792E-2
1.842568333E0,-4.286121449E-2,-4.683934025E-2,-1.738084853E-2,6.582629717E-2
1.852567333E0,-3.408212269E-2,-1.083278012E-2,-2.651829243E-2,4.452145601E-2
1.862566333E0,-2.574810449E-2,1.725538921E-2,-7.962153554E-3,3.200170668E-2
1.872564333E0,7.361279055E-4,8.700565528E-3,-1.814566433E-2,2.013720087E-2
1.882563333E0,2.427325398E-2,3.261239762E-2,-2.743045807E-2,4.904273001E-2
1.892562333E0,4.652982155E-2,4.812280409E-2,-3.431672394E-2,7.522277653E-2
1.902561333E0,8.017633581E-2,4.358199346E-2,-5.572513461E-2,1.069248596E-1
1.912559333E0,6.840156010E-2,5.337337534E-2,-3.641002715E-2,9.409134230E-2
1.922558333E0,3.994843315E-2,3.972305040E-2,-3.385947168E-2,6.572869896E-2
1.932557333E0,2.797707223E-2,2.838919130E-2,-2.891272724E-2,4.924031427E-2
1.942556333E0,-7.079927484E-3,2.762427500E-2,-2.142244399E-2,3.566717046E-2
1.952554333E0,-1.719609478E-2,1.097476697E-2,-3.474006236E-2,4.028676108E-2
1.962553333E0,-1.117773844E-2,7.874545818E-3,-3.279293954E-2,3.552924419E-2
1.972552333E0,4.830001127E-3,1.127599907E-2,-2.979682624E-2,3.222309607E-2
1.982550333E0,2.423302696E-2,-4.294938868E-2,-6.590981483E-3,4.975269461E-2
1.992549333E0,4.091194466E-2,-6.224831580E-2,-2.080965579E-2,7.734133313E-2
2.002548333E0,5.911995493E-2,-4.745914511E-2,-1.017883301E-2,7.649279814E-2
2.012547333E0,3.277167943E-2,-6.717664151E-2,-7.033615708E-3,7.507433575E-2
2.022545333E0,2.388145398E-2,-8.681034001E-2,-3.472310543E-2,9.649897941E-2
2.032544333E0,1.380760591E-2,-7.026963587E-2,-2.768656611E-2,7.677901829E-2
2.042543333E0,-1.942515389E-2,-5.430861007E-2,-2.540030479E-3,5.773398901E-2
2.052541333E0,-2.054589154E-2,-5.482723069E-2,-2.708898067E-2,6.451334559E-2
2.062540333E0,-7.226519007E-4,-4.682776459E-2,-1.885902464E-2,5.048786560E-2
2.072539333E0,3.546573836E-3,-5.696836229E-2,8.977814913E-3,5.778039156E-2
2.082538333E0,1.001635350E-2,-4.198985145E-2,-7.794923186E-3,4.386611209E-2
2.092536333E0,6.447532838E-3,-2.052380917E-2,-1.648447037E-2,2.710230960E-2
2.102535333E0,2.348658420E-2,6.204626709E-3,-2.936588645E-2,3.811131482E-2
2.112534333E0,2.614447262E-2,5.310002714E-2,-2.638088286E-2,6.480044222E-2
2.122533333E0,3.054599161E-2,2.876543222E-2,-2.308890045E-2,4.789159653E-2
2.132531333E0,5.030249991E-3,6.025640697E-2,-1.575707674E-2,6.248538600E-2
2.142530333E0,9.852485284E-3,7.179347509E-2,-2.533890903E-2,7.676871005E-2
2.152529333E0,-1.083196700E-4,7.546643101E-2,-1.994602203E-2,7.805791271E-2
2.162527333E0,-1.106835896E-2,8.033791082E-2,-2.772691190E-2,8.570571818E-2
2.172526333E0,-2.254101634E-4,7.740974399E-2,-3.491197050E-2,8.491857841E-2
2.182525333E0,1.274497496E-2,6.525751225E-2,-3.072068632E-2,7.324437084E-2
2.192524333E0,2.037432144E-2,4.347726434E-2,-1.754398584E-2,5.111924225E-2
2.202522333E0,2.413656618E-2,3.870631096E-2,-1.768548846E-2,4.892370424E-2
2.212521333E0,4.028541550E-2,2.217591254E-2,-4.986096203E-2,6.782920709E-2
2.222520333E0,4.819348231E-2,1.600153604E-2,-3.712923467E-2,6.290660506E-2
2.232519333E0,2.350008762E-2,-3.212633869E-2,-1.556821167E-2,4.274020321E-2
2.242517333E0,8.670516321E-3,-5.551201274E-2,-7.626523376E-3,5.670031102E-2
2.252516333E0,1.623120370E-2,-7.154279399E-2,-1.854853749E-2,7.566948915E-2
2.262515333E0,-1.050119732E-2,-7.712546881E-2,-1.944666982E-2,8.022958339E-2
2.272513333E0,-1.103007797E-2,-6.232781966E-2,-2.468285143E-2,6.793866998E-2
2.282512333E0,5.634395275E-3,-6.229481030E-2,-2.857534289E-2,6.876728890E-2
2.292511333E0,1.135402285E-2,-8.943816095E-2,-1.510628164E-2,9.141279021E-2
2.302510333E0,5.580573482E-3,-9.232190721E-2,-1.017064691E-2,9.304794146E-2
2.312508333E0,2.237440724E-2,-8.171316680E-2,-2.394785643E-2,8.804064718E-2
2.322507333E0,2.693320720E-2,-5.142877414E-2,-1.302584231E-2,5.949780691E-2
2.332506333E0,1.278565879E-2,-3.625982679E-2,-1.811993659E-2,4.250388467E-2
2.342504333E0,2.594400449E-2,-4.505369196E-2,-1.677683115E-2,5.462955785E-2
2.352503333E0,7.622265872E-3,-3.284783028E-2,-1.124711931E-2,3.554682242E-2
2.362502333E0,1.439986490E-3,2.541775508E-2,-2.098507226E-2,3.299256116E-2
2.372501333E0,1.444885360E-2,4.923954919E-2,-2.757605374E-2,5.825582644E-2
2.382499333E0,1.001709354E-2,6.813249682E-2,-2.832742095E-2,7.446356199E-2
2.392498333E0,3.164567929E-3,6.330921999E-2,-2.159376740E-2,6.696538372E-2
2.402497333E0,2.630364479E-2,5.840026318E-2,-2.803038239E-2,6.991548331E-2
2.412496333E0,2.017750782E-2,6.474939834E-2,-3.237018585E-2,7.514948662E-2
2.422494333E0,1.954745206E-2,7.075254279E-2,-3.042189360E-2,7.945764157E-2
2.432493333E0,3.427435904E-2,7.765159945E-2,-3.236258447E-2,9.083963594E-2
2.442492333E0,1.431943827E-2,4.092883763E-2,-3.460499167E-2,5.547721614E-2
2.452490458E0,5.872468315E-3,2.833804644E-2,-3.325370014E-2,4.408332262E-2
2.462489458E0,2.166598052E-2,2.151295706E-2,-4.387750626E-2,5.345519234E-2
2.472488458E0,2.583626040E-2,2.355709797E-2,-2.680539072E-2,4.405653400E-2
2.482487458E0,2.924303097E-2,-1.211771490E-3,-2.500210941E-2,3.849322960E-2
2.492485458E0,9.856806742E-3,-4.892221897E-2,-4.193623066E-3,5.008120029E-2
2.502484458E0,2.168540424E-3,-6.414613014E-2,-2.170486450E-2,6.775344805E-2
2.512483458E0,2.431804913E-2,-4.838001763E-2,-4.221163452E-2,6.865723347E-2
2.522481458E0,9.978109058E-3,-4.020675218E-2,-1.571848512E-2,4.430819738E-2
2.532480458E0,5.320957107E-3,-5.713087834E-2,-1.751299560E-2,5.999128987E-2
2.542479458E0,2.300491981E-2,-7.833476437E-2,-2.664283812E-2,8.588016341E-2
2.552478458E0,1.687225954E-2,-7.711450528E-2,-2.694981694E-3,7.898470101E-2
2.562476458E0,1.064602554E-2,-7.484320004E-2,-2.096109867E-2,7.844877380E-2
2.572475458E0,1.781574433E-2,-3.604530707E-2,-2.754974127E-2,4.874067246E-2
2.582474458E0,1.207403437E-2,-2.944092267E-2,-1.842165291E-2,3.676829517E-2
2.592473458E0,-7.188311107E-3,-2.607351118E-2,-1.797726452E-2,3.247586552E-2
2.602471458E0,-1.470392011E-4,-3.829620187E-2,-1.394210100E-2,4.075540306E-2
2.612470458E0,4.349899041E-3,-3.179425338E-2,-1.529514670E-2,3.554908835E-2
2.622469458E0,-5.696997028E-3,2.512863767E-2,-2.443200588E-2,3.550812749E-2
2.632467458E0,6.865270715E-3,2.584538754E-2,-3.027629793E-2,4.039517564E-2
2.642466458E0,1.548320778E-2,2.207760623E-2,-2.818416417E-2,3.900637806E-2
2.652465458E0,1.242129503E-2,4.375042981E-2,-1.351642370E-2,4.744557291E-2
2.662464458E0,2.931989444E-2,2.798779822E-2,-2.504420936E-2,4.764646348E-2
2.672462458E0,2.758590264E-2,3.364650512E-2,-2.084883213E-2,4.824669038E-2
2.682461458E0,1.358010354E-2,6.039429163E-2,-2.159493685E-2,6.556089513E-2
2.692460458E0,3.037124209E-2,4.404269010E-2,-4.224964142E-2,6.817039751E-2
2.702458458E0,2.446502438E-2,5.445892006E-2,-3.536337554E-2,6.938933435E-2
2.712457458E0,6.781290080E-3,4.899301596E-2,-2.158850491E-2,5.396633258E-2
2.722456458E0,2.022950236E-2,1.281028105E-2,-2.053717554E-2,3.154539024E-2
2.732455458E0,2.220626324E-2,1.383457619E-2,-2.756786764E-2,3.800659090E-2
2.742453458E0,8.245122246E-3,-2.110278402E-3,-2.142595232E-2,2.305443013E-2
2.752452458E0,1.659074351E-2,-1.279048274E-2,-3.130014539E-2,3.766362065E-2
2.762451458E0,1.109346544E-2,-2.219246747E-2,-1.767496347E-2,3.046268080E-2
2.772449458E0,-9.554012334E-3,-6.228368232E-2,-6.447724700E-3,6.334121398E-2
2.782448458E0,1.083362980E-2,-5.755808140E-2,-8.841574788E-3,5.923237049E-2
2.792447458E0,1.066317433E-2,-4.056170558E-2,-3.003129959E-3,4.204728333E-2
2.802446458E0,-5.886867084E-3,-6.315104367E-2,-8.542782068E-3,6.399756750E-2
2.812444458E0,5.169048272E-3,-5.433349729E-2,-2.066815317E-2,5.836112184E-2
2.822443458E0,2.387102036E-2,-4.723184374E-2,-1.797492564E-2,5.589070252E-2
2.832442458E0,-1.539955605E-3,-3.147336002E-2,-3.310693502E-3,3.168445274E-2
2.842441458E0,1.951650750E-2,-2.169534450E-2,-3.190591693E-2,4.323851955E-2
2.852439458E0,2.595505024E-2,-3.306013903E-2,-2.008226216E-2,4.658255767E-2
2.862438458E0,-3.295271471E-4,-3.173229117E-3,-1.694289207E-2,1.724063697E-2
2.872437458E0,5.606100233E-3,-6.017680261E-3,-2.023896754E-2,2.184620431E-2
2.882435458E0,1.561660652E-2,1.144382330E-3,-1.335620999E-2,2.058097071E-2
2.892434458E0,5.346529540E-3,1.629367755E-2,-2.323858917E-2,2.888081253E-2
2.902433458E0,1.180548272E-2,1.509405730E-2,-2.638439119E-2,3.260883449E-2
2.912432458E0,2.839409748E-2,1.292623864E-2,-4.674147248E-2,5.619677631E-2
2.922430458E0,-1.007530075E-3,1.628737352E-2,-5.581167340E-3,1.724653826E-2
2.932429458E0,2.358219531E-2,2.957439451E-2,-3.821330845E-2,5.376822193E-2
2.942428458E0,8.313514570E-2,4.724783222E-2,-6.140979767E-2,1.136440643E-1
2.952427458E0,1.084988323E-2,3.187224062E-2,1.508757055E-2,3.689436913E-2
2.962425458E0,-7.572518857E-3,-1.041736286E-2,-1.005721092E-2,1.634050129E-2
2.972424458E0,1.276198670E-2,-1.418123385E-3,-5.391600609E-2,5.542395774E-2
2.982423458E0,-1.140519513E-2,-1.601993649E-2,-3.580367088E-2,4.084874159E-2
2.992421458E0,-3.221240239E-3,2.330114524E-2,-1.972850561E-3,2.360533621E-2
3.002420458E0,8.669575285E-3,1.445317506E-2,-1.903385639E-2,2.542328645E-2
3.012419458E0,-1.789156627E-4,-2.065084906E-2,-3.400331318E-2,3.978334935E-2
3.022418458E0,1.452747124E-2,-1.234271393E-2,-1.544425070E-2,2.453395377E-2
3.032416458E0,2.596151873E-2,-6.689615789E-2,-8.410634995E-3,7.224842681E-2
3.042415458E0,2.492908317E-2,-3.599135737E-2,-3.191293359E-2,5.417815356E-2
3.052414458E0,3.198640751E-2,-3.771920046E-3,-4.089425683E-2,5.205475855E-2
3.062412458E0,3.463042706E-2,-1.950791026E-2,-2.487464011E-2,4.688894072E-2
3.072411458E0,8.856741004E-3,-1.364931081E-2,-1.409588277E-2,2.152764404E-2
3.082410458E0,4.526503226E-3,-2.275834090E-2,-1.948467672E-2,3.029989998E-2
3.092409458E0,1.582895181E-2,-2.062531318E-2,-2.951265156E-2,3.933135977E-2
3.102407458E0,3.845065059E-3,-1.254365715E-2,-2.412619650E-2,2.746272415E-2
3.112406458E0,-2.372361571E-3,5.595794516E-3,-1.514545798E-2,1.631949488E-2
3.122405458E0,1.680103314E-2,-4.166323878E-4,-2.188203514E-2,2.759115363E-2
3.132403458E0,7.873522555E-3,-3.678081371E-3,-2.966701806E-2,3.091363130E-2
3.142402458E0,1.798016986E-2,-2.508537741E-3,-2.158090353E-2,2.820132385E-2
3.152401458E0,1.822298463E-2,1.724366737E-2,-2.262930930E-2,3.378619351E-2
3.162400458E0,1.627439087E-2,2.086557892E-2,-2.532370627E-2,3.662674271E-2
3.172398458E0,2.376439090E-2,1.862987774E-2,-2.951265156E-2,4.222339662E-2
3.182397458E0,2.598762106E-2,3.187856292E-3,-4.163626850E-2,4.918432403E-2
3.192396458E0,2.788388223E-2,7.373832297E-3,-2.202412248E-2,3.628975423E-2
3.202395458E0,2.160467612E-2,1.033068703E-2,1.540156603E-2,2.847267744E-2
3.212393458E0,4.361524036E-2,-2.303793831E-3,-4.202393889E-3,4.387774803E-2
3.222392458E0,-6.029776689E-3,-7.477300605E-3,-1.257969975E-2,1.582773127E-2
3.232391458E0,-3.393336587E-2,-1.699348876E-2,-2.230888188E-2,4.402201938E-2
3.242389458E0,-2.454403488E-2,-1.842676009E-2,-4.880553961E-2,5.765358473E-2
3.252388458E0,9.786256431E-3,-1.125099309E-2,-3.578612924E-2,3.876857885E-2
3.262387458E0,5.710198944E-2,-2.709574152E-2,-1.169443130E-5,6.320456110E-2
3.272386458E0,6.747254717E-2,-2.936478096E-2,-6.595659256E-3,7.388056378E-2
3.282384458E0,3.668698417E-2,-2.289777872E-2,-4.237009406E-2,6.054310818E-2
3.292383458E0,3.510175833E-2,-3.357750798E-2,-4.716013312E-2,6.770273728E-2
3.302382458E0,3.348937034E-2,-1.677881372E-2,-1.512382329E-2,4.039550156E-2
3.312380458E0,-1.494573902E-2,-1.089738272E-3,-1.048171878E-2,1.828740203E-2
3.322379458E0,-2.665515382E-2,2.608159678E-3,-2.006705940E-2,3.346620078E-2
3.332378458E0,-1.422060206E-2,4.758107783E-3,-2.156277716E-2,2.626439551E-2
3.342377458E0,-1.404616317E-2,8.306207377E-3,-2.515530646E-2,2.998461645E-2
3.352375458E0,1.905576518E-2,8.373578265E-4,-3.398811042E-2,3.897454303E-2
3.362374458E0,5.277892364E-2,6.662162198E-3,-2.351106942E-2,5.816158157E-2
3.372373458E0,5.645414536E-2,2.158572748E-3,-2.021908700E-2,6.000451186E-2
3.382372458E0,5.714861185E-2,-6.970502324E-3,-2.935068369E-2,6.462208889E-2
3.392370458E0,4.130263916E-2,-1.055487293E-2,-4.297001839E-2,6.052880161E-2
3.402369458E0,3.005438696E-2,-1.060379768E-2,-4.626258552E-2,5.617769593E-2
3.412368458E0,8.257346582E-3,-3.470806712E-3,-1.497588873E-2,1.745014370E-2
3.422366458E0,-2.015406414E-2,-1.492602294E-3,1.941275597E-3,2.030228346E-2
3.432365458E0,-3.079455310E-2,-1.579990759E-2,-1.018117189E-2,3.607766402E-2
3.442364458E0,-2.661899244E-2,-1.517912515E-2,-1.901222169E-2,3.606163020E-2
3.452363292E0,-1.546614122E-2,-2.220090939E-2,-3.577852786E-2,4.485738465E-2
3.462361292E0,6.364776464E-3,-1.682322515E-2,-2.530207157E-2,3.104393837E-2
3.472360292E0,2.588004143E-2,-1.491039078E-2,-3.000206351E-3,3.001828669E-2
3.482359292E0,4.692512074E-2,-1.661610581E-2,-1.033846200E-2,5.084236152E-2
3.492358292E0,3.250698329E-2,-8.828290645E-3,-3.204332650E-2,4.649104700E-2
3.502356292E0,1.795771290E-2,7.572701583E-3,-4.222391367E-2,4.650466802E-2
3.512355292E0,1.589445890E-2,6.191424793E-3,-2.590784311E-2,3.101908927E-2
3.522354292E0,7.094088709E-3,2.825813144E-3,-1.692242682E-2,1.856555531E-2
3.532352292E0,3.492377456E-3,-5.455022799E-3,-2.141191900E-2,2.237016426E-2
3.542351292E0,2.710970175E-3,-4.140833672E-3,-2.126106083E-2,2.182953436E-2
3.552350292E0,5.421995167E-3,-6.361176772E-3,-3.069086552E-2,3.180867535E-2
3.562349292E0,4.443975259E-3,-5.589079354E-3,-5.957903445E-2,6.000540034E-2
3.572347292E0,3.981739157E-2,4.235531157E-3,-3.413195193E-2,5.261515502E-2
3.582346292E0,-2.683374971E-2,-9.450671934E-3,6.914800286E-2,7.477173011E-2
3.592345292E0,7.705070668E-2,-7.958036749E-2,-2.800114632E-2,1.142537110E-1
3.602344292E0,5.931344295E-2,9.960356363E-2,-4.536211431E-2,1.244856450E-1
3.612342292E0,5.861698475E-2,1.315100836E-1,-1.290305078E-1,1.933383690E-1
3.622341292E0,6.592890965E-3,-1.629279498E-1,5.734130502E-2,1.728496697E-1
3.632340292E0,-4.773126905E-2,-1.807460239E-2,6.782126963E-2,8.488044481E-2
3.642338292E0,-5.190515776E-2,-5.801154211E-2,-1.091207385E-1,1.340403670E-1
3.652337292E0,4.543941633E-2,-2.490202152E-2,-1.492379004E-1,1.579772203E-1
3.662336292E0,3.557044921E-2,4.780655195E-2,1.847193897E-1,1.940927000E-1
3.672335292E0,-1.929164551E-2,2.201997461E-2,2.021031618E-2,3.557391950E-2
3.682333292E0,-5.762942657E-3,7.662721295E-3,-1.562744397E-1,1.565682896E-1
3.692332292E0,5.510201328E-2,-1.189815195E-2,-4.041946292E-2,6.936519928E-2
3.702331292E0,4.859139447E-2,-9.718565773E-2,2.979097903E-2,1.126662244E-1
3.712330292E0,4.085443181E-2,-5.469469076E-2,-1.781237304E-2,7.055405324E-2
3.722328292E0,3.191410303E-2,4.306666190E-2,-5.852712035E-2,7.936416796E-2
3.732327292E0,1.743507232E-2,1.558398088E-2,4.495924115E-3,2.381292801E-2
3.742326292E0,8.909192355E-3,2.714752592E-4,7.341179252E-3,1.154730791E-2
3.752324292E0,-5.338188121E-2,-1.212540764E-2,-5.044217527E-2,7.443832211E-2
3.762323292E0,-2.309116624E-2,-8.150305990E-3,-5.343828857E-2,5.878163090E-2
3.772322292E0,5.201133041E-2,-4.364931867E-2,1.376493037E-2,6.928141756E-2
3.782321292E0,1.324805478E-2,-4.554533316E-2,9.720411301E-3,4.841874352E-2
3.792319292E0,8.663746342E-3,3.010119209E-2,-5.674547374E-2,6.481659553E-2
3.802318292E0,7.404552106E-2,5.893379420E-2,-7.830006480E-2,1.228284635E-1
3.812317292E0,5.421648902E-2,-3.209924050E-2,-1.902040780E-2,6.581462478E-2
3.822316292E0,1.349051323E-2,-3.282562913E-3,1.765449822E-2,2.245997493E-2
3.832314292E0,1.089642341E-2,-2.078891644E-2,-2.006588995E-2,3.087962159E-2
3.842313292E0,1.126603140E-3,-2.976149627E-2,-2.171305060E-2,3.685746141E-2
3.852312292E0,-1.248350392E-2,-4.696035935E-3,-4.797640443E-3,1.417420112E-2
3.862310292E0,-7.358666081E-3,2.578732652E-2,-2.590199590E-2,3.728336850E-2
3.872309292E0,1.366944716E-2,3.465226276E-2,-4.910199344E-2,6.163309874E-2
3.882308292E0,3.284747397E-2,-6.211716458E-3,-2.425308108E-2,4.130077371E-2
3.892307292E0,2.830273474E-2,-5.559277740E-2,-1.949461699E-3,6.241315642E-2
3.902305292E0,2.648066925E-2,-3.885955369E-2,-1.946771979E-2,5.089482165E-2
3.912304292E0,3.373215769E-2,-1.063955706E-3,-3.414013803E-2,4.800561935E-2
3.922303292E0,3.344167898E-2,2.499701137E-2,-4.880787849E-2,6.422931942E-2
3.932302292E0,1.733451848E-2,2.759989028E-2,-2.455655158E-2,4.080764266E-2
3.942300292E0,1.772492062E-3,1.165625081E-2,-1.946596563E-2,2.275815742E-2
3.952299292E0,6.455499670E-3,-3.053126394E-2,-1.647102177E-2,3.528634455E-2
3.962298292E0,1.527848214E-2,-4.100676091E-2,-2.081257939E-2,4.845771268E-2
3.972296292E0,1.551711249E-2,-4.957360793E-3,-2.051671028E-2,2.619716792E-2
3.982295292E0,1.915031648E-2,3.890713541E-2,-2.695449471E-2,5.105922632E-2
3.992294292E0,2.138884077E-2,3.052852306E-2,-2.770059943E-2,4.644132253E-2
4.002293292E0,1.835919734E-2,8.867393900E-3,-2.305791020E-2,3.077918167E-2
4.012291292E0,2.305444756E-2,-7.791159041E-3,-2.739829838E-2,3.664527890E-2
4.022290292E0,2.630910829E-2,-1.416895470E-2,-1.841697514E-2,3.510147332E-2
4.032289292E0,2.632440241E-2,-2.839626278E-2,-8.685454130E-3,3.968323343E-2
4.042288292E0,1.959859692E-2,-9.506960521E-3,-2.634813845E-2,3.418642566E-2
4.052286292E0,2.449955950E-2,2.307918859E-2,-3.862144411E-2,5.122980877E-2
4.062285292E0,2.305163358E-2,2.040384988E-2,-3.113408446E-2,4.378385680E-2
4.072284292E0,3.377534486E-3,-1.376988223E-2,-2.754038572E-2,3.097563949E-2
4.082283292E0,-3.883263823E-3,-2.895976991E-2,-1.780886471E-2,3.421846977E-2
4.092281292E0,1.707790794E-2,-3.162641088E-2,-1.043143272E-3,3.595793310E-2
4.102280292E0,2.711145591E-2,-2.794615508E-2,-1.137049556E-2,4.056238152E-2
4.112279292E0,1.780753082E-2,1.791751329E-3,-3.711987913E-2,4.120927023E-2
4.122277292E0,2.232834214E-2,1.885203539E-2,-1.840878904E-2,3.453748131E-2
4.132276292E0,2.213991562E-2,2.478680396E-3,-2.888407588E-2,3.647752129E-2
4.142275292E0,3.439944377E-2,-4.054158750E-2,-1.182131588E-2,5.446728888E-2
4.152274292E0,1.470247658E-2,-3.072374697E-2,-7.034200430E-3,3.477918086E-2
4.162272292E0,8.149474589E-3,1.661312738E-3,-3.158256590E-2,3.265933810E-2
4.172271292E0,2.196307389E-2,2.160192610E-2,-2.828882933E-2,4.182436719E-2
4.182270292E0,2.780704617E-2,2.731994569E-2,-1.226979733E-2,4.086758098E-2
4.192269292E0,2.247011885E-2,3.439064554E-2,-2.064944208E-2,4.597849715E-2
4.202267292E0,1.958900384E-2,1.677367000E-2,-2.783274651E-2,3.794399629E-2
4.212266292E0,1.991751686E-2,-9.472297495E-3,-1.017006218E-2,2.428707604E-2
4.222265292E0,2.274127434E-2,-7.784215473E-3,-2.980325818E-3,2.422069180E-2
4.232264292E0,1.651984602E-3,-2.612152230E-3,-1.435432971E-2,1.468329574E-2
4.242262292E0,-7.879954493E-3,-1.242796451E-2,-1.300771594E-2,1.964048519E-2
4.252261292E0,1.281214485E-2,2.398416398E-2,-2.228958607E-2,3.515987521E-2
4.262260292E0,-2.522300625E-2,2.982966201E-2,-1.764748156E-2,4.286539847E-2
4.272258292E0,-1.492457028E-2,7.835332928E-3,-3.366008162E-2,3.764487130E-2
4.282257292E0,1.734577437E-2,-1.746298363E-2,-1.659615219E-2,2.968609023E-2
4.292256292E0,2.961194459E-2,-3.613445884E-2,-2.375138998E-3,4.677828196E-2
4.302255292E0,3.055983307E-2,-5.132484902E-4,-6.714942455E-3,3.129308667E-2
4.312253292E0,3.680565524E-2,-5.486232312E-3,-3.844602764E-2,5.350562628E-2
4.322252292E0,2.490408632E-2,-1.406350382E-2,-3.799286842E-2,4.755474431E-2
4.332251292E0,1.441338658E-2,-2.606746296E-2,-2.077749610E-2,3.631752583E-2
4.342250292E0,7.377724349E-3,-3.693174496E-2,-8.665573597E-4,3.767141521E-2
4.352248292E0,-1.006377990E-2,-3.604245655E-2,-2.376834691E-2,4.433139582E-2
4.362247292E0,5.064246068E-3,-3.381352535E-2,-1.568515599E-2,3.761682075E-2
4.372246292E0,-4.262099443E-3,-3.265484476E-2,1.110561669E-2,3.475397962E-2
4.382245292E0,-1.172162086E-2,-2.995369608E-2,1.672888398E-3,3.220898725E-2
4.392243292E0,-3.392718061E-2,-9.146041134E-3,-3.724851787E-2,5.120698913E-2
4.402242292E0,1.747837826E-2,-1.385690524E-2,-5.431654036E-2,5.871791963E-2
4.412241292E0,4.128295963E-2,3.350326661E-3,-2.378354967E-2,4.776153975E-2
4.422239292E0,6.834445839E-2,9.540426694E-3,1.212712526E-3,6.901779050E-2
4.432238292E0,6.989593484E-2,1.776670081E-2,-2.632942736E-2,7.677457984E-2
4.442237292E0,4.210013542E-2,1.741116269E-2,-3.052129626E-2,5.483720921E-2
4.452236458E0,2.137418618E-2,1.283174216E-2,-5.222733021E-3,2.547128544E-2
4.462234458E0,-7.966283150E-4,1.327237554E-2,-1.794452012E-2,2.233374960E-2
4.472233458E0,-2.557831597E-2,1.919019632E-2,-3.545810044E-2,4.774715457E-2
4.482232458E0,-3.388487966E-2,2.818437430E-2,-5.071874857E-3,4.436516583E-2
4.492231458E0,-2.854382275E-3,1.041199073E-2,6.180506945E-4,1.081383539E-2
4.502229458E0,1.395572319E-2,2.128075864E-2,-2.437938094E-2,3.524183754E-2
4.512228458E0,2.612594426E-2,2.213133666E-2,-5.790906966E-2,6.727422518E-2
4.522227458E0,5.443089911E-2,-8.101938553E-3,-3.889626324E-2,6.738904570E-2
4.532226458E0,6.413544984E-2,-1.879837805E-2,-5.216885805E-3,6.703693639E-2
4.542224458E0,5.846096459E-2,-2.892217414E-2,-1.374388039E-2,6.665636343E-2
4.552223458E0,3.639547306E-2,-2.043668565E-2,-3.080605567E-2,5.187775675E-2
4.562222458E0,-1.641340842E-3,-2.311673868E-2,-2.676446021E-2,3.540358650E-2
4.572220458E0,-2.289574133E-2,-2.069908859E-2,-8.649786115E-3,3.205442309E-2
4.582219458E0,-2.022198320E-2,-1.716052727E-2,-2.211884737E-2,3.453484776E-2
4.592218458E0,-1.579829047E-2,-2.255197987E-2,-2.331752658E-2,3.608164109E-2
4.602217458E0,4.865057012E-3,-2.934528415E-2,-2.571254611E-2,3.931856443E-2
4.612215458E0,3.372615516E-2,-3.475117207E-2,-1.283756196E-2,5.009890717E-2
4.622214458E0,3.271258601E-2,-3.471656386E-2,-1.702943087E-2,5.064932976E-2
4.632213458E0,3.974422828E-2,-2.274800777E-2,-3.035231173E-2,5.493940632E-2
4.642212458E0,5.617920745E-2,-1.507387527E-2,-2.301756442E-2,6.255504246E-2
4.652210458E0,4.646628790E-2,-3.828528402E-3,-2.062429905E-2,5.098171488E-2
4.662209458E0,2.366581050E-2,-8.648644080E-3,-2.347189307E-2,3.443543807E-2
4.672208458E0,-8.779155761E-3,-6.965596145E-3,-2.287372291E-2,2.547155875E-2
4.682207458E0,-1.110593646E-2,-8.335260730E-3,-1.808309913E-2,2.279949276E-2
4.692205458E0,-8.842936093E-3,-3.014970571E-7,-2.062839210E-2,2.244388735E-2
4.702204458E0,2.128934674E-3,1.877103318E-2,-2.766668558E-2,3.350118715E-2
4.712203458E0,2.291877388E-2,2.018286168E-2,-3.245964825E-2,4.456732958E-2
4.722201458E0,4.073651905E-2,1.188493176E-2,-2.408000350E-2,4.879100487E-2
4.732200458E0,5.874312015E-2,1.456453711E-2,-2.572599471E-2,6.576250231E-2
4.742199458E0,4.779271049E-2,1.975679152E-2,-2.228256941E-2,5.631151647E-2
4.752198458E0,2.985049272E-2,6.300365729E-3,-2.572073221E-2,3.990366637E-2
4.762196458E0,3.108867718E-2,6.624931879E-3,-2.377419412E-2,3.969392746E-2
4.772195458E0,1.226155641E-2,7.847054768E-3,-9.550842047E-3,1.741093386E-2
4.782194458E0,-4.908847176E-3,1.826838277E-2,-1.823044896E-2,2.627127441E-2
4.792193458E0,-7.739429455E-3,1.462305495E-2,-1.673356175E-2,2.353177837E-2
4.802191458E0,4.313326534E-4,4.978081863E-3,-1.673297703E-2,1.746310016E-2
4.812190458E0,6.309602503E-3,-1.549357745E-2,-1.838072240E-2,2.485383234E-2
4.822189458E0,1.807346949E-2,-1.604898071E-2,-2.391920507E-2,3.400512392E-2
4.832188458E0,3.376847439E-2,-1.725937262E-2,-2.436593235E-2,4.507654007E-2
4.842186458E0,2.539836790E-2,-1.814952898E-2,-1.927651584E-2,3.668877972E-2
4.852185458E0,2.013527996E-2,-1.729922505E-2,-1.508640110E-2,3.053346008E-2
4.862184458E0,1.802797998E-2,-2.823129821E-2,-2.705974460E-2,4.306093402E-2
4.872183458E0,5.127377724E-3,-1.596495439E-2,-2.137040377E-2,2.716365086E-2
4.882181458E0,1.006165115E-2,-2.015389055E-3,-2.002320528E-2,2.249949703E-2
4.892180458E0,2.449544817E-3,-7.922849301E-3,-1.493086517E-2,1.707930167E-2
4.902179458E0,8.938729931E-3,-9.612027677E-3,-1.672479093E-2,2.126054093E-2
4.912177458E0,1.160807524E-2,-8.872181308E-3,-2.450918913E-2,2.853354804E-2
4.922176458E0,2.204193821E-2,6.544505255E-3,-2.885074675E-2,3.689231868E-2
4.932175458E0,3.342411906E-2,2.484902199E-3,-1.822226286E-2,3.814967022E-2
4.942174458E0,3.747088565E-2,1.357705202E-3,-1.148510098E-2,3.921502492E-2
4.952172458E0,3.031952164E-2,7.152661365E-3,-1.103486538E-2,3.304848274E-2
4.962171458E0,2.095286689E-2,-6.734804716E-4,-2.495533168E-2,3.259209699E-2
4.972170458E0,8.964010002E-3,4.332759390E-3,-2.645163417E-2,2.826331950E-2
4.982169458E0,-1.961649489E-4,9.766659122E-3,-2.150956750E-2,2.362387786E-2
4.992167458E0,3.334274227E-3,2.490822505E-3,-3.587793052E-2,3.611851990E-2
5.002166458E0,9.355490226E-3,-4.442312457E-3,-1.971213341E-2,2.226718529E-2
5.012165458E0,2.157255298E-2,-4.304299895E-3,-1.536999106E-2,2.683539947E-2
5.022164458E0,2.238569054E-2,-8.512586681E-3,-1.507412195E-2,2.829862939E-2
5.032162458E0,1.962299991E-2,-1.238160705E-2,-2.001677334E-2,3.064371932E-2
5.042161458E0,2.273968463E-2,-1.369134681E-3,-2.390984952E-2,3.302497072E-2
5.052160458E0,2.266781869E-2,-7.656289358E-3,-2.585697234E-2,3.522828110E-2
5.062158458E0,1.358088012E-2,-1.108435658E-2,-1.133599699E-2,2.087601718E-2
5.072157458E0,4.583394807E-3,-9.836222716E-3,-2.031439662E-2,2.303114186E-2
5.082156458E0,8.323621117E-3,1.238147914E-3,-2.959685147E-2,3.076994143E-2
5.092155458E0,8.741112314E-3,4.359656582E-3,-2.914661586E-2,3.073985794E-2
5.102153458E0,1.167816874E-2,-2.615715377E-5,-2.136163294E-2,2.434542403E-2
5.112152458E0,2.212016299E-2,-1.200910287E-2,-2.016236901E-2,3.224967111E-2
5.122151458E0,2.224963314E-2,-1.249472327E-2,-3.213571250E-2,4.103496439E-2
5.132150458E0,1.566078954E-2,-9.048502268E-3,-3.557855308E-2,3.991201776E-2
5.142148458E0,1.868497862E-2,1.857231008E-3,-3.976983726E-2,4.397974180E-2
5.152147458E0,1.874711442E-2,-1.056590955E-2,-1.656750083E-2,2.715832888E-2
5.162146458E0,1.273531792E-2,-1.116155810E-2,-1.417248130E-2,2.208229897E-2
5.172145458E0,1.180510813E-2,-1.043790121E-2,-1.596933067E-2,2.243501463E-2
5.182143458E0,1.035634168E-2,-1.974862369E-2,-3.243392050E-2,3.936014672E-2
5.192142458E0,1.706620437E-2,-6.684591752E-3,-2.150664389E-2,2.825729693E-2
5.202141458E0,2.766882347E-2,-3.966933824E-3,-2.315380454E-2,3.629599180E-2
5.212140458E0,2.374308511E-2,5.011082087E-3,-1.911220908E-2,3.088885835E-2
5.222138458E0,2.405387376E-2,7.014210261E-3,-1.551909506E-2,2.947253467E-2
5.232137458E0,1.935800227E-2,9.880149923E-3,-1.926189780E-2,2.904083886E-2
5.242136458E0,1.529007607E-2,3.194799861E-3,-3.602761924E-2,3.926808527E-2
5.252134458E0,1.415313067E-2,1.224925898E-2,-2.599613607E-2,3.203364706E-2
5.262133458E0,1.176972334E-2,6.856728299E-3,-1.132839561E-2,1.771647983E-2
5.272132458E0,9.775082767E-3,-5.118150087E-3,-1.342462242E-2,1.737723196E-2
5.282131458E0,1.558409052E-2,-3.233638164E-3,-4.142752290E-3,1.644635794E-2
5.292129458E0,2.249522533E-2,-8.910060301E-3,-2.135812461E-2,3.227373273E-2
5.302128458E0,1.050832361E-2,-1.135295391E-2,-2.659839928E-2,3.076994105E-2
5.312127458E0,2.356970603E-2,-2.154770231E-2,-2.211183071E-2,3.884285744E-2
5.322126458E0,1.961792928E-2,-7.438836889E-3,-5.346693993E-3,2.165147986E-2
5.332124458E0,1.024947468E-2,-8.062177487E-3,-1.642248988E-2,2.097018386E-2
5.342123458E0,1.849035770E-2,-1.725878790E-2,-1.792054653E-2,3.099846892E-2
5.352122458E0,1.036046214E-2,2.454916947E-4,-1.822050869E-2,2.096154525E-2
5.362121458E0,1.298469253E-2,-1.092912214E-2,-1.567638516E-2,2.310404732E-2
5.372119458E0,1.701576300E-2,-3.874566089E-3,-1.867191374E-2,2.555755888E-2
5.382118458E0,2.104003608E-2,9.759468874E-3,-1.223529875E-2,2.622275513E-2
5.392117458E0,1.382218740E-2,1.900710538E-3,-1.807432830E-2,2.283302233E-2
5.402116458E0,2.635986029E-2,5.400972599E-3,-2.825082242E-2,3.901437821E-2
5.412114458E0,1.182637738E-2,6.499883691E-3,-1.927125335E-2,2.352642972E-2
5.422113458E0,1.888244092E-2,-3.462456157E-3,-2.061786711E-2,2.817146822E-2
5.432112458E0,1.989797437E-2,1.304529344E-2,-3.558907807E-2,4.280994677E-2
5.442110458E0,1.707947024E-2,1.863270085E-3,-1.508230805E-2,2.286167307E-2
5.452109708E0,1.689040418E-2,4.187894622E-3,-8.194288015E-3,1.923461907E-2
5.462108708E0,6.340236431E-3,-1.122410503E-2,-1.942152679E-2,2.331040185E-2
5.472107708E0,2.484907681E-2,-3.823969401E-3,-2.855604708E-2,3.804664486E-2
5.482105708E0,2.481075928E-2,1.098922969E-2,-3.860331774E-3,2.740874142E-2
5.492104708E0,2.498292323E-2,-1.891310225E-2,-2.766025364E-2,4.179642953E-2
5.502103708E0,-1.617505216E-2,4.634466581E-3,-2.048045754E-2,2.650584340E-2
5.512102708E0,4.670219564E-2,-1.703073735E-2,-8.754041970E-2,1.006700858E-1
5.522100708E0,4.398906017E-2,-2.132321491E-2,3.116273582E-2,5.797269195E-2
5.532099708E0,1.025008681E-2,1.440041307E-3,3.770869374E-3,1.101623595E-2
5.542098708E0,9.017594252E-4,4.557356425E-4,-5.011940897E-2,5.012959226E-2
5.552097708E0,8.639982892E-3,7.413301002E-3,-3.140773416E-2,3.340736597E-2
5.562095708E0,1.941235397E-2,-1.764057454E-2,-1.704054058E-2,3.127953612E-2
5.572094708E0,-4.387467401E-3,-8.222656148E-3,-2.931560040E-2,3.076144293E-2
5.582093708E0,1.667774825E-2,1.632140614E-3,-7.761009336E-3,1.846738844E-2
5.592092708E0,3.021309318E-2,-1.886765842E-2,-2.138326764E-2,4.154592241E-2
5.602090708E0,3.144975188E-2,1.043706067E-2,-3.380743146E-2,4.733879541E-2
5.612089708E0,1.992280676E-2,-5.834141644E-3,-2.617213726E-2,3.340563136E-2
5.622088708E0,2.157816265E-2,-5.449513625E-3,-4.323782086E-2,4.862945049E-2
5.632086708E0,2.778523788E-2,-1.285943421E-2,-1.988696516E-2,3.650857263E-2
5.642085708E0,2.074440451E-2,-3.862232119E-3,-2.670423388E-3,2.126918702E-2
5.652084708E0,6.976440903E-3,-1.574904596E-2,-2.602069438E-2,3.120544363E-2
5.662083708E0,1.540869232E-2,-3.013819400E-3,-3.964178324E-2,4.263779878E-2
5.672081708E0,1.071356088E-2,-1.228539295E-2,-8.957934380E-3,1.859988857E-2
5.682080708E0,1.364382905E-2,-2.922721608E-3,-1.150205791E-2,1.808296737E-2
5.692079708E0,2.919125570E-2,-2.771123406E-3,-3.455470562E-2,4.531926979E-2
5.702078708E0,2.653761565E-2,-6.191698881E-3,-3.230995953E-2,4.226719371E-2
5.712076708E0,1.995418986E-2,-1.062378785E-2,-1.255280256E-2,2.585744406E-2
5.722075708E0,2.905352636E-2,-4.703143956E-3,-1.569685042E-2,3.335593006E-2
5.732074708E0,2.138474772E-2,7.480050623E-4,-2.003957748E-2,2.931640517E-2
5.742073708E0,2.373676280E-2,-8.967609694E-3,-2.363210678E-2,3.467460747E-2
5.752071708E0,9.954564879E-3,-1.108273032E-2,-2.004250109E-2,2.497242726E-2
5.762070708E0,1.306107178E-2,-4.653195944E-4,-2.214106679E-2,2.571060009E-2
5.772069708E0,1.045654834E-2,-5.869051348E-4,-1.675519645E-2,1.975906043E-2
5.782068708E0,1.446553644E-2,-7.922986345E-3,-1.600499868E-2,2.298228535E-2
5.792066708E0,1.716015268E-2,9.280655002E-3,-1.720309317E-2,2.601053271E-2
5.802065708E0,2.045916089E-2,-5.936285192E-3,-3.531425893E-2,4.124213416E-2
5.812064708E0,2.790338818E-2,-2.227898799E-3,-3.112180531E-2,4.185844444E-2
5.822062708E0,2.540587792E-2,-6.483566305E-3,-2.199079335E-2,3.422119602E-2
5.832061708E0,2.316471325E-2,8.121417090E-4,-1.749896228E-2,2.904267886E-2
5.842060708E0,1.374706895E-2,4.770560525E-3,-1.555417836E-2,2.129959194E-2
5.852059708E0,1.055448920E-2,8.008584101E-4,-1.495542347E-2,1.832220805E-2
5.862057708E0,4.858378395E-3,-4.832403967E-3,-2.049273670E-2,2.160805929E-2
5.872056708E0,8.439185852E-3,-3.978902344E-3,-1.884499133E-2,2.102820058E-2
5.882055708E0,1.308032191E-2,5.201436365E-3,-2.483137071E-2,2.854376872E-2
5.892054708E0,1.778955976E-2,-1.379741896E-3,-2.857300401E-2,3.368662468E-2
5.902052708E0,2.085894599E-2,2.878730446E-3,-1.794335067E-2,2.766489743E-2
5.912051708E0,2.911897863E-2,-1.844346120E-2,-2.527634382E-2,4.274306651E-2
5.922050708E0,2.632844978E-2,-1.336953982E-2,-2.108447492E-2,3.628342522E-2
5.932049708E0,2.705309339E-2,-1.022566555E-2,-1.599388897E-2,3.304903300E-2
5.942047708E0,1.248483782E-2,-5.918405503E-3,-1.973552227E-2,2.409127515E-2
5.952046708E0,7.786298543E-3,2.851687074E-3,-2.048396587E-2,2.209867467E-2
5.962045708E0,7.738588918E-3,-9.734106576E-3,-2.302925885E-2,2.617222483E-2
5.972044708E0,8.251764318E-3,-1.999486456E-2,-2.228315413E-2,3.105519572E-2
5.982042708E0,2.339818161E-3,-3.422594592E-3,-1.674174786E-2,1.724746428E-2
5.992041708E0,1.423775084E-2,-6.847875249E-3,-1.584653914E-2,2.237676802E-2
6.002040708E0,2.870498663E-2,5.895820633E-4,-2.108739853E-2,3.562305772E-2
6.012038708E0,3.017495837E-2,-8.370088208E-3,-1.555125475E-2,3.496323803E-2
6.022037708E0,2.699289448E-2,1.994384760E-3,-1.390467882E-2,3.042916390E-2
6.032036708E0,1.786138002E-2,4.825131493E-3,-2.962491810E-2,3.492773343E-2
6.042035708E0,1.535330823E-2,2.594848126E-3,-1.525421619E-2,2.179789949E-2
6.052033708E0,1.632935470E-2,-4.587323405E-4,-1.255748034E-2,2.060457650E-2
6.062032708E0,6.602347009E-3,-2.073651077E-3,-1.749896228E-2,1.881766978E-2
6.072031708E0,2.901699040E-3,-1.044021268E-2,-1.974370837E-2,2.252180984E-2
6.082030708E0,1.956764323E-2,-7.897377368E-3,-2.363678455E-2,3.168530913E-2
6.092028708E0,2.023775241E-2,-9.043239774E-3,-1.630028307E-2,2.751446959E-2
6.102027708E0,1.803580063E-2,-4.587405631E-3,-1.226219594E-2,2.228667414E-2
6.112026708E0,2.794735193E-2,-7.144064130E-3,-1.675402701E-2,3.335850047E-2
6.122025708E0,1.982625461E-2,-4.953496149E-3,-1.600324452E-2,2.595614246E-2
6.132023708E0,2.047778975E-2,-1.702461605E-2,-2.273748279E-2,3.501671812E-2
6.142022708E0,1.917108323E-2,-6.974229924E-3,-2.019218981E-2,2.870356850E-2
6.152021708E0,1.049027947E-2,6.688666530E-3,-1.345561266E-2,1.832587611E-2
6.162020708E0,1.327974851E-2,-3.965855744E-3,-1.779775500E-2,2.255747804E-2
6.172018708E0,1.622637975E-2,-3.572813217E-3,-2.363503039E-2,2.889074342E-2
6.182017708E0,1.307151455E-2,-4.070502631E-3,-2.932203233E-2,3.236070247E-2
6.192016708E0,2.554787390E-2,-5.302721104E-3,-1.495133042E-2,3.007249563E-2
6.202015708E0,2.847695435E-2,-1.368972969E-2,-1.405261338E-2,3.458065313E-2
6.212013708E0,2.310929261E-2,-1.124403125E-2,-2.423203111E-2,3.532221645E-2
6.222012708E0,2.072859876E-2,3.360961284E-4,-1.809362411E-2,2.751666769E-2
6.232011708E0,1.883691486E-2,-5.882728351E-3,-3.186732531E-2,3.748282642E-2
6.242009708E0,1.526367224E-2,-4.190507596E-3,-2.648028553E-2,3.085037383E-2
6.252008708E0,1.142084557E-2,-2.539774664E-3,-1.779775500E-2,2.129897303E-2
6.262007708E0,1.491749880E-2,-5.419190330E-3,-2.183935046E-2,2.699734474E-2
6.272006708E0,1.591123310E-2,-2.293177480E-3,-2.198786974E-2,2.723770213E-2
6.282004708E0,1.509290613E-2,1.727998406E-3,-2.543246448E-2,2.962418005E-2
6.292003708E0,2.244759793E-2,-3.828893853E-3,-1.046359241E-2,2.506076310E-2
6.302002708E0,2.311501192E-2,-1.001519320E-2,-2.078977525E-2,3.266225078E-2
6.312001708E0,2.145440267E-2,-1.650393063E-2,-1.375323594E-2,3.036153190E-2
6.321999708E0,1.750351215E-2,-6.978871152E-3,-2.003782332E-2,2.750621645E-2
6.331998708E0,1.183227028E-2,4.804757601E-3,-2.767194808E-2,3.047663081E-2
6.341997708E0,1.746041634E-2,3.912737444E-3,-2.303218246E-2,2.916602616E-2
6.351996708E0,1.533695430E-2,-1.022436820E-2,-8.960857987E-3,2.049528843E-2
6.361994708E0,1.494272405E-2,-8.774615033E-3,-2.153471053E-2,2.764095926E-2
6.371993708E0,1.526993059E-2,-3.313361295E-3,-2.842097640E-2,3.243302395E-2
6.381992708E0,1.835078283E-2,9.789883532E-4,-2.587392926E-2,3.173593963E-2
6.391991708E0,1.340074933E-2,-2.098928408E-2,-3.440384746E-2,4.247063513E-2
6.401989708E0,1.855859653E-2,-2.000178072E-2,-1.718789041E-2,3.224773347E-2
6.411988708E0,2.243363771E-2,-1.264690619E-2,-1.778839946E-2,3.129919316E-2
6.421987708E0,2.302761432E-2,-5.416211905E-3,-2.587334454E-2,3.505761444E-2
6.431985708E0,3.060849287E-2,-4.869616013E-3,-1.419762433E-2,3.409054902E-2
6.441984708E0,2.330194009E-2,8.410671540E-4,-6.712603569E-3,2.426410626E-2
6.451983708E0,1.464911160E-2,-8.924961565E-3,-2.826544046E-2,3.306337149E-2
6.461982917E0,1.402836571E-2,-9.153030384E-3,-2.497170389E-2,3.006923685E-2
6.471980917E0,1.531574900E-2,-9.488962060E-3,-1.569217265E-2,2.389261080E-2
6.481979917E0,1.103471920E-2,2.823108807E-6,-1.569217265E-2,1.918356896E-2
6.491978917E0,1.546745684E-2,6.139284074E-3,-2.841629863E-2,3.293051864E-2
6.501977917E0,2.108167008E-2,4.873288795E-3,-1.793984234E-2,2.810736026E-2
6.511975917E0,1.391022454E-2,-6.902848212E-3,-2.123240948E-2,2.630511115E-2
6.521974917E0,1.921478203E-2,-1.503144641E-2,-1.898473978E-2,3.091233693E-2
6.531973917E0,2.386336416E-2,-6.483922619E-3,-2.227906108E-2,3.328450036E-2
6.541972917E0,1.247394738E-2,-1.065113272E-2,-1.793808818E-2,2.430680972E-2
6.551970917E0,1.942468794E-2,1.337194266E-2,-2.976349711E-2,3.797358440E-2
6.561969917E0,2.012319267E-2,-3.544865353E-3,-2.407474101E-2,3.157692366E-2
6.571968917E0,1.392526285E-2,-9.655936612E-3,-8.954426050E-3,1.916590210E-2
6.581967917E0,1.199951892E-2,-8.540808633E-3,-3.739411354E-2,4.019021764E-2
6.591965917E0,2.270389784E-2,-3.791351988E-2,-1.673823953E-2,4.725537672E-2
6.601964917E0,1.147668648E-2,-1.958196891E-2,-1.898415506E-2,2.958996421E-2
6.611963917E0,1.440756678E-2,1.634397274E-3,-2.153061748E-2,2.595797996E-2
6.621961917E0,1.843265299E-2,-1.082683241E-2,-2.272871196E-2,3.120220094E-2
6.631960917E0,1.823150877E-2,-6.984563051E-3,-1.285042584E-2,2.337317859E-2
6.641959917E0,2.377645992E-2,-2.266043658E-2,-1.569568098E-2,3.640288222E-2
6.651958917E0,2.510876628E-2,-1.211049724E-2,-1.629385114E-2,3.228937708E-2
6.661956917E0,2.214364322E-2,-2.567978343E-3,-1.928821027E-2,2.947830564E-2
6.671955917E0,1.794907912E-2,1.416204767E-3,-2.871684551E-2,3.389442865E-2
6.681954917E0,2.607228692E-2,1.450347025E-3,-2.317777812E-2,3.491528391E-2
6.691953917E0,1.672607915E-2,2.086990038E-3,-2.422793806E-2,2.951457663E-2
6.701951917E0,2.511698892E-2,-6.061031884E-3,-3.006696761E-2,3.964368526E-2
6.711950917E0,2.501693758E-2,-1.151252808E-3,-1.808953106E-2,3.089342459E-2
6.721949917E0,1.014763263E-2,3.875178220E-3,-2.377711773E-2,2.614082596E-2
6.731948917E0,2.070401304E-2,7.572372677E-3,-2.647326887E-2,3.445041289E-2
6.741946917E0,6.988948463E-3,-2.161295358E-3,-2.797132552E-2,2.891213671E-2
6.751945917E0,1.084519632E-2,3.293133583E-3,-2.123708725E-2,2.407232616E-2
6.761944917E0,1.731766205E-2,7.431354281E-4,-3.411148667E-2,3.826286963E-2
6.771943917E0,1.853427577E-2,-7.276339112E-3,-3.096685410E-2,3.681590066E-2
6.781941917E0,2.860115287E-2,-6.330515435E-3,-1.973903060E-2,3.532323173E-2
6.791940917E0,2.740544295E-2,-1.387864044E-3,-8.961442709E-3,2.886679624E-2
6.801939917E0,2.033390257E-2,-1.404164071E-2,-1.883797467E-2,3.107256921E-2
6.811937917E0,1.774728622E-2,1.119659571E-3,-2.228023052E-2,2.850663919E-2
6.821936917E0,2.598173730E-3,-8.185480647E-3,-1.808836162E-2,2.002352183E-2
6.831935917E0,9.796507331E-3,-5.134969968E-3,-1.419353127E-2,1.799432695E-2
6.841934917E0,8.873898927E-3,-2.953858031E-3,-2.047928810E-2,2.251383132E-2
6.851932917E0,1.653058114E-2,-9.565176861E-3,-1.239609718E-2,2.276874935E-2
6.861931917E0,2.287734088E-2,-1.417117481E-2,-1.823688090E-2,3.250813354E-2
6.871930917E0,2.049024249E-2,-9.801596235E-3,-1.734050274E-2,2.857646517E-2
6.881929917E0,2.601643687E-2,-8.630481167E-3,-1.300245345E-2,3.033816059E-2
6.891927917E0,1.613593063E-2,-1.017029973E-2,-1.195521712E-2,2.251067459E-2
6.901926917E0,1.416198372E-2,-8.213328011E-4,-9.112885594E-3,1.686063624E-2
6.911925917E0,-1.694687549E-4,5.207027765E-3,-1.599739730E-2,1.682434481E-2
6.921924917E0,-5.455232933E-3,1.123021720E-2,-2.587509871E-2,2.872974204E-2
6.931922917E0,-6.934615038E-4,2.669244809E-2,-3.230995953E-2,4.191540479E-2
6.941921917E0,2.279700561E-2,1.825224811E-2,-2.572073221E-2,3.891534520E-2
6.951920917E0,2.422668639E-2,6.940809432E-3,-2.167679787E-2,3.324140091E-2
6.961919917E0,3.388758400E-2,1.133315560E-2,-2.257259130E-2,4.226500495E-2
6.971917917E0,4.226942145E-2,2.968722750E-3,-2.242056370E-2,4.793953464E-2
6.981916917E0,3.297198311E-2,2.738433816E-3,-2.660892427E-2,4.245804448E-2
6.991915917E0,2.492571188E-2,-1.511222022E-3,-2.031790495E-2,3.219304531E-2
7.001914917E0,1.869199527E-2,-2.494626850E-2,-7.292647362E-3,3.201389862E-2
7.011912917E0,2.026836807E-3,-4.059584783E-3,-2.585346401E-2,2.624861705E-2
7.021911917E0,4.165547295E-3,-2.347267879E-2,-2.824906826E-2,3.696387820E-2
7.031910917E0,8.284015367E-3,-2.620066071E-2,-1.926891446E-2,3.356174305E-2
7.041908917E0,1.303671448E-2,-2.774540372E-2,-1.058813810E-2,3.243257653E-2
7.051907917E0,2.564642689E-2,-4.328638016E-2,-2.002028167E-2,5.415036102E-2
7.061906917E0,2.890094144E-2,-2.146358463E-2,-1.927300751E-2,4.083379360E-2
7.071905917E0,2.605426105E-2,-3.313612542E-2,-2.032082856E-2,4.679490784E-2
7.081903917E0,3.677296565E-2,-6.495215055E-3,-3.049673796E-2,4.821296348E-2
7.091902917E0,3.199136850E-2,-1.984924148E-2,-2.421273530E-2,4.476266968E-2
7.101901917E0,3.018024827E-2,-1.508353231E-3,-1.628274143E-2,3.432564906E-2
7.111900917E0,4.416429391E-2,-9.329506662E-4,-4.113282323E-2,6.035945991E-2
7.121898917E0,7.438316122E-3,1.920049290E-2,-1.733407080E-2,2.691574790E-2
7.131897917E0,1.501705678E-2,-9.951339774E-3,-7.456954122E-3,1.949736706E-2
7.141896917E0,1.255788233E-2,1.644364036E-2,-9.104114771E-3,2.260483627E-2
7.151895917E0,-8.086425159E-4,2.818613760E-3,-1.614240825E-2,1.640657888E-2
7.161893917E0,3.395642582E-3,3.287821753E-2,-3.470790267E-2,4.792855187E-2
7.171892917E0,3.585460561E-2,2.185759560E-2,-2.033895493E-2,4.665812166E-2
7.181891917E0,4.719700713E-2,2.437241910E-2,3.308354616E-3,5.322140082E-2
7.191890917E0,4.825025512E-2,2.358422357E-2,-2.333506823E-2,5.855619634E-2
7.201888917E0,5.270580604E-2,1.674873711E-2,-4.204440415E-2,6.947052688E-2
7.211887917E0,2.491719687E-2,1.010449114E-2,-1.255455673E-2,2.967464129E-2
7.221886917E0,1.250471835E-2,1.747072206E-2,-2.108681381E-2,3.010395035E-2
7.231884917E0,-5.232892558E-4,3.528977372E-4,-2.842214584E-2,2.842915304E-2
7.241883917E0,-1.288863374E-3,-1.088356867E-2,-3.590482771E-2,3.754024359E-2
7.251882917E0,8.463853793E-3,-3.216007895E-2,2.097513199E-2,3.931747272E-2
7.261881917E0,2.242211686E-2,2.197775588E-2,-1.046125352E-2,3.309397081E-2
7.271879917E0,1.478075618E-3,-7.656225404E-3,-3.336538196E-2,3.426443065E-2
7.281878917E0,1.133850032E-2,-2.479385717E-2,-1.256391227E-2,3.001914114E-2
7.291877917E0,-2.320266534E-2,7.275096579E-3,1.260244542E-1,1.283489531E-1
7.301876917E0,-2.475252101E-1,-3.519724153E-2,4.021521968E-1,4.735334886E-1
7.311874917E0,-1.965088200E-1,-8.082868407E-2,9.803231263E-1,1.003086449E0
7.321873917E0,2.707454536E-1,-4.099610802E-1,1.355945921E0,1.442206826E0
7.331872917E0,-7.743047420E-3,-1.726641486E-1,1.784381937E0,1.792733042E0
7.341871917E0,1.677192680E0,-2.767879297E-1,-4.153715819E-1,1.749891538E0
7.351869917E0,8.847607653E-1,4.228202038E-1,-1.597383302E0,1.874356410E0
7.361868917E0,-2.356244890E0,8.155129943E-1,-2.836835731E0,3.776849003E0
7.371867917E0,-2.198315981E0,-4.654639110E-1,2.519272864E-1,2.261131832E0
7.381866917E0,1.478070136E0,3.329981640E-1,-1.757368970E-1,1.525274586E0
7.391864917E0,3.222679751E-1,4.273945536E-1,-1.529052740E-1,5.566891189E-1
7.401863917E0,1.500542996E-1,-6.959057862E-1,-2.099203044E-1,7.422046148E-1
7.411862917E0,9.027612725E-1,-3.456931635E-1,-5.383239090E-2,9.681836627E-1
7.421861917E0,2.033799744E-1,2.704830964E-1,-1.721630788E-1,3.796901962E-1
7.431859917E0,2.066966431E-1,2.308505408E-1,-8.518750012E-2,3.213602100E-1
7.441858917E0,-3.098636187E-1,1.022735393E-1,1.729606390E-2,3.267636651E-1
7.451857917E0,-4.196930763E-1,-2.232852670E-1,3.103579277E-1,5.677328879E-1
7.461855833E0,-1.402603596E-2,-3.471516053E-1,1.834072745E-1,3.928730012E-1
7.471854833E0,1.226935513E-1,-4.461194943E-1,1.368342018E-1,4.824934295E-1
7.481853833E0,-3.125440920E-1,2.615228048E-1,-5.619525075E-2,4.113829032E-1
7.491852833E0,-2.641541798E-1,4.521000265E-1,-1.522854692E-1,5.453097549E-1
7.501850833E0,4.698196481E-1,1.461476652E-1,-1.760684341E-1,5.225798841E-1
7.511849833E0,4.309926013E-1,-1.575845084E-1,-9.357825458E-2,4.683421712E-1
7.521848833E0,-1.547508746E-1,5.302471683E-2,-4.311678350E-2,1.691700647E-1
7.531847833E0,-6.956936327E-2,-1.185248885E-3,4.790389895E-2,8.447534940E-2
7.541845833E0,-3.679564188E-2,5.019715866E-3,8.263635993E-2,9.059737740E-2
7.551844833E0,3.800528005E-2,6.332674337E-2,-2.378062606E-2,7.758992147E-2
7.561843833E0,-1.982664290E-2,-1.026980289E-2,1.109567642E-2,2.493348462E-2
7.571842833E0,-1.477632509E-1,-6.653487305E-2,1.091260010E-1,1.953697820E-1
7.581840833E0,-9.524549676E-2,-5.783326599E-2,6.658984601E-2,1.298098567E-1
7.591839833E0,6.787571269E-2,1.819159239E-2,-9.793326080E-2,1.205361770E-1
7.601838833E0,3.839578544E-1,-6.700826911E-2,-1.760719424E-1,4.276857152E-1
7.611837833E0,8.017448114E-2,3.393385192E-1,-1.236522388E-1,3.699573681E-1
7.621835833E0,-2.014174844E-1,1.673370428E-1,1.079922259E-2,2.620826437E-1
7.631834833E0,9.374585040E-2,-4.030869473E-1,4.147663951E-2,4.159178803E-1
7.641833833E0,1.017689794E-1,-2.698296700E-1,-4.473119974E-4,2.883837306E-1
7.651831833E0,-8.251049861E-2,1.885089701E-1,-2.799646854E-2,2.076714146E-1
7.661830833E0,-1.390224857E-1,2.376333292E-1,-3.936404049E-2,2.781121687E-1
7.671829833E0,-1.355106389E-2,-9.740718498E-2,1.602312505E-2,9.964201701E-2
7.681828833E0,2.497742685E-1,-4.804326734E-1,7.722008407E-2,5.469604010E-1
7.691826833E0,-8.910909975E-2,-1.682251252E-2,7.149215162E-2,1.154753494E-1
7.701825833E0,1.097601407E-2,2.848136717E-1,-6.399602115E-2,2.921211927E-1
7.711824833E0,3.576343016E-2,1.027295399E-1,2.415777147E-2,1.114270130E-1
7.721823833E0,-7.967247027E-2,-3.925879792E-1,2.769305652E-1,4.869944167E-1
7.731821833E0,4.317176103E-2,-8.489761527E-2,2.077112263E-1,2.285068042E-1
7.741820833E0,1.116127122E-1,9.387129145E-2,2.444779336E-1,2.846729297E-1
7.751819833E0,1.777364620E-1,-1.820292137E-2,3.679383838E-1,4.090235330E-1
7.761818833E0,-2.299063068E-2,4.079804821E-1,3.782692444E-1,5.568341442E-1
7.771816833E0,-1.677329541E-1,9.166269760E-2,5.791561854E-1,6.098838259E-1
7.781815833E0,-1.157778483E-1,1.016636656E-1,6.579076552E-1,6.757088825E-1
7.791814833E0,-5.148312584E-2,1.373796009E-2,8.173477775E-1,8.190827999E-1
7.801813833E0,-2.786286880E-2,-7.173952539E-2,9.685632062E-1,9.716159650E-1
7.811811833E0,-1.229148593E-1,1.215746135E-1,1.050931764E0,1.065056816E0
7.821810833E0,-3.058163953E-1,-5.730709881E-3,1.261873577E0,1.298414969E0
7.831809833E0,1.227501414E-1,6.047252554E-2,1.066424546E0,1.075167818E0
7.841807833E0,5.664416708E-1,-3.135407133E-1,9.537311590E-1,1.152721592E0
7.851806833E0,-6.131595443E-2,-2.932372072E-1,1.179188685E0,1.216648536E0
7.861805833E0,2.550131910E-1,6.383248184E-2,1.014848596E0,1.048343448E0
7.871804833E0,3.550095687E-1,-1.053567487E-1,1.090022739E0,1.151208674E0
7.881802833E0,-1.309363438E-1,-5.156058317E-2,1.335680056E0,1.343072609E0
7.891801833E0,-6.191616654E-2,1.824571202E-1,1.257863556E0,1.272534848E0
7.901800833E0,2.316786527E-2,-3.328398871E-1,1.283465590E0,1.326123320E0
7.911799833E0,-3.447468282E-1,-7.955420120E-3,1.243953615E0,1.290865702E0
7.921797833E0,-3.845396523E-1,3.971268438E-1,1.061777764E0,1.197059938E0
7.931796833E0,-2.424517638E-1,-1.799238323E-1,1.104447235E0,1.144971239E0
7.941795833E0,1.863594752E0,2.401347315E-1,4.532282102E-1,1.932890555E0
7.951794833E0,-2.157791231E-1,-1.303408780E-1,1.091884493E0,1.120607478E0
7.961792833E0,-7.932750830E-1,-1.098104541E-1,1.289805141E0,1.518203213E0
7.971791833E0,7.000504388E-1,-7.970036332E-2,7.996435779E-1,1.065763865E0
7.981790833E0,-1.602737342E-1,6.201600775E-1,9.625744879E-1,1.156216172E0
7.991789833E0,-1.032737147E-1,-2.805575017E-1,1.253020307E0,1.288191703E0
8.001787833E0,9.972669320E-2,-6.694742518E-1,1.487973711E0,1.634688641E0
8.011786833E0,-1.699061997E-1,2.091594355E-1,1.151412072E0,1.182525072E0
8.021785833E0,-1.764257721E-1,2.991821444E-1,1.077396262E0,1.131997665E0
8.031784833E0,-1.842873901E-1,-1.981303077E-1,1.093932772E0,1.126901225E0
8.041782833E0,-8.853819223E-2,-2.541738963E-3,9.805365497E-1,9.845290230E-1
8.051781833E0,-7.031152569E-2,-5.177316600E-2,9.683363342E-1,9.722651015E-1
8.061780833E0,-1.672034339E-1,3.203687263E-1,8.390994197E-1,9.136087485E-1
8.071778833E0,-1.014319880E-1,2.229772649E-2,9.338032633E-1,9.395606268E-1
8.081777833E0,4.236591878E-2,-7.625596044E-2,1.000080868E0,1.003878272E0
8.091776833E0,-8.383070854E-2,2.391079239E-1,9.286530358E-1,9.625989029E-1
8.101775833E0,-5.377774685E-2,-5.398480223E-2,9.265416062E-1,9.296697010E-1
8.111773833E0,1.732943506E-1,2.014878155E-1,6.825501609E-1,7.324636468E-1
8.121772833E0,1.468308392E-1,-3.266703437E-1,7.654689413E-1,8.451127197E-1
8.131771833E0,-7.086094469E-2,2.840084005E-3,6.820882308E-1,6.857650430E-1
8.141770833E0,1.362396222E-1,-5.484835376E-2,5.892835629E-1,6.073093891E-1
8.151768833E0,1.703262856E-1,-1.206588573E-1,6.298521298E-1,6.635384758E-1
8.161767833E0,1.307590909E-1,-7.680563525E-2,6.595097923E-1,6.767201871E-1
8.171766833E0,1.542067181E-1,-3.604250041E-1,7.229824877E-1,8.224290686E-1
8.181765833E0,-8.918960860E-2,1.786874386E-1,6.572872657E-1,6.869574489E-1
8.191763833E0,-9.054032455E-2,-2.129816873E-1,7.463573170E-1,7.814140990E-1
8.201762833E0,1.700162553E-1,-2.798274951E-1,6.466693068E-1,7.248380139E-1
8.211761833E0,-3.817381691E-2,9.321468567E-2,5.326105946E-1,5.420519011E-1
8.221760833E0,-4.837218784E-2,1.753836521E-1,4.723047513E-1,5.061334528E-1
8.231758833E0,2.967963982E-2,-7.484019421E-2,5.589897233E-1,5.647578653E-1
8.241757833E0,-1.525810916E-1,-1.314538315E-1,6.750002360E-1,7.044050099E-1
8.251756833E0,1.183817871E-1,1.696829092E-1,4.033304107E-1,4.533011773E-1
8.261755833E0,1.078488046E-1,1.244862163E-2,4.099471200E-1,4.240789714E-1
8.271753833E0,1.026071869E-1,2.161381239E-1,3.754239893E-1,4.451820921E-1
8.281752833E0,1.241902740E-1,9.830905404E-2,4.319186175E-1,4.600452004E-1
8.291751833E0,-1.116376725E-1,-1.916118317E-1,5.568052036E-1,5.993413874E-1
8.301750833E0,-1.614667306E-1,-2.366708958E-2,5.174803394E-1,5.426025598E-1
8.311748833E0,1.318495601E-1,2.587790171E-1,2.783333123E-1,4.022689634E-1
8.321747833E0,-1.688904653E-1,2.983196618E-1,3.159618992E-1,4.662086782E-1
8.331746833E0,8.424931437E-2,-4.127656241E-1,4.364817846E-1,6.066215918E-1
8.341744833E0,-5.002507693E-2,1.213029281E-1,2.658582777E-1,2.964751802E-1
8.351743833E0,-6.974010654E-3,2.363938656E-1,1.304180521E-1,2.700732583E-1
8.361742833E0,-6.373602105E-3,4.321577503E-2,1.703983891E-1,1.759086042E-1
8.371741833E0,1.406563531E-1,-2.827080894E-1,2.483768570E-1,4.017451140E-1
8.381739833E0,5.256388315E-2,-2.053361604E-1,2.755845362E-1,3.476675671E-1
8.391738833E0,-1.328969426E-1,5.075151125E-1,1.629958141E-1,5.493640161E-1
8.401737833E0,-1.430154031E-2,-1.030345727E-1,2.603987324E-1,2.804071274E-1
8.411736833E0,7.540840653E-2,-2.634201532E-1,2.726118118E-1,3.865149477E-1
8.421734833E0,8.380783131E-2,-1.884745264E-1,2.198465377E-1,3.014612742E-1
8.431733833E0,3.316081163E-2,2.984764951E-1,5.781609893E-2,3.058276620E-1
8.441732833E0,4.553299919E-2,-1.267652599E-1,6.060346663E-2,1.477005934E-1
8.451731833E0,1.194851932E-1,-4.576570923E-2,-3.734908998E-2,1.332897823E-1
8.461729792E0,8.982685461E-2,-2.866422971E-2,-1.683670664E-1,1.929714251E-1
8.471728792E0,-6.271234718E-2,4.117811357E-1,-2.992131346E-1,5.128596710E-1
8.481727792E0,5.672941217E-4,-2.421474528E-2,-2.586562622E-1,2.597878705E-1
8.491726792E0,1.948054895E-1,-2.512853900E-1,-3.709315735E-1,4.885527179E-1
8.501724792E0,1.066391254E-1,-3.673337817E-2,-4.510173780E-1,4.649063555E-1
8.511723792E0,-1.231038797E-1,1.287941067E-1,-5.147847730E-1,5.447438385E-1
8.521722792E0,-1.071368331E-1,1.718734589E-1,-6.207526928E-1,6.529568841E-1
8.531721792E0,-1.016939158E-1,-1.056539700E-1,-6.231442040E-1,6.401664728E-1
8.541719792E0,2.907255174E-1,-2.855139124E-1,-6.816859424E-1,7.941884189E-1
8.551718792E0,2.894097660E-2,-1.985774004E-1,-6.673351210E-1,6.968548829E-1
8.561717792E0,2.611455132E-2,2.495790446E-1,-9.224064553E-1,9.559316597E-1
8.571715792E0,-1.018258436E-1,-9.809733002E-2,-8.719730508E-1,8.833620945E-1
8.581714792E0,-5.348055298E-3,1.096610486E-1,-9.487703812E-1,9.551017661E-1
8.591713792E0,5.128559045E-2,-1.135947264E-1,-9.026715177E-1,9.112353387E-1
8.601712792E0,9.784171533E-2,6.647027959E-2,-9.866427970E-1,9.937078586E-1
8.611710792E0,-5.532850153E-2,3.420326969E-2,-1.090962971E0,1.092900413E0
8.621709792E0,-7.750809599E-2,3.099198981E-1,-1.336572341E0,1.374221042E0
8.631708792E0,4.878402825E-2,-7.666566753E-2,-1.416773921E0,1.419685123E0
8.641707792E0,2.054705733E-1,-1.538703935E-1,-1.541884455E0,1.563106499E0
8.651705792E0,6.549505538E-2,-1.418579285E-2,-1.654564394E0,1.655920944E0
8.661704792E0,-4.057054035E-2,1.391774278E-1,-1.744038488E0,1.750053305E0
8.671703792E0,4.463331370E-2,1.251053907E-1,-1.833207357E0,1.838013249E0
8.681702792E0,5.160081019E-2,-2.445848646E-1,-1.734076586E0,1.752000573E0
8.691700792E0,9.543892996E-2,1.049560592E-2,-1.794215199E0,1.796782382E0
8.701699792E0,1.115972171E-2,8.363058759E-2,-1.766180139E0,1.768194248E0
8.711698792E0,5.388907235E-2,2.822746097E-2,-1.770921646E0,1.771966224E0
8.721697792E0,5.909722388E-2,7.858666060E-2,-1.802001936E0,1.804682610E0
8.731695792E0,6.126370864E-2,-6.846862036E-2,-1.703009160E0,1.705485677E0
8.741694792E0,1.203192802E-1,-1.902491929E-1,-1.607771466E0,1.623453286E0
8.751693792E0,-1.630740937E-2,6.934155484E-2,-1.546666893E0,1.548306384E0
8.761692792E0,-6.388056605E-2,1.782958578E-1,-1.423153233E0,1.435700270E0
8.771690792E0,8.363427864E-3,-5.828099825E-2,-1.237687739E0,1.239087390E0
8.781689792E0,6.411527694E-2,-2.833253726E-1,-1.057195301E0,1.096378557E0
8.791688792E0,-4.449092486E-2,8.423867061E-2,-1.076996897E0,1.081202068E0
8.801687792E0,-1.262439715E-1,3.500248174E-1,-1.151127897E0,1.209772850E0
8.811685792E0,2.363678455E-2,-7.105815117E-2,-1.047887703E0,1.050560135E0
8.821684792E0,1.037537985E-1,-1.769764702E-1,-1.035367060E0,1.055495368E0
8.831683792E0,-6.810523418E-2,3.621565839E-1,-1.167273813E0,1.224060403E0
8.841682792E0,-7.877387200E-3,1.207690134E-1,-1.126131635E0,1.132616293E0
8.851680792E0,1.930217050E-1,2.753157835E-2,-1.137215617E0,1.153808791E0
8.861679792E0,1.463477496E-1,-1.553614518E-1,-1.067770575E0,1.088893404E0
8.871678792E0,8.419208474E-2,1.294509774E-1,-1.098315260E0,1.109117791E0
8.881676792E0,6.073393263E-3,2.991912807E-1,-1.123599790E0,1.162767731E0
8.891675792E0,7.329352344E-2,8.856814094E-3,-1.039767090E0,1.042384759E0
8.901674792E0,1.124439487E-1,-2.876740931E-1,-9.062576151E-1,9.574460248E-1
8.911673792E0,1.676478954E-3,-1.709679079E-1,-8.738026446E-1,8.903728982E-1
8.921671792E0,-7.752798566E-2,1.564850856E-1,-8.640974361E-1,8.815682331E-1
8.931670792E0,-3.275930892E-2,1.677616055E-1,-7.897231919E-1,8.080098071E-1
8.941669792E0,1.197958814E-1,-9.283014902E-2,-7.132544750E-1,7.291779178E-1
8.951668792E0,4.969229727E-2,-1.124838011E-1,-6.548980933E-1,6.663433369E-1
8.961666792E0,-4.203463747E-2,1.063134355E-1,-6.562604946E-1,6.661435987E-1
8.971665792E0,6.612191345E-2,-7.977587462E-2,-6.043307877E-1,6.131492465E-1
8.981664792E0,1.239819487E-1,-7.619590770E-2,-5.468585050E-1,5.658900639E-1
8.991663792E0,1.058933039E-2,8.940416487E-2,-4.597367460E-1,4.684689042E-1
9.001661792E0,8.998625519E-2,-2.269747504E-2,-3.078009403E-1,3.214873564E-1
9.011660792E0,1.256235180E-1,-1.713824207E-1,-1.852123100E-1,2.818808297E-1
9.021659792E0,-2.471164897E-2,7.531302382E-2,-1.766882390E-1,1.936529136E-1
9.031658792E0,-3.968171789E-3,-2.513083038E-2,-1.099422723E-1,1.128477216E-1
9.041656792E0,7.821359910E-2,-1.286663268E-1,-7.448651075E-2,1.679899730E-1
9.051655792E0,4.650837414E-2,-1.417498464E-2,-7.061331511E-2,8.573330348E-2
9.061654792E0,-4.829392194E-2,1.533718453E-1,-8.379703224E-2,1.813206233E-1
9.071653792E0,-9.919897285E-3,-1.414906503E-2,-3.829867780E-2,4.201653394E-2
9.081651792E0,7.124207351E-2,-3.092807061E-2,-9.109961987E-3,7.819827362E-2
9.091650792E0,3.619494463E-1,6.872354069E-2,-9.172234833E-2,3.796621075E-1
9.101649792E0,1.159158426E-1,4.326046055E-2,6.876150191E-2,1.415489109E-1
9.111648792E0,-2.527585412E-1,1.621643948E-2,1.991596735E-1,3.222024652E-1
9.121646792E0,-2.194973493E-2,-3.078053805E-2,1.854058528E-1,1.892209360E-1
9.131645792E0,-3.018097918E-2,6.657394890E-2,1.825804782E-1,1.966687906E-1
9.141644792E0,-1.162359137E-1,1.098497949E-1,2.029551011E-1,2.583960878E-1
9.151642792E0,-5.437463793E-2,-1.469511274E-2,2.147968823E-1,2.220591097E-1
9.161641792E0,-8.383427169E-3,-1.075156413E-1,1.959513062E-1,2.236667373E-1
9.171640792E0,-6.607369219E-2,1.391009937E-1,1.151369387E-1,1.922793122E-1
9.181639792E0,-3.567742584E-2,-2.038699346E-2,1.031828910E-1,1.110640230E-1
9.191637792E0,-5.393706520E-2,1.917448193E-3,1.400332135E-1,1.500739301E-1
9.201636792E0,-8.251966230E-2,2.089523892E-1,1.508412069E-1,2.705987164E-1
9.211635792E0,3.028005294E-2,-1.512493608E-1,2.318485326E-1,2.784726069E-1
9.221634792E0,2.695824972E-2,-7.058628087E-2,1.766350293E-1,1.921174221E-1
9.231632792E0,3.950843018E-2,-8.690691043E-2,1.018047023E-1,1.395633352E-1
9.241631792E0,1.702986941E-2,-1.048034925E-1,8.294918597E-2,1.347381013E-1
9.251630792E0,-3.628149804E-2,8.368212531E-2,8.085354388E-2,1.218865897E-1
9.261629792E0,1.810645144E-2,-1.263762648E-1,1.794843775E-1,2.202576801E-1
9.271627792E0,5.012144635E-2,-8.239123369E-2,2.114902818E-1,2.324405603E-1
9.281626792E0,1.120737743E-1,-2.082431220E-1,2.065137166E-1,3.139643990E-1
9.291625792E0,1.580520663E-1,-1.364116765E-1,1.202555913E-1,2.409356935E-1
9.301624792E0,-6.995588707E-2,1.609399696E-1,7.921047628E-2,1.925351903E-1
9.311622792E0,5.629350225E-2,1.085843570E-1,6.332125247E-2,1.377283630E-1
9.321621792E0,1.935373563E-1,-6.402459942E-2,3.396822989E-2,2.066632485E-1
9.331620792E0,2.052562729E-1,5.542615003E-2,-2.141952038E-2,2.136843268E-1
9.341619792E0,-3.178652409E-2,3.778329142E-2,3.457107782E-2,6.027536517E-2
9.351617792E0,1.029182131E-2,2.294959236E-1,-9.234390736E-2,2.475917966E-1
9.361616792E0,3.524672359E-2,1.681448174E-2,-1.117777133E-1,1.184031905E-1
9.371615792E0,-3.104140610E-2,-4.771545416E-2,-4.469553173E-2,7.237419439E-2
9.381614792E0,-4.589776495E-2,6.522194473E-3,-4.902539492E-2,6.747320353E-2
9.391612792E0,-1.577391672E-1,1.169305630E-1,-6.398608088E-2,2.065154231E-1
9.401611792E0,7.970108508E-2,1.106859742E-1,-1.762391728E-1,2.228539743E-1
9.411610792E0,1.117827200E-1,-9.306251189E-2,-1.278879619E-1,1.936784407E-1
9.421609792E0,1.762104118E-3,-1.924972098E-1,-9.601303518E-2,2.151203935E-1
9.431607792E0,2.464049567E-2,1.128283300E-2,-1.187797540E-1,1.218322056E-1
9.441606792E0,-2.503059631E-2,-9.216043269E-3,-7.523320019E-2,7.982168012E-2
9.451605792E0,-1.430035899E-1,3.572010686E-1,-1.080103523E-1,3.996359172E-1
9.461604167E0,1.646203168E-2,7.282286827E-3,-1.000715876E-1,1.016776909E-1
9.471603167E0,1.061956689E-2,-1.742770848E-2,-1.189276886E-1,1.206660488E-1
9.481602167E0,7.865951325E-2,-1.424137155E-1,-1.280592853E-1,2.070462893E-1
9.491601167E0,1.042279894E-2,3.411503155E-3,-1.282072198E-1,1.286754223E-1
9.501599167E0,-2.814894383E-2,7.367910163E-2,-1.371791875E-1,1.582374878E-1
9.511598167E0,-2.426343248E-2,4.713878165E-2,-9.646444023E-2,1.100734624E-1
9.521597167E0,7.502090972E-2,-9.308017231E-2,-1.204701841E-2,1.201548419E-1
9.531596167E0,7.780631312E-2,-2.624140118E-1,1.259402543E-1,3.012903643E-1
9.541594167E0,1.036493070E-1,-1.870007905E-1,1.766531557E-1,2.773424091E-1
9.551593167E0,-3.136356940E-2,2.232311071E-1,1.272330737E-1,2.588514163E-1
9.561592167E0,8.788208895E-2,-1.357420150E-2,1.320038170E-1,1.591619559E-1
9.571591167E0,2.074848660E-1,-9.594862444E-2,8.857303798E-2,2.451556469E-1
9.581589167E0,4.224637063E-2,-4.303825722E-2,8.002148509E-2,1.002022230E-1
9.591588167E0,-4.172576744E-2,2.179056093E-1,5.771786571E-3,2.219396489E-1
9.601587167E0,1.344692498E-1,-6.253373302E-2,1.565358102E-2,1.491223709E-1
9.611586167E0,1.520755450E-1,-6.167071139E-2,2.015535235E-2,1.653374920E-1
9.621584167E0,-4.397288896E-4,1.377158340E-1,3.707134724E-3,1.377664224E-1
9.631583167E0,3.506502137E-5,7.577584008E-2,1.255221784E-2,7.680844577E-2
9.641582167E0,2.194233455E-2,-6.097361365E-2,8.980563104E-2,1.107442954E-1
9.651581167E0,7.150962017E-3,-9.130226243E-2,1.206473547E-1,1.514695467E-1
9.661579167E0,-5.420044572E-2,5.262183454E-2,1.237943262E-1,1.450233808E-1
9.671578167E0,-7.996456610E-2,4.387551455E-2,1.489426160E-1,1.746519266E-1
9.681577167E0,-8.124957397E-2,1.310657957E-2,2.263334388E-1,2.408321017E-1
9.691576167E0,-2.947465380E-2,-3.344306770E-2,3.321621948E-1,3.351401463E-1
9.701574167E0,-7.436342686E-3,-5.913869343E-2,4.261643726E-1,4.303123943E-1
9.711573167E0,-6.198706403E-2,5.494100472E-2,5.138813782E-1,5.205141506E-1
9.721572167E0,-8.491061619E-2,7.969223203E-2,6.008546180E-1,6.120350778E-1
9.731571167E0,-6.927719892E-2,6.525211271E-2,6.378359181E-1,6.448967568E-1
9.741569167E0,-3.503035834E-2,1.503023129E-2,6.605985439E-1,6.616974158E-1
9.751568167E0,-7.488273270E-4,-7.105223087E-2,7.165879726E-1,7.201022863E-1
9.761567167E0,5.485885134E-3,-6.027262386E-2,7.832035464E-1,7.855384645E-1
9.771566167E0,-6.720926715E-3,-3.936049562E-2,8.869395840E-1,8.878379611E-1
9.781564167E0,-1.776503800E-2,6.871565608E-3,1.035882785E0,1.036057893E0
9.791563167E0,1.499369533E-2,-9.019681890E-2,1.212812514E0,1.216254279E0
9.801562167E0,5.712209838E-2,-8.111618436E-2,1.334804143E0,1.338486037E0
9.811561167E0,8.621832769E-2,-1.575599501E-1,1.456040897E0,1.467076628E0
9.821559167E0,8.743546218E-2,-4.745466834E-2,1.515908784E0,1.519169624E0
9.831558167E0,5.546001820E-2,5.737169227E-2,1.518597334E0,1.520692338E0
9.841557167E0,5.112182273E-2,1.688652126E-2,1.536415554E0,1.537358563E0
9.851555167E0,1.393798237E-1,-5.904163878E-2,1.571604098E0,1.578876845E0
9.861554167E0,3.859036250E-2,4.735520172E-2,1.674606895E0,1.675720736E0
9.871553167E0,2.719415747E-2,-2.843800642E-2,1.933737951E0,1.934138233E0
9.881552167E0,7.907140391E-2,5.885265495E-2,2.158152333E0,2.160402142E0
9.891550167E0,-5.439376929E-2,1.182593884E-2,2.500969325E0,2.501588715E0
9.901549167E0,2.157436196E-2,-4.568646119E-2,2.703077749E0,2.703549893E0
9.911548167E0,-2.229533278E-2,-2.486330199E-2,2.859231736E0,2.859426758E0
9.921547167E0,-5.289051410E-2,-2.236322444E-2,2.939940269E0,2.940501030E0
9.931545167E0,-4.158442928E-2,-9.130916032E-2,3.030069251E0,3.031729918E0
9.941544167E0,-7.464160815E-2,-2.209088123E-2,3.067653399E0,3.068640864E0
9.951543167E0,-1.095919510E-1,4.535707109E-2,3.066464660E0,3.068757594E0
9.961542167E0,-6.430012205E-2,-9.301872172E-2,3.000301076E0,3.002431271E0
9.971540167E0,-6.888382749E-2,-2.967030711E-2,2.883688885E0,2.884664087E0
9.981539167E0,-9.853102896E-2,9.068112368E-2,2.802257051E0,2.805454689E0
9.991538167E0,-4.597046228E-2,-3.764315925E-2,2.747012558E0,2.747655052E0
1.000153717E1,-2.855099472E-2,-4.764903344E-2,2.652099384E0,2.652681046E0
1.001153517E1,-6.948501262E-2,8.272125419E-2,2.606884035E0,2.609121566E0
1.002153417E1,-3.346651138E-2,-1.133714816E-2,2.625739551E0,2.625977290E0
1.003153317E1,2.184559054E-2,-5.848262670E-2,2.529925321E0,2.530695473E0
1.004153217E1,1.763350306E-2,-4.911386146E-2,2.440245405E0,2.440803300E0
1.005153017E1,1.881661406E-3,-3.387601747E-2,2.374661281E0,2.374903645E0
1.006152917E1,-2.366704389E-2,8.181799642E-2,2.233346357E0,2.234969858E0
1.007152817E1,6.364384518E-2,-2.498232024E-2,2.002065005E0,2.003232123E0
1.008152717E1,6.933013449E-2,-6.401813094E-2,1.798335148E0,1.800809343E0
1.009152517E1,9.891542858E-2,-2.708432117E-2,1.544906296E0,1.548306587E0
1.010152417E1,5.371386602E-2,1.205890470E-2,1.366335838E0,1.367444412E0
1.011152317E1,3.840763701E-2,6.897119768E-3,1.240899029E0,1.241512432E0
1.012152217E1,5.335640928E-2,-2.958773347E-2,1.129848710E0,1.131494784E0
1.013152017E1,5.253149506E-2,-4.603310058E-2,1.050369846E0,1.052689612E0
1.014151917E1,3.903296932E-2,-8.971087874E-2,9.854113734E-1,9.902561231E-1
1.015151817E1,1.892314302E-2,-6.700713621E-2,8.906560743E-1,8.933735413E-1
1.016151717E1,-5.308294231E-3,-8.966339752E-5,7.514408863E-1,7.514596407E-1
1.017151517E1,1.044742120E-2,-6.313677281E-2,6.818297839E-1,6.848264415E-1
1.018151417E1,-1.654047573E-2,-1.113597653E-2,6.463395238E-1,6.466470268E-1
1.019151317E1,-8.162630824E-3,-2.648292591E-2,5.774698484E-1,5.781344132E-1
1.020151217E1,8.872144762E-4,-2.385481261E-3,4.568160617E-1,4.568231517E-1
1.021151017E1,-3.428001439E-2,9.001300620E-2,2.655056906E-1,2.824371300E-1
1.022150917E1,-7.448621839E-3,-7.514128927E-4,1.956770718E-2,2.095093680E-2
1.023150817E1,-2.709764186E-2,8.756668649E-2,-1.964301932E-1,2.167649131E-1
1.024150717E1,-4.118511013E-2,-5.735392221E-2,-2.450813663E-1,2.550501162E-1
1.025150517E1,1.927224007E-2,-4.675875831E-2,-3.435771292E-1,3.472794904E-1
1.026150417E1,-8.312574447E-2,7.813719244E-2,-4.197675186E-1,4.349943447E-1
1.027150317E1,-7.135584754E-2,1.293326809E-1,-5.211061978E-1,5.416366575E-1
1.028150217E1,2.887062728E-2,-4.050701584E-2,-6.043348807E-1,6.063785777E-1
1.029150017E1,1.495971661E-1,-1.063570338E-1,-6.697640544E-1,6.944602360E-1
1.030149917E1,1.449395482E-1,-2.638284716E-2,-8.398086870E-1,8.526324870E-1
1.031149817E1,-1.688014414E-1,3.081957735E-1,-9.104401284E-1,9.758994769E-1
1.032149717E1,-1.967118463E-2,2.716569797E-2,-9.876607972E-1,9.882301256E-1
1.033149517E1,3.381660428E-1,-9.843949263E-2,-1.355880432E0,1.400877708E0
1.034149417E1,-7.301061871E-2,2.967824654E-2,-1.474274270E0,1.476379345E0
1.035149317E1,4.248309150E-2,-2.704557423E-2,-1.637115718E0,1.637890152E0
1.036149117E1,2.353784784E-2,2.377222069E-1,-1.905185997E0,1.920104049E0
1.037149017E1,2.376233524E-1,-2.275498789E-1,-2.095270792E0,2.120944010E0
1.038148917E1,2.096235400E-1,-3.003465260E-2,-2.284308350E0,2.294103038E0
1.039148817E1,-1.638450856E-1,4.515641109E-2,-2.299124610E0,2.305397641E0
1.040148617E1,3.054497383E-1,-2.207537698E-2,-2.589804903E0,2.607848979E0
1.041148517E1,-8.750390201E-2,1.545239661E-1,-2.828094143E0,2.833663895E0
1.042148417E1,1.411855170E-1,-1.535978767E-1,-3.067732921E0,3.074818846E0
1.043148317E1,1.143248883E-1,1.763812602E-2,-3.398832677E0,3.400800619E0
1.044148117E1,-2.108323239E-3,2.266209025E-1,-3.847281958E0,3.853951212E0
1.045148017E1,1.345652081E-1,-1.200110863E-1,-4.264902379E0,4.268712072E0
1.046147917E1,4.963569805E-2,7.030230719E-2,-4.751687175E0,4.752466426E0
1.047147817E1,-6.470051014E-2,2.346694852E-1,-5.222756410E0,5.228426191E0
1.048147617E1,9.243491379E-2,-1.385685317E-1,-5.614507579E0,5.616977907E0
1.049147517E1,3.726721069E-2,1.142819935E-1,-6.050421014E0,6.051614964E0
1.050147417E1,-5.712442813E-2,2.273442031E-1,-6.330209114E0,6.334547814E0
1.051147317E1,4.332911965E-2,-4.361364151E-2,-6.366613879E0,6.366910698E0
1.052147117E1,1.011275764E-1,3.718634552E-2,-6.455413204E0,6.456312356E0
1.053147017E1,7.954224181E-2,2.627518347E-1,-6.502287993E0,6.508080718E0
1.054146917E1,2.032574022E-1,-3.486345688E-2,-6.387793663E0,6.391121726E0
1.055146817E1,1.147277158E-1,5.739531867E-2,-6.149811986E0,6.151149822E0
1.056146617E1,1.132038583E-1,8.370174089E-2,-5.766329364E0,5.768047801E0
1.057146517E1,1.106542987E-1,1.138120053E-1,-5.331201795E0,5.333564486E0
1.058146417E1,8.056430770E-2,1.355244986E-1,-4.995165820E0,4.997653356E0
1.059146317E1,1.101315485E-1,1.207155844E-2,-4.772300364E0,4.773586225E0
1.060146117E1,9.706934382E-2,3.680694345E-2,-4.582517286E0,4.583693040E0
1.061146017E1,4.874958906E-2,1.297963651E-1,-4.304561119E0,4.306793476E0
1.062145917E1,1.128855597E-1,-2.590618031E-2,-3.956698565E0,3.958393338E0
1.063145817E1,6.351839500E-2,3.940210221E-3,-3.718257882E0,3.718802467E0
1.064145617E1,-3.083638810E-2,6.642126348E-2,-3.632347081E0,3.633085188E0
1.065145517E1,2.467306648E-2,-9.755159293E-2,-3.505129210E0,3.506573235E0
1.066145417E1,9.399505142E-2,-5.367003931E-2,-3.265643629E0,3.267436894E0
1.067145317E1,1.423793083E-1,1.380522591E-1,-2.960734722E0,2.967369271E0
1.068145117E1,2.205177615E-1,-4.232242098E-3,-2.735611072E0,2.744487918E0
1.069145017E1,1.983952231E-1,-9.604894987E-2,-2.612868660E0,2.622149633E0
1.070144917E1,1.283863730E-1,5.861105531E-2,-2.506889631E0,2.510859203E0
1.071144817E1,1.447047185E-1,-6.356937541E-2,-2.200777366E0,2.206445453E0
1.072144617E1,1.030509449E-1,-1.446939925E-1,-1.790344927E0,1.799136128E0
1.073144517E1,2.141377366E-2,2.502255639E-2,-1.592920123E0,1.593260555E0
1.074144417E1,-1.158634370E-1,3.622257820E-2,-1.482462711E0,1.487424654E0
1.075144317E1,-2.609976518E-1,1.312533542E-1,-1.371717616E0,1.402482240E0
1.076144117E1,-8.110225154E-2,-4.166483763E-2,-1.130887760E0,1.134557473E0
1.077144017E1,-1.511760240E-1,1.707960363E-1,-8.524918824E-1,8.824782637E-1
1.078143917E1,-5.288811126E-2,3.317798783E-2,-5.668974978E-1,5.703250864E-1
1.079143817E1,5.019006891E-2,9.572396345E-2,-3.767969155E-1,3.919923925E-1
1.080143617E1,-2.020137177E-2,1.144945307E-1,-2.793366945E-1,3.025658306E-1
1.081143517E1,1.113140656E-1,4.860580238E-3,-2.342628479E-1,2.594099619E-1
1.082143417E1,1.716877002E-1,1.399823975E-1,-7.871638656E-2,2.350914875E-1
1.083143317E1,1.529568026E-1,-6.330192011E-2,2.337254888E-1,2.864097077E-1
1.084143117E1,1.127525903E-1,-3.971300050E-2,4.731216073E-1,4.879900863E-1
1.085143017E1,-1.181206084E-1,7.594263190E-2,5.055034876E-1,5.246461068E-1
1.086142917E1,1.553745715E-1,-3.430019460E-1,3.733219153E-1,5.302460229E-1
1.087142817E1,-5.117388579E-2,6.575818009E-2,4.106014234E-1,4.189706836E-1
1.088142617E1,-4.343118554E-2,-2.230072319E-2,6.909736598E-1,6.926963177E-1
1.089142517E1,5.715444080E-2,-1.033729895E-1,6.126718408E-1,6.239546374E-1
1.090142417E1,-1.985625448E-1,5.247046474E-2,4.349737877E-1,4.810222758E-1
1.091142317E1,7.566612256E-3,-1.601214508E-1,4.865918380E-1,5.123160640E-1
1.092142217E1,1.896098547E-2,7.541665658E-2,4.704003131E-1,4.767846953E-1
1.093142017E1,-1.196736837E-1,1.948959934E-1,4.958456415E-1,5.460486599E-1
1.094141917E1,1.670813733E-1,-8.733973229E-2,6.027187103E-1,6.315174249E-1
1.095141817E1,3.079651739E-2,5.544868922E-3,7.420923579E-1,7.427518015E-1
1.096141717E1,2.145017623E-1,2.381725338E-2,5.359838533E-1,5.778035641E-1
1.097141517E1,8.815967638E-1,-1.535004292E-1,2.239278942E-1,9.224526750E-1
1.098141417E1,-3.373510506E-1,1.799060714E-1,3.055444998E-1,4.894173752E-1
1.099141317E1,-1.945980047E-1,-1.502039518E-1,5.835392582E-1,6.332042928E-1
1.100141217E1,-1.713650252E-1,-9.058924017E-2,7.966965812E-1,8.199376957E-1
1.101141017E1,-3.184093975E-1,2.631181262E-1,7.320550275E-1,8.405475929E-1
1.102140917E1,7.889069206E-1,-2.307917945E-1,7.120096028E-1,1.087472600E0
1.103140817E1,-3.601818330E-1,1.266958242E-2,9.726352072E-1,1.037261162E0
1.104140617E1,-2.561078994E-1,2.426046319E-3,9.284875596E-1,9.631647264E-1
1.105140517E1,2.380583852E-1,1.074596816E-1,9.105529797E-1,9.472729843E-1
1.106140417E1,-1.310355637E-1,-2.837263637E-2,9.815282375E-1,9.906427239E-1
1.107140317E1,-1.710473204E-2,-1.120902835E-1,8.862016654E-1,8.934260995E-1
1.108140217E1,-9.377900594E-2,1.915495954E-1,9.639105767E-1,9.872230494E-1
1.109140017E1,-8.258525161E-3,-2.813347794E-1,1.317784653E0,1.347506531E0
1.110139917E1,-1.394359204E-1,2.201618854E-1,1.400567193E0,1.424605943E0
1.111139817E1,-2.702099766E-2,-1.484937691E-1,1.441277263E0,1.449158612E0
1.112139717E1,4.013281231E-2,-1.345418009E-1,1.207592120E0,1.215726477E0
1.113139517E1,-5.491044388E-2,-1.582821360E-1,1.269662068E0,1.280667856E0
1.114139417E1,-1.025381441E-2,1.365760655E-2,1.467954599E0,1.468053942E0
1.115139317E1,3.289997100E-2,2.435993895E-1,1.723745726E0,1.741184194E0
1.116139217E1,-1.149487223E-1,-6.422492137E-2,2.005280389E0,2.009598837E0
1.117139017E1,2.200397151E-1,1.244389086E-1,1.837616158E0,1.854922009E0
1.118138917E1,3.160893319E-1,-9.258367061E-2,1.647955871E0,1.680548349E0
1.119138817E1,6.465584289E-2,2.022751613E-1,1.441400054E0,1.456959071E0
1.120138717E1,3.354215059E-2,4.892960108E-2,1.501896517E0,1.503067639E0
1.121138517E1,1.116727741E-2,1.215661624E-1,1.644572087E0,1.649096840E0
1.122138417E1,-2.621572643E-2,-7.230542623E-2,1.774218307E0,1.775884551E0
1.123138317E1,-2.522454115E-2,-1.736021882E-1,1.948007496E0,1.955890386E0
1.124138217E1,-6.233077982E-2,-1.162482203E-1,1.925536646E0,1.930049261E0
1.125138017E1,-1.270322858E-1,3.667085865E-2,1.643044209E0,1.648355613E0
1.126137917E1,6.453797582E-2,8.106137585E-2,1.293944970E0,1.298086932E0
1.127137817E1,3.730855416E-1,-1.881458763E-1,1.259038846E0,1.326563421E0
1.128137717E1,4.885960808E-3,-1.064337145E-1,1.313194588E0,1.317509786E0
1.129137517E1,-2.251144953E-1,-1.526784752E-2,1.409871283E0,1.427811849E0
1.130137417E1,-6.749497673E-2,4.413596781E-1,1.304041942E0,1.378361100E0
1.131137317E1,2.210159443E-1,-2.862093108E-1,1.391757193E0,1.437967977E0
1.132137217E1,-1.562903003E-1,1.522115202E-1,1.278004290E0,1.296491408E0
1.133137017E1,-3.586783494E-2,4.688668443E-2,1.173987002E0,1.175470265E0
1.134136917E1,5.341441548E-2,-3.083745156E-1,1.129990797E0,1.172530231E0
1.135136817E1,-1.257552539E-1,2.555813028E-1,1.000229972E0,1.039998165E0
1.136136717E1,-1.313048737E-1,4.830571231E-2,1.152482112E0,1.160943336E0
1.137136617E1,1.034863980E-2,-2.254372799E-1,1.245896645E0,1.266170411E0
1.138136417E1,6.471785079E-2,-3.126997741E-1,1.186012970E0,1.228249288E0
1.139136317E1,-6.580138553E-2,-2.755428200E-2,1.054872202E0,1.057281620E0
1.140136217E1,-1.182490644E-1,2.109162680E-1,9.490370142E-1,9.793568133E-1
1.141136117E1,3.302015869E-2,-1.785730889E-1,9.756658190E-1,9.924225257E-1
1.142135917E1,7.787014827E-2,-1.658709997E-1,9.889723277E-1,1.005804759E0
1.143135817E1,-5.859299289E-2,2.913884272E-1,9.510993272E-1,9.964588725E-1
1.144135717E1,1.244545865E-1,-1.466116326E-1,1.024746763E0,1.042636007E0
1.145135617E1,1.057270054E-1,-1.132183211E-1,9.283489805E-1,9.411845821E-1
1.146135429E1,9.688799791E-3,2.751117705E-1,7.012939954E-1,7.533880986E-1
1.147135329E1,3.417089073E-2,3.421561279E-2,6.373985463E-1,6.392302127E-1
1.148135229E1,8.155177452E-2,-1.102373740E-2,5.152765238E-1,5.218065836E-1
1.149135129E1,1.050284550E-1,-7.540935670E-2,4.174011505E-1,4.369682687E-1
1.150134929E1,7.923173639E-2,-5.568615926E-2,3.371831989E-1,3.508149456E-1
1.151134829E1,-1.037405692E-3,9.825092906E-2,2.678936934E-1,2.853442697E-1
1.152134729E1,3.428717723E-2,4.302582275E-3,2.423074472E-1,2.447591095E-1
1.153134629E1,2.485467735E-2,-1.187423319E-2,1.510060984E-1,1.534978637E-1
1.154134429E1,3.738606448E-2,-1.050946564E-2,6.853346050E-2,7.877183439E-2
1.155134329E1,4.674627816E-2,-5.148687171E-2,4.862778425E-2,8.485737376E-2
1.156134229E1,5.364884315E-3,3.134327774E-2,4.323840559E-2,5.367255128E-2
1.157134129E1,-7.783654505E-2,1.678074878E-1,6.824636221E-2,1.971685743E-1
1.158134029E1,-4.941686600E-2,1.259572478E-1,1.001440930E-1,1.683332834E-1
1.159133829E1,2.183010455E-2,-4.590475420E-2,1.229049647E-1,1.330016175E-1
1.160133729E1,2.036153980E-2,-1.230705779E-1,1.019491285E-1,1.611042652E-1
1.161133629E1,-6.040530997E-2,4.851102266E-2,6.362647712E-2,1.002519296E-1
1.162133529E1,-7.989044351E-2,1.001657643E-1,7.993786991E-2,1.510156493E-1
1.163133329E1,-3.317193962E-2,1.018277074E-2,9.878753901E-2,1.047045570E-1
1.164133229E1,1.357097640E-2,-9.224677049E-2,9.816714942E-2,1.353899084E-1
1.165133129E1,3.372136775E-2,-8.662998081E-2,1.211928999E-1,1.527403130E-1
1.166133029E1,5.510661797E-2,4.761329234E-2,1.301502496E-1,1.491403782E-1
1.167132829E1,9.095718535E-3,4.234828577E-2,1.449501371E-1,1.512833489E-1
1.168132729E1,1.111557066E-1,4.731814499E-2,1.099118668E-1,1.633254922E-1
1.169132629E1,2.942699899E-2,2.667642307E-2,9.508449733E-2,1.030467925E-1
1.170132529E1,1.183883012E-1,-7.125802545E-2,1.133383352E-1,1.787150645E-1
1.171132329E1,8.479826742E-2,5.473167440E-2,1.009153408E-1,1.427242388E-1
1.172132229E1,3.830441538E-2,7.388946435E-2,1.160385793E-1,1.427999758E-1
1.173132129E1,7.803592597E-2,-1.463531126E-1,1.959688479E-1,2.567345490E-1
1.174132029E1,9.045612465E-2,-1.586390354E-1,1.953578138E-1,2.674197627E-1
1.175131829E1,8.200836897E-2,1.199232410E-1,1.407179224E-1,2.022584733E-1
1.176131729E1,-2.642953352E-2,5.131024011E-2,2.586679566E-1,2.650290036E-1
1.177131629E1,1.005816201E-1,-1.458761351E-1,2.886004382E-1,3.386542810E-1
1.178131529E1,4.886453253E-2,3.691913690E-3,2.514770508E-1,2.562071034E-1
1.179131329E1,2.869061527E-2,7.877246501E-2,1.953496277E-1,2.125787612E-1
1.180131229E1,-4.208725328E-3,4.783579716E-2,2.017973524E-1,2.074322740E-1
1.181131129E1,2.878012335E-2,-3.992028429E-2,2.311480361E-1,2.363288793E-1
1.182131029E1,3.750002123E-3,-4.815157422E-2,2.796541983E-1,2.837941283E-1
1.183130929E1,-4.229535020E-2,3.233165818E-2,2.935799271E-1,2.983679044E-1
1.184130729E1,-5.984384023E-2,4.408253339E-2,3.339982206E-1,3.421686226E-1
1.185130629E1,-3.545753399E-2,-3.333433690E-2,4.034543717E-1,4.063789423E-1
1.186130529E1,-1.193259571E-2,-1.071791157E-1,4.655664200E-1,4.778931273E-1
1.187130429E1,-3.750024964E-2,2.064905835E-2,5.028283864E-1,5.046474398E-1
1.188130229E1,-6.213836988E-2,8.617343204E-2,5.444360036E-1,5.547049661E-1
1.189130129E1,-5.227894102E-2,4.226517309E-2,5.670360768E-1,5.710073072E-1
1.190130029E1,-1.587305261E-2,2.715529175E-2,5.927837062E-1,5.936176261E-1
1.191129929E1,7.953739045E-3,-2.045958116E-2,6.668819618E-1,6.672431397E-1
1.192129729E1,-7.129400410E-4,3.934312756E-2,7.480237734E-1,7.490580455E-1
1.193129629E1,2.230968587E-3,6.095689427E-2,8.486303812E-1,8.508197483E-1
1.194129529E1,1.388392121E-2,-2.603164877E-2,1.012253017E0,1.012682863E0
1.195129429E1,4.453711786E-2,-1.167431140E-1,1.147279844E0,1.154063928E0
1.196129229E1,-1.984363181E-2,2.838740059E-2,1.220185268E0,1.220676739E0
1.197129129E1,3.882953189E-3,2.401057695E-2,1.329165089E0,1.329387610E0
1.198129029E1,2.195023743E-2,-8.163316045E-2,1.533645144E0,1.535973051E0
1.199128929E1,7.198640579E-2,-1.140622753E-1,1.684083477E0,1.689476074E0
1.200128829E1,1.286387444E-3,-1.266835816E-4,1.822247921E0,1.822248379E0
1.201128629E1,4.338402866E-2,2.448521554E-5,1.947546735E0,1.948029892E0
1.202128529E1,2.547244482E-2,2.693264075E-3,2.031533802E0,2.031695274E0
1.203128429E1,4.052316877E-2,-5.468037422E-2,2.131986628E0,2.133072679E0
1.204128329E1,4.321015622E-2,-7.332519891E-2,2.303243389E0,2.304815353E0
1.205128129E1,2.376480203E-2,-1.530546156E-2,2.509378790E0,2.509537993E0
1.206128029E1,-3.527841733E-2,5.410822417E-2,2.784672720E0,2.785421768E0
1.207127929E1,-1.339843785E-3,-6.793647805E-2,3.001883917E0,3.002652863E0
1.208127829E1,-2.770292005E-3,-6.308056645E-2,3.080030200E0,3.080677339E0
1.209127629E1,-3.177723250E-2,-2.999540317E-2,3.152637416E0,3.152940246E0
1.210127529E1,-1.334480792E-2,4.840977447E-2,3.208031598E0,3.208424586E0
1.211127429E1,-8.974306583E-3,-5.811307353E-2,3.317758108E0,3.318279152E0
1.212127329E1,-2.319881896E-2,-5.609041200E-2,3.378835784E0,3.379380946E0
1.213127229E1,-4.869859038E-2,2.293444259E-2,3.375544387E0,3.375973555E0
1.214127029E1,-5.233547629E-2,5.621366948E-4,3.347256727E0,3.347665890E0
1.215126929E1,-1.908904863E-2,1.090770671E-3,3.352047350E0,3.352101881E0
1.216126829E1,-2.565238374E-2,-2.730732850E-2,3.372849405E0,3.373057492E0
1.217126729E1,-3.338970272E-3,-4.117908019E-2,3.347394721E0,3.347649666E0
1.218126529E1,-7.262260113E-3,1.483034788E-2,3.234821786E0,3.234863934E0
1.219126429E1,-2.509275952E-2,9.532497321E-2,3.066120844E0,3.067704928E0
1.220126329E1,3.194565972E-2,-3.130127829E-2,3.004608720E0,3.004941573E0
1.221126229E1,-4.343384877E-4,-5.981800284E-2,2.945650075E0,2.946257414E0
1.222126029E1,1.877468769E-2,7.775826545E-2,2.762743907E0,2.763901723E0
1.223125929E1,6.016838810E-2,-1.014386026E-1,2.612162316E0,2.614823511E0
1.224125829E1,-2.052246613E-2,-5.196013986E-2,2.416825553E0,2.417471154E0
1.225125729E1,-2.820712362E-2,8.375143309E-2,2.141555012E0,2.143377665E0
1.226125529E1,6.780747386E-2,-1.739499148E-1,1.999206301E0,2.007904943E0
1.227125429E1,1.034600856E-2,-1.132313037E-1,1.855346085E0,1.858826905E0
1.228125329E1,-1.261977145E-2,2.147186209E-2,1.642177652E0,1.642366506E0
1.229125229E1,2.032480284E-2,-8.310088467E-2,1.421820068E0,1.424391505E0
1.230125129E1,-2.258742861E-2,6.811759556E-2,1.174519683E0,1.176710111E0
1.231124929E1,3.868730751E-2,-7.119662055E-2,9.983307964E-1,1.001613721E0
1.232124829E1,3.717393846E-2,-5.062884763E-3,7.715453678E-1,7.724569821E-1
1.233124729E1,5.035667801E-3,1.162157865E-2,5.538927054E-1,5.540374971E-1
1.234124629E1,6.647352297E-3,5.183876446E-3,3.793480557E-1,3.794417047E-1
1.235124429E1,1.421410616E-2,7.806032896E-2,1.281721365E-1,1.507433327E-1
1.236124329E1,-3.683030491E-2,-2.849978590E-2,-9.541486502E-3,4.753681858E-2
1.237124229E1,-2.467868529E-2,3.367536661E-2,-1.231581491E-1,1.300422913E-1
1.238124129E1,1.752722078E-2,-1.004338500E-1,-2.842337376E-1,3.019651955E-1
1.239123929E1,-8.705855431E-3,-3.265723846E-2,-4.676117760E-1,4.688315904E-1
1.240123829E1,-8.183953062E-2,1.137822302E-1,-6.026415271E-1,6.187252337E-1
1.241123729E1,-5.090147406E-3,-2.636917016E-2,-7.210558301E-1,7.215557864E-1
1.242123629E1,-1.136477625E-2,6.092524622E-3,-8.122338027E-1,8.123361541E-1
1.243123429E1,-3.363153990E-3,6.510415074E-2,-8.638881058E-1,8.663443429E-1
1.244123329E1,5.767331723E-2,-8.622907195E-4,-9.754138041E-1,9.771177228E-1
1.245123229E1,2.439414516E-2,1.286519645E-1,-1.119861665E0,1.127491265E0
1.246123067E1,3.837590673E-2,2.576948337E-2,-1.164908615E0,1.165825397E0
1.247122967E1,1.252845348E-1,2.025959725E-2,-1.257548976E0,1.263936744E0
1.248122767E1,2.965991917E-2,4.623007866E-2,-1.366049325E0,1.367153133E0
1.249122667E1,1.104475631E-1,-1.181238883E-1,-1.464079065E0,1.472983172E0
1.250122567E1,-2.964514581E-2,5.382160096E-2,-1.607477351E0,1.608651309E0
1.251122467E1,3.129379568E-2,1.254272525E-1,-1.794123983E0,1.798775184E0
1.252122267E1,1.725249118E-1,-1.156123356E-1,-1.915955983E0,1.927178868E0
1.253122167E1,6.604839385E-2,-1.002670856E-1,-2.007116414E0,2.010704399E0
1.254122067E1,-4.283391531E-2,1.799499620E-1,-2.072818068E0,2.081055376E0
1.255121967E1,2.201932411E-1,-2.794992836E-2,-2.152583445E0,2.163996708E0
1.256121767E1,7.745221853E-2,3.593585450E-2,-2.253308167E0,2.254925260E0
1.257121667E1,-9.944578931E-3,1.023364335E-1,-2.378722757E0,2.380943845E0
1.258121567E1,2.461949320E-1,-2.030443991E-1,-2.492605467E0,2.512950654E0
1.259121467E1,-7.447563859E-2,2.857484588E-1,-2.751689161E0,2.767488400E0
1.260121367E1,7.885887589E-2,-7.007142439E-2,-2.994618752E0,2.996476297E0
1.261121167E1,1.774795134E-1,-2.520606760E-1,-3.213463077E0,3.228215995E0
1.262121067E1,-8.699661037E-2,4.169287320E-1,-3.577653396E0,3.602915735E0
1.263120967E1,1.252211382E-2,-4.121645669E-2,-3.737084162E0,3.737332422E0
1.264120867E1,2.137943406E-1,-1.429551037E-1,-4.063575143E0,4.071705677E0
1.265120667E1,-7.862919909E-2,4.042836531E-1,-4.511153773E0,4.529915693E0
1.266120567E1,1.382097958E-1,2.531935740E-3,-4.903497266E0,4.905445320E0
1.267120467E1,2.405850402E-1,-7.847535336E-2,-5.318743717E0,5.324760490E0
1.268120367E1,3.270055354E-4,2.678583909E-1,-5.677993723E0,5.684308308E0
1.269120167E1,1.035744261E-1,1.312819416E-1,-5.885158235E0,5.887533444E0
1.270120067E1,1.553699120E-1,-8.350525618E-2,-5.972129720E0,5.974733997E0
1.271119967E1,8.680656672E-2,3.262371381E-1,-6.145458734E0,6.154724129E0
1.272119867E1,3.129794355E-2,3.896538829E-2,-6.021070331E0,6.021277754E0
1.273119667E1,1.761287335E-2,2.746729553E-4,-5.942049889E0,5.942075998E0
1.274119567E1,2.574385612E-2,2.094303626E-1,-5.943117591E0,5.946862241E0
1.275119467E1,1.435326076E-1,-5.534511128E-2,-5.774147092E0,5.776195922E0
1.276119367E1,1.720951780E-1,-9.643061774E-2,-5.562374974E0,5.565871986E0
1.277119267E1,-1.821108920E-2,1.763313213E-1,-5.344167411E0,5.347106666E0
1.278119067E1,-3.110443725E-2,9.007508718E-2,-5.058753705E0,5.059651179E0
1.279118967E1,1.179213828E-1,-3.973987028E-3,-4.734719140E0,4.736189035E0
1.280118867E1,1.192007718E-1,1.826743443E-1,-4.350799146E0,4.356263531E0
1.281118767E1,1.296715362E-1,-3.363386965E-2,-3.924812529E0,3.927098080E0
1.282118567E1,1.544612364E-1,1.995682111E-3,-3.633985471E0,3.637267197E0
1.283118467E1,2.128674107E-1,1.182669989E-1,-3.353622006E0,3.362451512E0
1.284118367E1,1.573719255E-1,-1.394306397E-1,-2.908148373E0,2.915738977E0
1.285118267E1,5.723064189E-2,5.208343389E-3,-2.585418321E0,2.586056916E0
1.286118067E1,-4.790498617E-2,4.322509403E-2,-2.246828867E0,2.247755159E0
1.287117967E1,8.219928970E-2,-1.330863924E-1,-1.992664436E0,1.998794703E0
1.288117867E1,9.994338736E-2,-1.814078556E-2,-1.806607203E0,1.809460515E0
1.289117767E1,-4.167888008E-2,7.488854337E-2,-1.540485801E0,1.542868085E0
1.290117667E1,4.021752841E-2,-1.210280267E-1,-1.303543174E0,1.309767170E0
1.291117467E1,3.280263313E-2,-4.244791685E-2,-1.174374672E0,1.175599298E0
1.292117367E1,-1.802333419E-2,5.698705511E-3,-9.639392281E-1,9.641245517E-1
1.293117267E1,-4.338258970E-2,7.915952328E-2,-8.543787789E-1,8.591340856E-1
1.294117167E1,-1.224542723E-1,2.012461427E-1,-7.039498007E-1,7.423209418E-1
1.295116967E1,-1.136917993E-2,-1.054654978E-2,-5.045679331E-1,5.048061876E-1
1.296116867E1,-7.763809604E-3,7.127225063E-2,-4.800137204E-1,4.853382143E-1
1.297116767E1,3.970801666E-2,7.375531644E-3,-5.678646272E-1,5.692990075E-1
1.298116667E1,2.158422913E-2,5.218240715E-2,-6.367044818E-1,6.392037858E-1
1.299116467E1,-7.752744662E-2,2.052014735E-1,-6.763445109E-1,7.110274588E-1
1.300116367E1,1.325445108E-1,-9.278323425E-2,-6.619340479E-1,6.814201785E-1
1.301116267E1,1.250593530E-1,-1.091357768E-1,-5.692644507E-1,5.929692019E-1
1.302116167E1,-1.961945961E-2,3.610481163E-2,-4.833138889E-1,4.850575181E-1
1.303116067E1,6.709219950E-2,-1.659646282E-2,-3.171401131E-1,3.245838215E-1
1.304115867E1,-1.103065812E-1,4.412425876E-2,1.105392730E-1,1.622757621E-1
1.305115767E1,-6.973582163E-2,-1.785748066E-1,4.789138591E-1,5.158590222E-1
1.306115667E1,3.276764668E-1,-1.869553101E-2,2.268415618E-1,3.989717834E-1
1.307115567E1,-4.978626385E-2,1.544413376E-1,1.072437823E-1,1.945045698E-1
1.308115367E1,-1.679140351E-2,-6.899336228E-2,1.825483185E-1,1.958722131E-1
1.309115267E1,6.773599165E-2,-5.441508422E-2,2.325572151E-1,2.482579792E-1
1.310115167E1,8.873927250E-2,1.187735231E-1,2.110277671E-1,2.579041038E-1
1.311115067E1,9.203362120E-3,5.070241291E-2,3.478713244E-1,3.516673071E-1
1.312114867E1,-3.610564303E-3,1.138156872E-2,4.775409329E-1,4.776901913E-1
1.313114767E1,1.462466293E-2,1.886059608E-2,4.798178387E-1,4.804110335E-1
1.314114667E1,5.430949629E-2,-1.551114650E-1,5.382174897E-1,5.627496372E-1
1.315114567E1,-3.412562963E-3,-5.989081895E-2,6.704054940E-1,6.730840082E-1
1.316114367E1,-1.259301131E-2,-2.559115243E-2,8.190469784E-1,8.195434362E-1
1.317114267E1,2.153355936E-2,-1.274561084E-1,1.042813489E0,1.050794332E0
1.318114167E1,1.660131418E-2,-6.555295195E-2,1.243068346E0,1.244906304E0
1.319114067E1,-3.804514619E-2,5.892830330E-2,1.204119458E0,1.206160706E0
1.320113967E1,5.287816186E-2,7.117367023E-2,1.139723487E0,1.143167275E0
1.321113767E1,5.467344892E-2,2.108621995E-2,1.155870574E0,1.157355001E0
1.322113667E1,3.093801088E-2,1.689481152E-1,1.165149520E0,1.177741071E0
1.323113567E1,1.214427314E-1,8.060964189E-2,1.193148327E0,1.202018795E0
1.324113467E1,3.963672174E-3,4.845224901E-2,1.182386527E0,1.183385495E0
1.325113267E1,-1.600085995E-2,9.602120301E-2,1.066548507E0,1.070981707E0
1.326113167E1,6.322186807E-2,-7.731701994E-2,1.053837245E0,1.058559335E0
1.327113067E1,-9.324498156E-2,9.222850707E-2,1.062532055E0,1.070595671E0
1.328112967E1,-7.479115069E-2,4.507455007E-2,1.192615646E0,1.195808308E0
1.329112767E1,5.792277407E-2,-7.121077264E-2,1.250096115E0,1.253461734E0
1.330112667E1,1.753146915E-2,-1.345177908E-1,1.133479831E0,1.141568620E0
1.331112567E1,-4.700814206E-2,4.218671076E-2,1.030784597E0,1.032717953E0
1.332112467E1,-2.793975055E-2,1.596824162E-1,1.059673351E0,1.072001266E0
1.333112367E1,1.131009565E-2,-3.425041286E-2,1.178825573E0,1.179377268E0
1.334112167E1,2.180537266E-2,-2.894690604E-2,1.257258369E0,1.257780587E0
1.335112067E1,7.778124318E-2,-1.829373776E-1,1.387772316E0,1.401937233E0
1.336111967E1,-2.848313961E-2,-2.313546804E-2,1.459604775E0,1.460065971E0
1.337111867E1,-2.483730015E-2,1.545135690E-1,1.456889913E0,1.465271154E0
1.338111667E1,3.469705791E-2,-1.209958670E-1,1.564639480E0,1.569694425E0
1.339111567E1,7.035486817E-2,-1.858962149E-1,1.665950677E0,1.677766035E0
1.340111467E1,-3.474777337E-2,2.031680677E-1,1.731942937E0,1.744164846E0
1.341111367E1,7.925465930E-2,-5.804213949E-2,1.877425171E0,1.879993475E0
1.342111167E1,1.546485117E-1,-2.343014761E-1,1.826068491E0,1.847522525E0
1.343111067E1,-1.214826660E-2,2.026461854E-1,1.505140552E0,1.518769613E0
1.344110967E1,-7.363151992E-3,8.545597868E-2,1.376716400E0,1.379385728E0
1.345110867E1,2.002600829E-1,-4.778196258E-1,1.439286870E0,1.529693561E0
1.346110758E1,-1.163463530E-1,2.087576587E-1,1.351421930E0,1.372391150E0
1.347110558E1,-1.228446835E-1,1.725465465E-1,1.373734320E0,1.389967305E0
1.348110458E1,7.708673101E-2,-2.288515056E-1,1.363552564E0,1.384771089E0
1.349110358E1,7.943479009E-2,-1.819143707E-1,1.267890362E0,1.283334989E0
1.350110258E1,-9.373690599E-2,1.098521886E-2,1.150070136E0,1.153936133E0
1.351110058E1,-7.631284745E-2,1.725276527E-1,1.024323424E0,1.041550728E0
1.352109958E1,7.565922467E-3,9.527763817E-4,1.006655477E0,1.006684360E0
1.353109858E1,-2.324234874E-2,1.772983594E-2,9.892880774E-1,9.897198866E-1
1.354109758E1,-3.701127166E-2,5.638773378E-2,9.202856702E-1,9.227540980E-1
1.355109558E1,1.234941996E-2,5.283482851E-2,8.008434266E-1,8.026794012E-1
1.356109458E1,-9.619729556E-3,4.608618233E-2,8.246603054E-1,8.260030839E-1
1.357109358E1,-6.697766259E-2,9.411913116E-2,9.537101090E-1,9.606806910E-1
1.358109258E1,-2.722584207E-2,7.182660322E-2,9.663067657E-1,9.693549777E-1
1.359109058E1,3.656120508E-2,-3.006218020E-3,8.360980439E-1,8.369024424E-1
1.360108958E1,8.014181896E-2,-2.890590427E-1,7.236835688E-1,7.833873557E-1
1.361108858E1,-5.276201240E-2,7.432413175E-2,6.004932600E-1,6.073714365E-1
1.362108758E1,-5.291012968E-2,1.905259489E-1,5.976626229E-1,6.295238120E-1
1.363108658E1,7.429553521E-2,-2.471991913E-1,7.901611483E-1,8.312532147E-1
1.364108458E1,5.421511858E-2,-7.930855419E-2,8.106673336E-1,8.163397893E-1
1.365108358E1,1.979721953E-2,1.833864072E-1,6.672778183E-1,6.923020952E-1
1.366108258E1,5.314413708E-2,3.670145603E-2,6.048792565E-1,6.083175249E-1
1.367108158E1,9.344904939E-2,-2.757280122E-2,5.709314919E-1,5.791854216E-1
1.368107958E1,1.332094489E-1,-8.867810514E-2,5.634751225E-1,5.857582925E-1
1.369107858E1,7.798553942E-2,-9.701874713E-2,5.305652386E-1,5.449714250E-1
1.370107758E1,9.661779259E-2,1.763549477E-2,4.870262861E-1,4.968305666E-1
1.371107658E1,-6.740328507E-2,6.200687148E-2,5.195221871E-1,5.275332765E-1
1.372107458E1,-5.974238190E-2,1.171857848E-2,4.993159640E-1,5.030138260E-1
1.373107358E1,1.732229963E-1,-1.972526589E-1,4.334429866E-1,5.067421835E-1
1.374107258E1,2.118989474E-1,-2.599890619E-1,4.153113556E-1,5.338342423E-1
1.375107158E1,-1.430522040E-1,3.157304956E-1,2.942038250E-1,4.546488420E-1
1.376107058E1,-2.221772927E-2,2.009347419E-1,2.645642889E-1,3.329604495E-1
1.377106858E1,1.537162098E-1,5.444762763E-4,2.692110711E-1,3.100057587E-1
1.378106758E1,8.366025307E-2,-1.504311618E-1,3.549844623E-1,3.945155774E-1
1.379106658E1,-3.941330329E-2,8.363448878E-2,3.504984784E-1,3.624876819E-1
1.380106558E1,2.889748793E-3,1.425901918E-1,3.088984627E-1,3.402331166E-1
1.381106358E1,-6.329862191E-2,7.254961143E-2,3.192375094E-1,3.334407729E-1
1.382106258E1,1.049169559E-2,-9.751867494E-2,2.855557930E-1,3.019305857E-1
1.383106158E1,-5.715081370E-2,4.599352224E-2,2.205827022E-1,2.324614981E-1
1.384106058E1,-3.960743998E-2,8.292031534E-2,1.913834614E-1,2.123020426E-1
1.385105858E1,-1.464004842E-2,7.054939773E-3,2.298423529E-1,2.304161678E-1
1.386105758E1,4.748248830E-2,-6.078418214E-2,2.332705754E-1,2.456918087E-1
1.387105658E1,4.631890152E-3,-1.047749782E-2,2.178362650E-1,2.181372749E-1
1.388105558E1,-2.100074097E-2,1.769804536E-1,1.610978079E-1,2.402407455E-1
1.389105458E1,1.382821734E-2,8.143133101E-2,1.651382339E-1,1.846426754E-1
1.390105258E1,5.621579823E-2,-6.575489103E-2,1.985153103E-1,2.165461846E-1
1.391105158E1,6.924894956E-2,-8.763085054E-2,2.387722206E-1,2.636034073E-1
1.392105058E1,2.627604411E-2,3.003687272E-2,2.417589784E-1,2.450307079E-1
1.393104958E1,1.036442729E-2,8.412194557E-2,2.380120826E-1,2.526532694E-1
1.394104758E1,5.367093466E-2,-3.749282185E-2,2.818656152E-1,2.893691517E-1
1.395104658E1,8.603085134E-2,-1.279188882E-1,3.535536486E-1,3.857003134E-1
1.396104558E1,5.810035584E-2,-4.888018297E-2,4.083251023E-1,4.153243465E-1
1.397104458E1,3.314596519E-2,7.950099153E-2,4.123602659E-1,4.212600759E-1
1.398104258E1,3.794949853E-2,1.174556703E-2,4.960333371E-1,4.976215372E-1
1.399104158E1,1.029397930E-1,-1.619203649E-1,6.298480368E-1,6.584249046E-1
1.400104058E1,3.233495638E-2,6.308506150E-3,6.895714974E-1,6.903580207E-1
1.401103958E1,1.273192836E-2,5.797656845E-2,7.543890524E-1,7.567207060E-1
1.402103858E1,3.384182040E-2,-1.495744350E-1,9.926894027E-1,1.004465047E0
1.403103658E1,3.746507498E-2,-7.748332755E-2,1.198506131E0,1.201592379E0
1.404103558E1,-2.861920615E-2,1.042189719E-1,1.355383419E0,1.359685576E0
1.405103458E1,-5.419259766E-2,-4.924139472E-2,1.636801722E0,1.638438717E0
1.406103358E1,6.425153534E-2,-9.109718962E-2,1.870769286E0,1.874087692E0
1.407103158E1,-4.215511752E-2,2.400304866E-2,2.041569963E0,2.042146203E0
1.408103058E1,-6.948089216E-2,6.708611931E-2,2.206090731E0,2.208203898E0
1.409102958E1,-8.860014531E-2,9.406114323E-2,2.373310574E0,2.376825733E0
1.410102858E1,-2.391953398E-2,-2.132234696E-2,2.540985330E0,2.541187367E0
1.411102658E1,-1.605389602E-2,-1.921928622E-2,2.644291597E0,2.644410172E0
1.412102558E1,-5.462767619E-2,-7.737885425E-3,2.790260319E0,2.790805745E0
1.413102458E1,-3.585364630E-2,7.596145263E-3,2.974255239E0,2.974481032E0
1.414102358E1,-6.694942237E-2,-5.229311138E-3,3.178454043E0,3.179163360E0
1.415102258E1,-6.204021888E-2,-3.075503871E-2,3.365882447E0,3.366594646E0
1.416102058E1,-8.423453188E-3,-5.809770632E-2,3.481011200E0,3.481506179E0
1.417101958E1,-1.306987002E-2,-6.387890325E-2,3.497640681E0,3.498248372E0
1.418101858E1,-5.744396020E-3,-2.721518003E-2,3.412029843E0,3.412143214E0
1.419101758E1,2.123756234E-2,-6.194748569E-2,3.331803705E0,3.332447217E0
1.420101558E1,2.605913982E-2,-5.832789475E-2,3.194242694E0,3.194881471E0
1.421101458E1,3.771778434E-2,-1.293193968E-2,3.070456554E0,3.070715441E0
1.422101358E1,-4.552632971E-3,7.419895565E-2,2.996222059E0,2.997144113E0
1.423101258E1,4.242127547E-2,-8.804513491E-2,3.001468765E0,3.003059483E0
1.424101058E1,6.572955614E-2,-7.144209397E-2,2.997435941E0,2.999007597E0
1.425100958E1,-4.101712145E-2,1.641637406E-1,2.928134741E0,2.933019808E0
1.426100858E1,5.188702226E-2,-2.163231335E-2,2.938919345E0,2.939456946E0
1.427100758E1,1.138956022E-1,-1.662067029E-1,2.915563227E0,2.922517033E0
1.428100558E1,-3.082723355E-2,1.316070560E-1,2.750755361E0,2.754074398E0
1.429100458E1,-2.590724012E-2,1.738848645E-1,2.568733876E0,2.574742872E0
1.430100358E1,1.327755946E-1,-2.529225921E-1,2.551657668E0,2.567597330E0
1.431100258E1,-2.322797282E-3,-5.723232754E-2,2.331608816E0,2.332312288E0
1.432100158E1,-4.743555525E-2,1.862305660E-1,2.022494591E0,2.031604373E0
1.433099958E1,1.205296612E-2,-9.906281495E-2,1.853335812E0,1.856020568E0
1.434099858E1,-3.287222413E-3,-1.208168783E-1,1.603035806E0,1.607585556E0
1.435099758E1,-4.205411601E-2,6.171557050E-2,1.350340195E0,1.352403787E0
1.436099658E1,-1.443706781E-2,6.772066098E-2,1.199880227E0,1.201876481E0
1.437099458E1,-1.923103547E-3,-2.243530051E-2,1.029363724E0,1.029609983E0
1.438099358E1,2.537380960E-3,1.080213706E-2,8.208373958E-1,8.209123917E-1
1.439099258E1,3.061593893E-2,-3.002759026E-2,6.941884589E-1,6.955117601E-1
1.440099158E1,-7.891932148E-3,9.000256344E-2,5.718898505E-1,5.789825085E-1
1.441099058E1,-4.993332133E-2,8.045247970E-2,3.784850067E-1,3.901497640E-1
1.442098858E1,3.794729669E-2,3.211813431E-2,9.467928529E-2,1.069380145E-1
1.443098758E1,2.290235600E-2,6.862073019E-3,-1.595038569E-1,1.612857288E-1
1.444098658E1,1.468900971E-2,-9.252529895E-2,-3.997653633E-1,4.105959616E-1
1.445098558E1,3.639948389E-2,2.724180314E-2,-6.367220235E-1,6.383431471E-1
1.446098346E1,7.813689094E-3,4.537876974E-2,-7.715862983E-1,7.729590560E-1
1.447098246E1,2.310133492E-2,3.028116756E-2,-8.911834931E-1,8.919969951E-1
1.448098146E1,9.893487057E-2,-4.313197712E-2,-1.010035753E0,1.015785754E0
1.449098046E1,8.420981825E-2,-2.536168576E-2,-1.091465832E0,1.095003274E0
1.450097846E1,6.819814095E-2,2.457515303E-2,-1.175739997E0,1.177972608E0
1.451097746E1,8.556140215E-2,3.876741436E-2,-1.322426757E0,1.325758724E0
1.452097646E1,6.554190620E-2,4.485765492E-2,-1.428095300E0,1.430302113E0
1.453097546E1,9.938063853E-2,-2.555643459E-2,-1.472231838E0,1.475803587E0
1.454097346E1,1.027953851E-1,-3.529933026E-2,-1.557982424E0,1.561768923E0
1.455097246E1,6.187968540E-2,3.734537152E-2,-1.674119237E0,1.675678666E0
1.456097146E1,6.680323284E-2,-1.362877247E-2,-1.745045378E0,1.746376760E0
1.457097046E1,2.569041805E-2,4.660903305E-2,-1.873755459E0,1.874511114E0
1.458096946E1,4.514703727E-2,-1.212666845E-3,-2.024326524E0,2.024830265E0
1.459096746E1,4.439518584E-2,1.061223960E-2,-2.162471672E0,2.162953371E0
1.460096646E1,3.629036022E-2,-1.747892643E-2,-2.260654024E0,2.261012852E0
1.461096546E1,3.978673937E-2,4.007586591E-2,-2.396262649E0,2.396927981E0
1.462096446E1,-4.439946162E-3,9.053905461E-2,-2.528276991E0,2.529901496E0
1.463096246E1,3.458749571E-2,5.390044701E-2,-2.686184558E0,2.686947903E0
1.464096146E1,6.542053993E-2,3.349476987E-3,-2.981513972E0,2.982233497E0
1.465096046E1,1.434639942E-2,7.837701964E-2,-3.355275598E0,3.356221553E0
1.466095946E1,3.771970295E-2,4.441149409E-2,-3.731446277E0,3.731901188E0
1.467095746E1,5.156495031E-2,1.103310116E-1,-4.094140878E0,4.095951831E0
1.468095646E1,-5.426914137E-2,1.800087814E-1,-4.370471519E0,4.374513641E0
1.469095546E1,8.807681037E-2,-7.224846155E-2,-4.597114860E0,4.598526112E0
1.470095446E1,1.032334603E-1,2.138255136E-1,-4.970148507E0,4.975816986E0
1.471095346E1,-1.633638963E-2,2.010661216E-1,-5.179419771E0,5.183346759E0
1.472095146E1,2.409356173E-1,-1.417618697E-1,-5.410699954E0,5.417916610E0
1.473095046E1,1.809522844E-1,1.367237991E-1,-5.768460674E0,5.772917432E0
1.474094946E1,-2.201843058E-2,2.766129701E-1,-5.955420132E0,5.961881289E0
1.475094846E1,1.204978670E-1,-1.038797512E-1,-6.039704238E0,6.041799237E0
1.476094646E1,2.666213759E-1,-2.785243518E-2,-6.219341227E0,6.225115904E0
1.477094546E1,4.871011122E-2,2.313696456E-1,-6.212761356E0,6.217258902E0
1.478094446E1,3.296195148E-2,1.698230231E-1,-6.110978288E0,6.113426370E0
1.479094346E1,2.116976387E-1,-6.617220864E-2,-6.049022360E0,6.053087325E0
1.480094146E1,1.873270286E-1,-1.661393869E-1,-5.925858364E0,5.931145847E0
1.481094046E1,5.500843956E-2,3.681007720E-2,-5.696873798E0,5.697258286E0
1.482093946E1,-3.035867971E-2,2.698613181E-1,-5.380913068E0,5.387761337E0
1.483093846E1,2.845961371E-1,-1.396326061E-2,-5.063751905E0,5.071762345E0
1.484093746E1,1.427638815E-1,2.036743269E-2,-4.739700383E0,4.741893723E0
1.485093546E1,4.173060967E-2,1.665406155E-1,-4.464592395E0,4.467892397E0
1.486093446E1,2.174517009E-1,-8.117306680E-2,-4.184839379E0,4.191271279E0
1.487093346E1,9.009851259E-2,4.391252560E-2,-3.870639830E0,3.871937338E0
1.488093246E1,1.585245031E-2,1.863461033E-1,-3.480853910E0,3.485874368E0
1.489093046E1,-4.661299819E-3,-2.405912346E-1,-3.032104667E0,3.041638470E0
1.490092946E1,-1.292697868E-2,8.912570950E-2,-2.705182747E0,2.706681398E0
1.491092846E1,4.758618501E-2,2.701100805E-1,-2.338138402E0,2.354169724E0
1.492092746E1,6.612606588E-2,-1.194919266E-1,-2.000740026E0,2.005395629E0
1.493092546E1,4.474238254E-2,8.180145063E-2,-1.945942844E0,1.948175277E0
1.494092446E1,2.106352179E-1,-4.498422886E-2,-1.721267676E0,1.734691093E0
1.495092346E1,1.070904391E-1,1.011285997E-2,-1.438665896E0,1.442681598E0
1.496092246E1,1.205900337E-1,2.837824604E-2,-1.231041793E0,1.237259543E0
1.497092146E1,-1.871948176E-2,-2.628931912E-2,-8.626660377E-1,8.632695059E-1
1.498091946E1,-5.637104181E-3,1.843814389E-2,-5.372655630E-1,5.376114092E-1
1.499091846E1,-4.688721890E-2,2.206581130E-2,-3.881814444E-1,3.916250057E-1
1.500091746E1,-1.022219011E-1,1.491953710E-1,-5.073482841E-1,5.386193992E-1
1.501091646E1,9.120077670E-2,-5.290218112E-2,-5.334122479E-1,5.437323318E-1
1.502091446E1,-1.721097778E-2,5.698968636E-2,-3.951109797E-1,3.995706801E-1
1.503091346E1,-5.730821343E-2,1.240312389E-1,-3.259623921E-1,3.534394723E-1
1.504091246E1,4.832566136E-2,6.027108897E-4,-4.496193087E-1,4.522093050E-1
1.505091146E1,-4.544390681E-2,9.481671313E-2,-6.172677523E-1,6.261587944E-1
1.506090946E1,3.841897513E-2,1.988309138E-2,-6.660651058E-1,6.674684113E-1
1.507090846E1,1.274906162E-1,2.380041523E-2,-5.512509334E-1,5.663019588E-1
1.508090746E1,2.541917120E-3,3.374242687E-2,-2.579931879E-1,2.602028011E-1
1.509090646E1,-7.147563323E-3,-3.841547593E-2,-6.563908875E-2,7.638930831E-2
1.510090546E1,2.306737538E-2,-4.267794997E-2,5.037844062E-2,6.993924863E-2
1.511090346E1,1.445077861E-1,-4.762929909E-2,2.586065608E-1,3.000473357E-1
1.512090246E1,2.801228892E-1,-6.478074490E-2,4.816597116E-1,5.609469277E-1
1.513090146E1,-1.098178728E-1,3.040770496E-2,5.786696970E-1,5.897823429E-1
1.514090046E1,-1.891695228E-1,-4.777700524E-2,6.054844433E-1,6.361439787E-1
1.515089846E1,3.072866777E-1,-1.170745141E-1,5.718255311E-1,6.596332179E-1
1.516089746E1,-4.739886397E-2,9.762319392E-3,7.453381473E-1,7.469075639E-1
1.517089646E1,-7.930405914E-2,9.494967333E-2,8.435614300E-1,8.525845767E-1
1.518089546E1,6.413114665E-2,-9.217811138E-2,9.856464314E-1,9.920224272E-1
1.519089346E1,1.775717167E-3,-4.331060956E-2,1.136561898E0,1.137388197E0
1.520089246E1,-5.060319297E-2,4.671631118E-2,1.155146104E0,1.157197311E0
1.521089146E1,-2.937158749E-2,-5.515902364E-2,1.127028598E0,1.128759792E0
1.522089046E1,-1.711683760E-2,-4.477823328E-2,1.192603952E0,1.193567033E0
1.523088946E1,-4.628426590E-2,-1.043183472E-1,1.261166064E0,1.266319229E0
1.524088746E1,-6.888263977E-2,5.681687373E-2,1.402614303E0,1.405453613E0
1.525088646E1,-5.079206717E-2,-2.772065355E-2,1.656026782E0,1.657037408E0
1.526088546E1,-3.710624781E-2,1.027972489E-2,1.851048381E0,1.851448799E0
1.527088446E1,8.439367664E-2,-1.433877977E-1,1.939192818E0,1.946317328E0
1.528088246E1,4.704962075E-3,1.606783433E-1,1.776166014E0,1.783425181E0
1.529088146E1,-7.735495375E-2,1.664349271E-1,1.530075418E0,1.541043529E0
1.530088046E1,5.691531708E-2,2.638506362E-1,1.444918324E0,1.469913424E0
1.531087946E1,2.035732615E-1,-9.600205338E-2,1.514090885E0,1.530728478E0
1.532087746E1,2.015109485E-1,-2.063732738E-2,1.590002947E0,1.602854308E0
1.533087646E1,6.760559874E-2,-1.482406212E-3,1.892095250E0,1.893303238E0
1.534087546E1,-5.788833945E-2,1.833405797E-1,2.065155877E0,2.074086214E0
1.535087446E1,-6.784411945E-2,1.135854714E-1,2.051552330E0,2.055814059E0
1.536087346E1,-2.220292850E-2,-3.119601013E-1,2.097940046E0,2.121123407E0
1.537087146E1,-6.162307486E-3,-1.137572242E-1,2.042375125E0,2.045550007E0
1.538087046E1,-5.529972226E-2,1.811081310E-1,2.002382509E0,2.011316466E0
1.539086946E1,-8.946525000E-2,1.093784728E-2,1.950843396E0,1.952924377E0
1.540086846E1,1.315157937E-1,-7.540072292E-2,1.811144643E0,1.817478085E0
1.541086646E1,3.016454302E-1,1.205276513E-2,1.627443253E0,1.655205962E0
1.542086546E1,2.103868391E-1,-1.126274234E-3,1.610505624E0,1.624189723E0
1.543086446E1,-1.741448463E-1,1.742270728E-1,1.621428223E0,1.640033836E0
1.544086346E1,-1.503167117E-1,2.400766979E-1,1.438518546E0,1.466140356E0
1.545086146E1,2.674367518E-1,-1.391974362E-1,1.191692955E0,1.229239782E0
1.546086046E1,8.855516743E-4,-1.790302864E-1,1.105782155E0,1.120181593E0
1.547085967E1,-3.883425535E-2,2.180478794E-2,9.984617740E-1,9.994545824E-1
1.548085867E1,-1.180046965E-1,1.409690238E-1,9.951838249E-1,1.012021847E0
1.549085767E1,-3.443317490E-2,-1.247838304E-1,1.016294612E0,1.024505435E0
1.550085567E1,3.410887370E-2,-3.174166133E-1,1.013734701E0,1.062814549E0
1.551085467E1,2.147453902E-3,-1.308368224E-1,1.048588200E0,1.056721391E0
1.552085367E1,-1.220520386E-1,1.785245205E-1,1.101114323E0,1.122149926E0
1.553085267E1,-1.288888042E-2,-1.014847225E-1,1.181329350E0,1.185750525E0
1.554085067E1,-6.992054796E-3,-4.749844937E-2,1.221281036E0,1.222224350E0
1.555084967E1,-2.545039899E-2,2.512628965E-2,1.257948341E0,1.258456627E0
1.556084867E1,-8.545248862E-4,-8.297290374E-3,1.242526309E0,1.242554307E0
1.557084767E1,2.536249889E-2,-3.231118379E-2,1.216488073E0,1.217181376E0
1.558084567E1,-2.048542768E-2,1.541141493E-1,1.216655889E0,1.226548970E0
1.559084467E1,2.692264566E-2,-1.037425244E-1,1.313218562E0,1.317585038E0
1.560084367E1,6.498513250E-3,-6.678187223E-3,1.270267255E0,1.270301432E0
1.561084267E1,2.529553914E-2,1.317950531E-2,1.222828209E0,1.223160821E0
1.562084067E1,3.888292428E-2,7.486813294E-2,1.099346125E0,1.102578351E0
1.563083967E1,4.652896274E-2,-9.581756459E-2,9.748103714E-1,9.806126709E-1
1.564083867E1,7.934478865E-2,-5.942895287E-2,7.481798941E-1,7.547188548E-1
1.565083767E1,7.337260704E-2,-4.120429630E-2,6.266332376E-1,6.322582921E-1
1.566083667E1,-3.220289153E-2,2.375356624E-1,5.495540714E-1,5.995580827E-1
1.567083467E1,5.590196720E-2,2.167161760E-2,5.778645355E-1,5.809665311E-1
1.568083367E1,3.738606448E-2,2.078439399E-2,5.642639118E-1,5.658829129E-1
1.569083267E1,8.947089622E-2,-4.322980835E-2,5.455721176E-1,5.545473768E-1
1.570083167E1,7.016850645E-3,4.766325862E-2,5.431923008E-1,5.453245805E-1
1.571082967E1,7.620000076E-3,5.613236577E-2,4.927641588E-1,4.960094990E-1
1.572082867E1,-2.936446119E-2,6.529203823E-2,4.571563697E-1,4.627280715E-1
1.573082767E1,-2.143221980E-2,4.259530323E-2,4.683993959E-1,4.708202354E-1
1.574082667E1,-8.679707414E-3,-4.130982941E-2,4.981956375E-1,4.999807321E-1
1.575082567E1,-1.266205413E-2,6.222152825E-2,4.616791910E-1,4.660252371E-1
1.576082367E1,6.019988084E-2,-7.997967750E-3,4.200739127E-1,4.244409091E-1
1.577082267E1,1.174727552E-2,-5.430491902E-3,3.853554851E-1,3.855727410E-1
1.578082167E1,-2.546667983E-2,5.635629586E-2,3.783259624E-1,3.833472547E-1
1.579082067E1,1.952147763E-2,4.772332963E-2,3.599195123E-1,3.635940863E-1
1.580081867E1,3.649767143E-2,-7.263841602E-2,3.883615386E-1,3.967784069E-1
1.581081767E1,1.658704332E-2,2.637276985E-4,3.666537505E-1,3.670288440E-1
1.582081667E1,7.989448174E-2,-3.616991672E-2,3.087166142E-1,3.209319850E-1
1.583081567E1,4.410399450E-3,2.242025306E-2,2.720294291E-1,2.729874167E-1
1.584081367E1,1.092026818E-1,-9.640631525E-2,1.836937881E-1,2.344414876E-1
1.585081267E1,8.361836325E-2,-2.129669230E-2,9.969327271E-2,1.318496432E-1
1.586081167E1,6.112262629E-2,6.216896726E-3,6.778501689E-2,9.148460944E-2
1.587081067E1,9.592266829E-2,2.213506426E-2,4.051652670E-2,1.064551938E-1
1.588080967E1,7.464373690E-2,1.220108615E-1,3.211700141E-2,1.465941321E-1
1.589080767E1,6.768741407E-2,-1.077303803E-3,1.183236712E-1,1.363203498E-1
1.590080667E1,1.104664204E-2,4.727620035E-3,1.320804155E-1,1.326258453E-1
1.591080567E1,2.178856191E-2,-7.783192210E-5,1.283235794E-1,1.301602417E-1
1.592080467E1,2.154252204E-2,8.379515016E-2,1.381954336E-1,1.630450408E-1
1.593080267E1,8.283966031E-2,9.288669342E-2,1.795130289E-1,2.184382628E-1
1.594080167E1,2.162191809E-1,-4.860479739E-2,2.711260343E-1,3.501749377E-1
1.595080067E1,-6.443141031E-2,-4.384262396E-2,3.883323026E-1,3.960751943E-1
1.596079967E1,-1.912465269E-2,7.398357712E-2,3.642335880E-1,3.721631747E-1
1.597079767E1,3.935849478E-2,3.034915972E-2,3.452277982E-1,3.487870343E-1
