"Time (s)","Linear Acceleration x (m/s^2)","Linear Acceleration y (m/s^2)","Linear Acceleration z (m/s^2)","Absolute acceleration (m/s^2)"
-2.033750061E-4,1.102267759E-2,-1.487750933E-3,-6.214420795E-3,1.274095169E-2
9.795624996E-3,2.121559873E-2,-2.299271375E-3,-1.459231138E-2,2.585195989E-2
1.979362505E-2,7.815096080E-3,2.373289816E-2,-4.287821710E-2,4.962728769E-2
2.979262499E-2,9.454545714E-3,1.489623869E-2,-3.419334769E-2,3.847689421E-2
3.979158337E-2,1.403762989E-2,2.444751928E-2,-2.340991259E-2,3.664369330E-2
4.979058338E-2,1.027898485E-2,4.226241393E-2,-1.697329760E-2,4.668899219E-2
5.978958338E-2,6.721593663E-3,3.107935818E-2,-5.847215652E-5,3.179795190E-2
6.978858338E-2,8.739723600E-3,3.761115488E-2,-1.847076952E-2,4.280363380E-2
7.978658337E-2,9.568182696E-3,2.909989296E-2,-3.822851121E-2,4.898747758E-2
8.978558338E-2,1.285066338E-2,1.333642082E-2,-2.700068772E-2,3.274197317E-2
9.978458338E-2,2.161143696E-2,3.606686868E-2,-2.894722581E-2,5.104718509E-2
1.097835834E-1,1.703631962E-2,1.938300826E-2,-2.505882740E-2,3.597057166E-2
1.197825834E-1,1.653992755E-2,1.368080355E-2,-1.558282971E-3,2.152119502E-2
1.297815834E-1,9.362598248E-3,-3.447956890E-3,-1.293930352E-2,1.633928481E-2
1.397795834E-1,1.261259034E-2,1.100917418E-2,-3.375188291E-2,3.767584042E-2
1.497785834E-1,2.520058583E-3,-1.058424605E-2,-2.642122865E-2,2.857373414E-2
1.597775834E-1,1.928868536E-3,-2.645569067E-2,-2.567863226E-2,3.691905006E-2
1.697765834E-1,1.480739756E-2,-3.698623370E-2,-1.100796819E-2,4.133298767E-2
1.797755833E-1,2.016680924E-2,-3.925630555E-2,-1.490045965E-2,4.658091259E-2
1.897745833E-1,9.063842073E-3,-4.569620959E-2,-3.181236148E-2,5.641208334E-2
1.997725834E-1,1.275705311E-2,-4.431814877E-2,-3.749234676E-2,5.943497944E-2
2.097715834E-1,1.292123197E-2,-3.657334719E-2,-2.535995901E-2,4.634323555E-2
2.197705834E-1,1.609438799E-2,-3.173885101E-2,-4.243909121E-3,3.583845356E-2
2.297695833E-1,1.687500956E-2,-9.496134035E-3,8.641015291E-3,2.120400090E-2
2.397685833E-1,1.384927645E-2,3.821995966E-3,-5.270680189E-3,1.530327354E-2
2.497665834E-1,6.466929149E-3,1.753693264E-2,-3.100719988E-2,3.620513256E-2
2.597655834E-1,1.237216014E-3,2.544752106E-2,-3.847818732E-2,4.614843368E-2
2.697645833E-1,8.367657959E-3,3.457714431E-2,-4.266362429E-2,5.554981049E-2
2.797635833E-1,2.100614050E-2,5.729132960E-2,-3.592236936E-2,7.080939914E-2
2.897625833E-1,2.838262232E-2,6.389395069E-2,-1.493378878E-3,6.993025358E-2
2.997615833E-1,4.085906390E-3,5.528257348E-2,-1.301824093E-2,5.694148012E-2
3.097595834E-1,2.349228524E-3,5.501996040E-2,-2.724159300E-2,6.143955816E-2
3.197585833E-1,1.293316394E-2,4.751189796E-2,-4.476160526E-2,6.654508609E-2
3.297575833E-1,7.430751286E-3,3.485600168E-2,-4.057441413E-2,5.400407392E-2
3.397565833E-1,2.145149734E-2,2.749342527E-3,-7.944611907E-3,2.304001911E-2
3.497555833E-1,2.826911325E-2,-2.518291628E-2,3.425883651E-3,3.801392791E-2
3.597535833E-1,2.921658145E-2,-2.903990418E-2,-4.361438155E-3,4.142398833E-2
3.697525833E-1,2.091682428E-2,-3.714301217E-2,-2.441680312E-2,4.912532103E-2
3.797515833E-1,7.893923856E-4,-5.156845864E-2,-2.561489761E-2,5.758517210E-2
3.897505833E-1,1.601716820E-3,-6.134107461E-2,-3.444419324E-2,7.036828390E-2
3.997495833E-1,4.929877052E-2,-2.189656181E-2,-3.383842170E-2,6.367783741E-2
4.097485833E-1,3.621975509E-2,-2.658403706E-2,2.242991924E-3,4.498458289E-2
4.197465833E-1,1.030447505E-2,-3.716680303E-2,3.009035647E-2,4.891812554E-2
4.297455833E-1,-3.423928488E-3,-2.424739832E-2,-1.660901606E-2,2.958917076E-2
4.397445833E-1,-4.546250369E-2,-2.402017917E-2,-5.208699703E-2,7.319059714E-2
4.497435833E-1,-3.388609478E-2,-3.498882484E-3,-4.969080806E-2,6.024687547E-2
4.597425833E-1,-1.676740251E-2,-8.937432580E-3,-2.514302731E-2,3.151500135E-2
4.697415833E-1,8.062835298E-3,-2.991589017E-2,1.543664932E-4,3.098376392E-2
4.797395833E-1,2.423228692E-2,-1.468096979E-2,-5.899840593E-4,2.833871353E-2
4.897385833E-1,4.398081925E-2,-3.272503875E-3,-4.055511832E-2,5.991443370E-2
4.997375833E-1,5.004127555E-2,1.951087955E-2,-2.237144709E-3,5.375693905E-2
5.097365833E-1,8.162256237E-3,2.732751053E-3,-4.182513356E-3,9.569941127E-3
5.197355833E-1,4.856057782E-2,-9.249509443E-3,-1.216957605E-1,1.313527360E-1
5.297335833E-1,4.524961023E-2,8.043740485E-2,1.449033594E-1,1.717983903E-1
5.397325833E-1,-8.436432179E-2,-9.822715648E-2,-9.190536618E-2,1.587844747E-1
5.497315833E-1,4.432657242E-2,1.895444389E-1,-9.131187379E-2,2.150111570E-1
5.597305833E-1,-6.339105360E-2,-1.361765728E-1,-9.521605968E-2,1.778442652E-1
5.697295833E-1,4.694184925E-2,9.173104607E-2,7.632604480E-2,1.282333308E-1
5.797285833E-1,9.973705374E-3,3.092659967E-2,5.117600083E-2,6.062105597E-2
5.897265833E-1,2.897779578E-2,-8.829277363E-3,-7.695578992E-2,8.270346057E-2
5.997255833E-1,1.727397239E-2,1.985330712E-2,-5.585260391E-2,6.174186011E-2
6.097245833E-1,4.645192567E-2,1.167720029E-2,4.952357769E-2,6.889646691E-2
6.197235833E-1,3.307345971E-2,-1.373147333E-2,-2.622417748E-2,4.438597280E-2
6.297225833E-1,1.490327362E-3,1.874522321E-2,-5.676067650E-2,5.979447187E-2
6.397205833E-1,6.375529859E-3,-4.360672535E-2,-1.664936185E-2,4.711045666E-2
6.497195833E-1,-4.392136037E-3,9.509016182E-3,1.418709934E-2,1.763479615E-2
6.597185833E-1,-1.868779259E-2,-6.776740216E-4,-2.413789093E-2,3.053408935E-2
6.697175833E-1,-3.994616736E-3,-3.693459548E-2,-5.392477691E-2,6.548284410E-2
6.797165833E-1,-1.082467625E-2,-1.827843267E-2,-3.655854642E-2,4.228240809E-2
6.897155833E-1,1.330484586E-2,-2.278729375E-2,-1.590384185E-2,3.080928213E-2
6.997135833E-1,2.533801368E-2,-2.847678076E-2,-4.077263474E-3,3.833491955E-2
7.097125833E-1,1.178568441E-2,-1.775945574E-2,-7.813634276E-3,2.270139877E-2
7.197115833E-1,1.517801967E-2,-8.369412124E-3,-1.948584616E-2,2.607906327E-2
7.297105833E-1,1.440083334E-2,6.725083720E-3,-1.858420551E-2,2.445370005E-2
7.397095833E-1,1.895557679E-3,-4.989977293E-3,-5.226182878E-2,5.253372022E-2
7.497085833E-1,1.723731766E-2,-5.657254234E-3,-2.936296284E-2,3.451540572E-2
7.597065833E-1,-7.085454930E-3,-1.119219203E-2,-3.286135197E-4,1.325054039E-2
7.697055833E-1,1.045979172E-2,1.055524752E-2,-1.933615744E-2,2.438662497E-2
7.797045833E-1,9.953587297E-3,1.391885832E-2,-1.529456198E-2,2.295064581E-2
7.897035833E-1,-3.865612540E-3,4.344060961E-3,-3.385713279E-2,3.435286403E-2
7.997025833E-1,2.198489131E-2,1.529929457E-2,-2.457818627E-2,3.635231906E-2
8.097005833E-1,2.015383573E-2,1.549714973E-2,-2.412736595E-2,3.504951543E-2
8.196995833E-1,2.883755397E-2,1.214806560E-2,-1.664176047E-2,3.544189905E-2
8.296985833E-1,1.939707812E-2,1.840522589E-2,-2.696969748E-2,3.797846181E-2
8.396975833E-1,2.387401706E-2,1.739197651E-2,-1.005253315E-2,3.120100896E-2
8.496965833E-1,1.323774906E-2,-4.166506603E-4,-3.915295601E-3,1.381090647E-2
8.596955833E-1,-4.604134150E-3,-4.642433412E-3,-4.133747578E-2,4.185136967E-2
8.696935833E-1,2.627263628E-3,-4.236252923E-3,-3.490261495E-2,3.525678493E-2
8.796925833E-1,4.199653007E-3,-2.560824640E-3,-6.297451258E-4,4.958980454E-3
8.896915833E-1,1.337863041E-2,1.602612175E-3,5.505738258E-3,1.455572984E-2
8.996905833E-1,1.401217623E-2,-1.396252971E-2,-2.578505158E-2,3.249864926E-2
9.096895833E-1,1.788380044E-2,-4.314514250E-3,-3.746603429E-2,4.173905937E-2
9.196875833E-1,1.837748816E-2,-9.640158266E-3,-2.488925815E-2,3.240586203E-2
9.296865833E-1,7.067620922E-3,-1.100703629E-2,-1.680431306E-2,2.129532932E-2
9.396855833E-1,1.356215989E-2,-1.975130975E-2,-6.622556448E-3,2.485768838E-2
9.496845833E-1,1.754164696E-2,-1.887241842E-2,3.561539054E-3,2.601080767E-2
9.596835834E-1,1.110057347E-3,-1.711220551E-2,-1.649499536E-2,2.379379492E-2
9.696825834E-1,2.171290442E-3,9.064463340E-4,-3.849689841E-2,3.856873519E-2
9.796805833E-1,-1.025638171E-4,-1.433952894E-2,-5.181393206E-2,5.376166074E-2
9.896795833E-1,1.989615625E-2,6.482168455E-3,-2.920918107E-2,3.593120928E-2
9.996785834E-1,1.119951932E-2,-1.026738178E-2,-1.768373430E-2,2.331443373E-2
1.009677583E0,2.934788799E-2,3.672234155E-4,-4.753786325E-4,2.935403494E-2
1.019676583E0,2.592871036E-2,5.431332439E-4,-2.113242209E-2,3.345403232E-2
1.029675583E0,1.790993018E-2,3.648297116E-4,-3.490495384E-2,3.923333407E-2
1.039673583E0,4.237038642E-3,1.337472009E-2,-2.247903585E-2,2.649797514E-2
1.049671958E0,1.263263533E-2,1.328904010E-2,-1.589390159E-2,2.426516371E-2
1.059670958E0,3.009068538E-3,-4.244183209E-3,-1.589448631E-2,1.672430207E-2
1.069669958E0,2.463139594E-3,1.726216832E-2,-1.244930685E-2,2.142509633E-2
1.079668958E0,4.032112006E-3,1.938543851E-2,-3.116273582E-2,3.692112210E-2
1.089666958E0,1.410503732E-2,1.502195382E-2,-6.393988788E-2,6.717827355E-2
1.099665958E0,2.013908979E-2,1.957976706E-3,-1.783693135E-2,2.697355613E-2
1.109664958E0,2.870960958E-2,4.774014037E-3,3.117150664E-3,2.927028392E-2
1.119663958E0,2.396194456E-2,1.328271780E-2,3.567970991E-3,2.762853229E-2
1.129662958E0,2.115058500E-2,1.102954807E-2,-1.125062764E-2,2.637375208E-2
1.139661958E0,-1.227246512E-2,-5.647167787E-3,-3.280872703E-2,3.548121296E-2
1.149659958E0,-8.156920653E-3,5.592861772E-4,-4.269169092E-2,4.346755835E-2
1.159658958E0,-1.120374028E-2,-1.294493146E-2,-3.595979154E-2,3.982714720E-2
1.169657958E0,-3.694398757E-3,-1.196512084E-2,-2.862621367E-2,3.124536459E-2
1.179656958E0,1.186220985E-2,-2.006472051E-3,-1.290772855E-2,1.764503922E-2
1.189655958E0,1.407185437E-2,-1.056913465E-2,3.404833674E-3,1.792530572E-2
1.199653958E0,1.386003898E-2,-1.549541384E-2,-2.474190831E-2,3.231672257E-2
1.209652958E0,4.263223205E-3,-2.921323758E-3,-3.881323278E-2,3.915579451E-2
1.219651958E0,4.861302003E-3,2.676014788E-4,-2.503894687E-2,2.550789540E-2
1.229650958E0,8.457631990E-3,-1.382133773E-2,-1.126407623E-2,1.973424254E-2
1.239649958E0,2.491991948E-3,-2.319901083E-3,-1.426018953E-2,1.466100169E-2
1.249648958E0,1.007650673E-2,-8.024134040E-3,-1.575824618E-2,2.035301053E-2
1.259646958E0,1.299899993E-2,-4.236983825E-3,-2.069738925E-2,2.480540169E-2
1.269645958E0,1.338557398E-2,1.680526324E-3,-1.456366003E-2,1.985190048E-2
1.279644958E0,1.020547438E-2,8.521604184E-3,-3.223336101E-2,3.486773590E-2
1.289643958E0,1.496603983E-2,2.559180111E-3,-2.055881023E-2,2.555770782E-2
1.299642958E0,1.072339151E-2,-9.796790555E-3,-1.547757983E-3,1.460697729E-2
1.309641958E0,1.225837698E-2,-1.181857500E-2,-2.100495279E-2,2.703986988E-2
1.319639958E0,2.297955751E-2,1.360842599E-2,-2.594175696E-2,3.723203024E-2
1.329638958E0,2.063920945E-3,-2.226199452E-3,-3.462662637E-2,3.475944458E-2
1.339637958E0,-3.200765848E-3,2.444362722E-2,-2.579616129E-2,3.568161643E-2
1.349636958E0,8.580460064E-3,8.548958190E-3,-7.837607861E-3,1.442695664E-2
1.359635958E0,1.700006688E-2,-1.543719750E-3,-1.157397866E-2,2.062382910E-2
1.369633958E0,1.242235484E-2,1.107300019E-2,-1.381521642E-2,2.162837113E-2
1.379632958E0,1.187869169E-2,-4.018462412E-3,-2.773919106E-2,3.044197886E-2
1.389631958E0,8.618686236E-3,-5.555932950E-3,-3.342560828E-2,3.496314391E-2
1.399630958E0,7.078694087E-3,2.878182270E-3,-2.639199257E-2,2.747597341E-2
1.409629958E0,2.446500611E-2,-1.276074417E-2,-2.310001016E-2,3.598588035E-2
1.419628958E0,1.947433446E-2,7.774037663E-3,-2.399989665E-2,3.186974118E-2
1.429626958E0,1.031013954E-2,1.051603463E-3,-1.846258342E-2,2.117243099E-2
1.439625958E0,8.213931005E-3,-1.882015893E-2,-3.762332439E-2,4.286235625E-2
1.449624958E0,-9.613882340E-3,-9.133222941E-3,-3.268008828E-2,3.526798357E-2
1.459623958E0,1.475464471E-2,-4.059246741E-4,-1.755626500E-2,2.293658117E-2
1.469622958E0,2.013183558E-2,3.513683248E-3,-1.411050081E-2,2.483431109E-2
1.479621958E0,1.860076044E-2,4.559695311E-3,-1.081793368E-2,2.199560864E-2
1.489619958E0,2.004681341E-4,-2.181824567E-2,-1.740949988E-2,2.791355795E-2
1.499618958E0,3.155011386E-3,-9.852704555E-3,-3.851677895E-2,3.988197769E-2
1.509617958E0,5.351426583E-3,-1.881690642E-2,-5.183732092E-2,5.540597056E-2
1.519616958E0,1.327398352E-2,-1.650179274E-2,-2.863089144E-2,3.561229769E-2
1.529615958E0,2.481291544E-2,1.768709645E-3,1.328195035E-2,2.819963318E-2
1.539613958E0,1.247024719E-2,-7.465615310E-3,1.193182826E-2,1.880454739E-2
1.549612958E0,-4.147155974E-3,8.003888056E-3,-3.334667087E-3,9.611510353E-3
1.559611958E0,-1.924786448E-2,1.188508708E-2,-4.210696936E-2,4.779887499E-2
1.569610958E0,-3.194699362E-3,1.496629564E-2,-4.674790442E-2,4.918905038E-2
1.579609958E0,3.846207093E-3,2.215729281E-2,-2.489335120E-2,3.354724829E-2
1.589608958E0,1.781776344E-2,7.809979767E-3,2.796138525E-3,1.965418197E-2
1.599606958E0,1.952193445E-2,1.152166435E-2,-6.189862490E-3,2.349827806E-2
1.609605958E0,1.519325897E-2,2.193016503E-2,-3.133581340E-2,4.115459219E-2
1.619604958E0,2.241118988E-2,1.782085150E-2,-3.747071207E-2,4.715822773E-2
1.629603958E0,1.451602349E-2,2.324703109E-2,-3.058503091E-2,4.106803512E-2
1.639602958E0,9.684140291E-3,1.308433274E-2,-1.321587682E-2,2.096763545E-2
1.649600958E0,9.575966801E-3,5.537678674E-3,-3.490787745E-3,1.159959587E-2
1.659599958E0,1.360029470E-2,2.314507026E-2,-8.732231855E-3,2.822966820E-2
1.669598958E0,8.672846071E-3,7.231872864E-3,-2.998978436E-2,3.204536488E-2
1.679597958E0,1.483460538E-2,7.203057054E-3,-4.406578660E-2,4.705043142E-2
1.689596958E0,1.006157806E-2,-9.176181704E-3,-3.763092577E-2,4.001904844E-2
1.699595958E0,1.813535862E-2,-2.235953338E-2,-2.191361010E-2,3.618074451E-2
1.709593958E0,2.312800370E-2,-2.069863178E-2,-6.566423178E-4,3.104463064E-2
1.719592958E0,1.395805294E-2,-2.014482737E-2,-1.233587086E-2,2.743747476E-2
1.729591958E0,4.717789404E-3,-2.632540740E-2,-2.056641161E-2,3.373813715E-2
1.739590958E0,-6.165231094E-3,-2.183063446E-2,-3.688189745E-2,4.329966553E-2
1.749589958E0,-2.213134579E-3,-2.263705686E-2,-2.879929125E-2,3.669786757E-2
1.759587958E0,-4.351790249E-3,-1.333625637E-2,-2.430336714E-2,2.806149438E-2
1.769586958E0,1.316820374E-2,-2.760137949E-2,-1.848889589E-3,3.063749553E-2
1.779585958E0,1.083701022E-2,-2.472073043E-2,-7.087410092E-3,2.790674981E-2
1.789584958E0,4.127275441E-3,-1.650572134E-2,-2.355550826E-2,2.905744670E-2
1.799583958E0,1.512128340E-2,3.960538432E-3,-1.936539352E-2,2.488689500E-2
1.809582958E0,7.242872939E-3,8.651394099E-3,-2.954422653E-2,3.162541935E-2
1.819580958E0,1.677672151E-2,8.965152036E-3,-1.936714768E-2,2.714624735E-2
1.829579958E0,2.104849627E-2,9.073014893E-3,-3.201350570E-3,2.314319425E-2
1.839578958E0,1.222895818E-2,1.549373277E-2,-2.445305586E-2,3.142538964E-2
1.849577958E0,7.675694805E-3,2.163941223E-2,-3.881791055E-2,4.510000701E-2
1.859576958E0,1.567877887E-2,2.112571606E-2,-2.759184122E-2,3.812387294E-2
1.869574958E0,2.260877095E-2,1.772217974E-2,-2.534592569E-2,3.830989595E-2
1.879573958E0,2.955615850E-2,6.644647960E-2,3.842790127E-3,7.282491464E-2
1.889572958E0,3.463780917E-3,-1.275679730E-2,6.386913657E-3,1.468081475E-2
1.899571958E0,3.184351617E-2,3.704269588E-2,-2.250300944E-2,5.378249041E-2
1.909570958E0,-1.249359950E-2,-8.299026266E-4,-4.555565715E-2,4.724507027E-2
1.919569958E0,1.835735181E-2,1.513780179E-2,-5.050064743E-2,5.582527025E-2
1.929567958E0,2.819490843E-3,-9.520399980E-3,-2.505707324E-2,2.695263370E-2
1.939566958E0,1.296576217E-2,-3.777356129E-3,9.180128574E-5,1.350510405E-2
1.949565958E0,2.495469214E-2,-2.147079315E-2,-4.846757054E-3,3.327495563E-2
1.959564958E0,2.803794723E-3,-6.721264757E-3,-1.996707201E-2,2.125372037E-2
1.969563958E0,-7.284442987E-3,-1.862371076E-2,-3.298940599E-2,3.857728113E-2
1.979562958E0,-2.164091058E-3,-1.506443750E-2,-2.834730148E-2,3.217436975E-2
1.989560958E0,-6.326760426E-3,-1.697490558E-2,-1.966594040E-2,2.673807265E-2
1.999559958E0,2.663187459E-3,-3.164127560E-2,-1.403331757E-3,3.178415060E-2
2.009558958E0,1.527442563E-2,-2.353997659E-2,-1.307846725E-2,3.095940700E-2
2.019557958E0,1.321903797E-2,-1.850859370E-2,-2.310585737E-2,3.242208584E-2
2.029556958E0,1.383166172E-2,-1.472188203E-2,-3.358114421E-2,3.918854326E-2
2.039554958E0,1.183754191E-2,6.835504733E-3,-3.268125772E-2,3.542479541E-2
2.049554458E0,7.317096032E-3,-2.034264598E-3,-1.636518717E-2,1.804154865E-2
2.059553458E0,6.246251576E-3,-2.032638341E-4,1.282586753E-2,1.426744031E-2
2.069552458E0,9.288521335E-3,5.936933868E-3,1.252765954E-2,1.668730253E-2
2.079551458E0,-4.647019822E-3,9.404204842E-3,-3.103234291E-2,3.275729184E-2
2.089550458E0,-9.778353553E-3,1.275544513E-2,-6.335750520E-2,6.536429487E-2
2.099548458E0,4.684443830E-2,-1.602296060E-2,3.693569183E-2,6.176877850E-2
2.109547458E0,-7.591553371E-2,6.439787105E-2,-7.653595984E-2,1.255707259E-1
2.119546458E0,7.688198710E-2,1.610983743E-1,-1.208549309E-1,2.155677167E-1
2.129545458E0,5.238279305E-2,-1.841245634E-1,-4.316122234E-2,1.962363447E-1
2.139544458E0,6.824060636E-2,3.297135271E-3,1.433602792E-1,1.588074970E-1
2.149542458E0,-1.321317248E-2,5.103382213E-2,5.249981046E-2,7.439938861E-2
2.159541458E0,8.080194220E-3,1.107261829E-1,-1.192013383E-1,1.628942484E-1
2.169540458E0,-5.393325537E-3,6.182681378E-2,-1.031928313E-1,1.204176203E-1
2.179539458E0,5.776212182E-2,-9.851679465E-2,2.837770700E-2,1.176746183E-1
2.189538458E0,1.003619749E-3,-1.187635828E-1,7.987705886E-2,1.431298026E-1
2.199537458E0,-6.740615387E-2,-3.483661450E-3,-2.400165081E-2,7.163661576E-2
2.209535458E0,1.008741545E-2,3.357063750E-2,-1.106807756E-1,1.160989998E-1
2.219534458E0,-4.008796234E-2,6.184821093E-2,-4.033058524E-2,8.401667707E-2
2.229533458E0,3.222632607E-2,1.481739264E-2,-2.387008846E-2,4.275362370E-2
2.239532458E0,4.819284277E-2,-8.785216765E-2,-2.626686215E-2,1.035881340E-1
2.249531458E0,4.074085878E-2,-4.870018009E-2,2.807599068E-2,6.942468126E-2
2.259529458E0,3.877908139E-2,-5.642484533E-2,2.433494210E-2,7.266202399E-2
2.269528458E0,1.242379837E-2,1.384944091E-2,-4.571762502E-2,4.935847462E-2
2.279527458E0,-6.732794736E-3,3.951727409E-2,-6.696465254E-2,7.804620533E-2
2.289526458E0,-3.024108673E-2,-3.537148856E-2,-3.522655070E-2,5.836587533E-2
2.299525458E0,-2.115266807E-2,-1.359844917E-2,5.937730551E-2,6.448269222E-2
2.309524458E0,1.078475073E-2,1.593062941E-2,2.689485312E-2,3.306703685E-2
2.319522458E0,2.570764907E-3,-4.377938267E-3,-6.501460612E-2,6.521253088E-2
2.329521458E0,1.575541394E-2,1.443173222E-2,-7.968643963E-2,8.250113105E-2
2.339520458E0,3.561012805E-2,-5.794462804E-3,-3.103819013E-2,4.759229207E-2
2.349519458E0,5.565308595E-2,1.188797414E-2,3.752509117E-2,6.816687152E-2
2.359518458E0,3.362337207E-2,1.617387358E-2,1.791996181E-2,4.139142867E-2
2.369517458E0,-1.728298075E-2,2.982368689E-2,-1.830236971E-2,3.902730404E-2
2.379515458E0,-1.764612939E-2,2.951773133E-2,-4.300510168E-2,5.506469936E-2
2.389514458E0,-2.664174177E-3,1.665776722E-2,-5.229281902E-2,5.494650084E-2
2.399513458E0,-7.417923957E-3,1.131290048E-2,-3.926990032E-2,4.153471301E-2
2.409512458E0,2.233353155E-2,1.125351470E-3,-4.546210170E-3,2.281931362E-2
2.419511458E0,3.703017918E-2,2.598665262E-2,1.730541945E-2,4.843570818E-2
2.429509458E0,1.615011927E-2,8.272695523E-3,-1.982089162E-2,2.687250617E-2
2.439508458E0,1.785639161E-2,-5.260886103E-3,-5.110700369E-2,5.439166729E-2
2.449507458E0,4.936292544E-3,-2.447955105E-3,-3.284205616E-2,3.330105285E-2
2.459506458E0,-1.773588415E-3,-1.418337174E-2,-4.701746106E-3,1.504726109E-2
2.469505458E0,2.402712274E-3,-2.414278798E-2,-5.002877712E-3,2.477248520E-2
2.479503458E0,-1.491284844E-2,-8.494213633E-3,-7.694351077E-3,1.880818312E-2
2.489502458E0,-8.434553761E-3,-1.470969424E-2,-2.371162891E-2,2.915061144E-2
2.499501458E0,4.934373926E-3,-7.890415527E-3,-3.419042408E-2,3.543433084E-2
2.509500458E0,1.801075811E-2,-6.619504932E-3,-4.242739677E-2,4.656489289E-2
2.519499458E0,2.064538557E-2,-3.353045616E-2,-2.266731620E-2,4.543490574E-2
2.529498458E0,3.385199821E-2,-2.475871906E-2,8.170314431E-3,4.272828091E-2
2.539496458E0,3.580781875E-2,-1.869469961E-2,2.786782980E-3,4.049021903E-2
2.549495458E0,4.390655961E-3,-1.283482108E-3,-4.436224043E-2,4.459746139E-2
2.559494458E0,-1.130522601E-2,1.322729716E-2,-4.061534464E-2,4.418569617E-2
2.569493458E0,-1.614947973E-2,-9.073270708E-3,-3.148608685E-2,3.653085821E-2
2.579492458E0,1.154770274E-3,7.429216392E-3,-7.081562877E-3,1.032837274E-2
2.589490458E0,-1.777135117E-2,-1.378528599E-2,-9.105050325E-2,9.378725486E-2
2.599489458E0,3.192409812E-2,-7.618956713E-2,-1.482286710E-1,1.696930673E-1
2.609488458E0,2.383360001E-1,2.155155416E-1,2.123732114E-1,3.851666893E-1
2.619487458E0,-2.420343457E-2,1.946260713E-1,7.360299647E-2,2.094815385E-1
2.629486458E0,-1.550362187E-1,-9.967602342E-3,-1.629227239E-1,2.251208479E-1
2.639485458E0,-1.193422562E-1,-2.639542598E-1,-1.451080120E-1,3.239919143E-1
2.649483458E0,8.307374993E-2,-1.799909656E-1,7.495779634E-2,2.119355253E-1
2.659482458E0,1.477029697E-1,1.372484222E-1,1.390502965E-1,2.449250531E-1
2.669481458E0,-1.166952765E-1,2.518847296E-1,-5.871189237E-2,2.837442350E-1
2.679480458E0,-1.114718126E-1,9.242708400E-2,-1.494560015E-1,2.081005220E-1
2.689479458E0,1.969011499E-2,-1.319415989E-1,-7.222656190E-2,1.517002386E-1
2.699478458E0,5.484962370E-2,-2.076847311E-1,9.273976386E-2,2.339702814E-1
2.709476458E0,7.903405482E-2,1.591182696E-2,-3.949794173E-3,8.071659639E-2
2.719475458E0,1.205222426E-1,7.780233884E-2,-6.382937551E-2,1.570127513E-1
2.729474458E0,7.384846989E-2,5.760735333E-2,-6.373465061E-5,9.366006473E-2
2.739473458E0,-5.381033594E-2,-2.717424039E-2,1.296737015E-2,6.166153001E-2
2.749472458E0,-1.174325921E-1,-1.617706945E-1,-1.094645548E-1,2.279093242E-1
2.759470458E0,-6.891214080E-2,-5.865804316E-2,-8.400694728E-2,1.234779995E-1
2.769469458E0,2.585569326E-2,1.063891386E-1,9.037924290E-2,1.419703252E-1
2.779468458E0,3.548709897E-2,1.026108689E-1,4.860498011E-2,1.189570036E-1
2.789467458E0,9.007343352E-3,1.933369065E-2,-7.924088180E-2,8.206120385E-2
2.799466458E0,3.761279941E-2,-1.063565952E-1,-9.046227336E-2,1.446024582E-1
2.809465458E0,4.574320659E-2,-1.301511998E-1,-1.845556676E-2,1.391847107E-1
2.819463458E0,5.080102986E-2,4.645720644E-2,4.561763763E-2,8.258320367E-2
2.829462458E0,6.519632662E-2,1.039136833E-1,-7.820066214E-3,1.229217964E-1
2.839461458E0,-5.085999537E-3,5.611865222E-2,-5.617010772E-2,7.956287778E-2
2.849460458E0,-6.991872070E-2,-3.937642928E-3,-2.339120150E-2,7.383278976E-2
2.859459458E0,-4.465449158E-2,-7.674158083E-2,-1.740014434E-2,9.047684162E-2
2.869457458E0,-7.173291072E-3,-1.352018785E-2,-3.790399075E-2,4.087742774E-2
2.879456458E0,9.601731095E-3,5.718163949E-2,-2.384143710E-2,6.269248166E-2
2.889455458E0,4.167683356E-2,3.619070174E-2,1.447770596E-2,5.706425604E-2
2.899454458E0,4.546787582E-2,3.208749125E-2,-6.420242786E-4,5.565381408E-2
2.909453458E0,3.710513318E-2,-3.789052388E-2,-5.078540683E-2,7.342778939E-2
2.919452458E0,3.610547857E-2,-3.952789044E-2,-4.943060696E-2,7.286593587E-2
2.929450458E0,3.425700925E-2,4.325103192E-2,-2.725387216E-3,5.524148966E-2
2.939449458E0,2.636158705E-2,2.463384446E-2,1.418183684E-2,3.876704865E-2
2.949448458E0,-1.860520067E-2,1.121439317E-2,-6.780431271E-3,2.275720445E-2
2.959447458E0,-4.849711725E-2,-2.044581279E-2,-4.375763834E-2,6.844510615E-2
2.969446458E0,-2.334862646E-2,-2.551169425E-2,-3.597440958E-2,4.990153350E-2
2.979444458E0,-2.367756888E-3,-3.710405510E-3,-3.013888836E-2,3.045859441E-2
2.989443458E0,1.195105098E-2,-2.239951372E-2,-2.984068036E-2,3.917948492E-2
2.999442458E0,3.368314158E-2,-3.582985545E-2,-2.893787026E-3,4.926161357E-2
3.009441458E0,2.810440449E-2,-2.098954903E-2,9.685328007E-3,3.638989281E-2
3.019440458E0,2.268809209E-2,8.055453189E-3,-3.402143955E-2,4.167851002E-2
3.029439458E0,-5.393416900E-3,1.801207373E-2,-6.500700474E-2,6.767151846E-2
3.039437458E0,4.143446647E-3,-4.727711398E-3,-2.533715487E-2,2.610537917E-2
3.049436125E0,1.369618904E-2,-4.105622470E-3,3.409219086E-2,3.696916564E-2
3.059435125E0,3.487644866E-3,-1.101443667E-2,-1.036886752E-2,1.552401029E-2
3.069434125E0,-1.102556465E-2,-1.277686056E-2,-6.381183386E-2,6.600576779E-2
3.079433125E0,8.710889518E-4,-3.771673366E-3,-4.315420568E-2,4.332747147E-2
3.089431125E0,9.429859500E-3,-1.712064743E-3,-7.983203530E-3,1.247336981E-2
3.099430125E0,1.821806017E-2,1.529432444E-2,-1.307554364E-2,2.714376389E-2
3.109429125E0,1.215076994E-2,3.499333816E-2,-3.343379438E-2,4.989983499E-2
3.119428125E0,1.842024593E-2,3.072037568E-2,-1.292819381E-2,3.808129642E-2
3.129427125E0,1.995333105E-2,2.378994506E-3,1.440753937E-3,2.014623555E-2
3.139426125E0,2.950444719E-2,-5.957929026E-3,-1.996648729E-2,3.612021507E-2
3.149424125E0,7.630470246E-3,-1.453665320E-2,-4.241921067E-2,4.548546797E-2
3.159423125E0,1.582344264E-2,2.603363134E-3,-3.837703049E-2,4.159273141E-2
3.169422125E0,-2.433355339E-4,7.133073192E-3,-1.098574877E-2,1.310063439E-2
3.179421125E0,7.152679637E-3,-1.699602865E-3,7.127755880E-3,1.023984276E-2
3.189420125E0,1.160909850E-3,-1.649563489E-2,1.087289751E-2,1.979074487E-2
3.199418125E0,2.616501097E-3,5.822967980E-3,-4.435990155E-2,4.481689301E-2
3.209417125E0,4.332403075E-3,4.729372373E-2,-3.163811445E-2,5.706519348E-2
3.219416125E0,-2.432604337E-2,-3.547092777E-2,-5.364469528E-2,6.875824630E-2
3.229415125E0,3.752531044E-2,-1.613509923E-2,-3.253507733E-2,5.222089245E-2
3.239414125E0,2.181709450E-2,-6.408533737E-2,1.596523762E-2,6.955433049E-2
3.249413125E0,4.040091628E-2,2.557254184E-2,-4.990598559E-3,4.807384951E-2
3.259411125E0,-2.607083425E-2,1.483197413E-2,-4.929904461E-2,5.770677304E-2
3.269410125E0,-1.148555780E-2,5.011209995E-3,-6.486667156E-2,6.606599233E-2
3.279409125E0,1.514242474E-2,-2.059471579E-2,-2.220187783E-2,3.385791968E-2
3.289408125E0,1.656507058E-2,-5.961163267E-3,2.360871792E-2,2.945010344E-2
3.299407125E0,2.898857659E-2,-2.411492234E-2,-3.408926725E-4,3.770919331E-2
3.309405125E0,1.721049355E-2,3.357931696E-2,5.645486712E-3,3.815289158E-2
3.319404125E0,-2.530674934E-3,-4.463874064E-3,-3.343204021E-2,3.382353914E-2
3.329403125E0,3.504126705E-3,-6.210035384E-3,-4.136261880E-2,4.197272540E-2
3.339402125E0,-4.541185219E-3,-3.837582450E-3,-5.303716958E-2,5.336938035E-2
3.349401125E0,4.115641309E-2,-7.653237842E-3,1.027998984E-2,4.310569080E-2
3.359400125E0,1.793023098E-2,5.758100431E-3,1.566644490E-2,2.449666098E-2
3.369398125E0,9.158987235E-3,1.638996474E-2,-1.606931806E-2,2.471317410E-2
3.379397125E0,-4.860205650E-3,-2.841819897E-3,-4.915461838E-2,4.947599466E-2
3.389396125E0,1.349084213E-2,2.098525498E-2,-2.236209154E-2,3.350293847E-2
3.399395125E0,1.117799425E-2,1.270673051E-2,-3.801274896E-3,1.734526583E-2
3.409394125E0,-5.554398056E-3,3.921033181E-3,-1.233704031E-2,1.408646167E-2
3.419392125E0,1.757974522E-2,8.739942871E-3,-1.667684376E-2,2.575948682E-2
3.429391125E0,-6.029210240E-3,-2.906698409E-2,-1.458587945E-2,3.307550181E-2
3.439390125E0,5.647514965E-3,1.141064035E-2,-5.908611417E-3,1.403598330E-2
3.449389125E0,1.716205303E-2,7.862549890E-3,-4.213795960E-2,4.617318913E-2
3.459388125E0,1.613981355E-2,1.936890185E-2,-5.097251773E-2,5.686691045E-2
3.469387125E0,2.475479046E-2,-1.776585113E-3,-6.223191619E-3,2.558679384E-2
3.479385125E0,2.490323665E-2,-3.313964289E-2,4.001892865E-2,5.761876236E-2
3.489384125E0,1.555379463E-2,-1.900825655E-2,2.788420200E-2,3.715862035E-2
3.499383125E0,1.448137874E-2,-2.960098106E-3,-5.879024506E-2,6.061984349E-2
3.509382125E0,-1.023884006E-3,-1.936469916E-2,-1.354308701E-1,1.368121357E-1
3.519381125E0,-9.913935866E-3,-1.974595590E-2,-3.992244959E-2,4.562883825E-2
3.529379125E0,8.273700513E-3,-3.098911006E-2,-3.062888503E-2,4.434983270E-2
3.539378125E0,-2.674785046E-2,-1.584187964E-2,-6.968126893E-3,3.185855375E-2
3.549377125E0,-9.389166534E-3,4.070323560E-2,1.115648746E-3,4.178701364E-2
3.559376125E0,1.513778351E-2,3.666982625E-2,2.904896736E-3,3.977772080E-2
3.569375125E0,3.391388733E-2,-8.988924623E-3,-3.212694168E-2,4.757197601E-2
3.579374125E0,3.229166871E-2,-9.132035226E-3,-3.988970518E-3,3.379434599E-2
3.589372125E0,2.297857080E-2,-1.303055663E-2,2.293862700E-3,2.651550354E-2
3.599371125E0,3.200595913E-2,1.793549348E-2,-8.635168076E-3,3.769123869E-2
3.609370125E0,2.285196031E-2,1.253575427E-2,-1.746738732E-2,3.137621463E-2
3.619369125E0,-7.898619901E-3,-5.438495278E-3,-2.420805752E-2,2.603834627E-2
3.629368125E0,-2.939415408E-2,4.641209152E-3,-3.394133270E-2,4.513946369E-2
3.639366125E0,-5.117391776E-3,3.963681310E-4,-5.116021335E-2,5.141704228E-2
3.649365125E0,1.484014196E-2,1.521737874E-3,-2.481909156E-2,2.895743092E-2
3.659364125E0,4.530587140E-3,-1.535405740E-3,-9.701700211E-3,1.081696249E-2
3.669363125E0,2.289780613E-2,-4.312047455E-3,-7.156407237E-3,2.437452448E-2
3.679362125E0,1.802714858E-2,-1.093259392E-2,-1.703703225E-2,2.710645981E-2
3.689361125E0,1.203101166E-2,1.455993243E-3,-4.906632543E-2,5.054077016E-2
3.699359125E0,1.646248849E-2,9.080104642E-3,-2.975414157E-2,3.519617548E-2
3.709358125E0,-7.483376227E-3,-3.975978736E-3,-7.602549791E-3,1.138455489E-2
3.719357125E0,-4.846775327E-3,-8.547971472E-3,-2.815434337E-3,1.022182556E-2
3.729356125E0,-5.503874458E-4,-9.820727594E-3,-3.095574439E-2,3.248088249E-2
3.739355125E0,8.086023163E-3,3.462172933E-3,-5.205834568E-2,5.279622871E-2
3.749353125E0,-3.867531158E-3,-1.601861173E-2,-2.810405731E-2,3.257900791E-2
3.759352125E0,2.734134285E-2,-1.348303976E-2,-2.151190639E-2,3.731090331E-2
3.769351125E0,1.957081351E-2,-3.453467891E-2,-1.118104577E-2,4.123926010E-2
3.779350125E0,2.370574515E-2,9.148553610E-3,2.010331213E-2,3.240064112E-2
3.789349125E0,1.348817434E-2,1.321759444E-2,-1.507821500E-2,2.416584816E-2
3.799348125E0,-1.222004117E-2,2.763576843E-3,-4.561763763E-2,4.730682431E-2
3.809346125E0,2.888524532E-4,-1.292580010E-2,-4.861024261E-2,5.030025278E-2
3.819345125E0,1.332328286E-2,-6.551403143E-3,-6.396269202E-3,1.616610680E-2
3.829344125E0,8.610445317E-3,-7.406503614E-3,6.396853924E-4,1.137564336E-2
3.839343125E0,7.300212197E-3,1.952308562E-2,-5.531466007E-4,2.085065805E-2
3.849342125E0,-5.302017611E-3,-5.089233778E-3,-3.693393767E-2,3.765803291E-2
3.859340125E0,-7.084523030E-3,3.987015355E-3,-3.618724823E-2,3.708913173E-2
3.869339125E0,6.400234345E-3,-7.992961071E-4,-2.766142309E-2,2.840345404E-2
3.879338125E0,2.659271652E-2,1.369090827E-2,-1.134827614E-2,3.199057537E-2
3.889337125E0,2.701653002E-2,1.257489407E-2,-2.242758036E-2,3.729634320E-2
3.899336125E0,3.805864960E-2,6.947826091E-3,-2.138209820E-2,4.420324898E-2
3.909335125E0,2.315760523E-2,-6.516575664E-3,-1.150439680E-2,2.666630053E-2
3.919333125E0,1.145924533E-2,1.659925852E-2,-2.392680645E-2,3.129443647E-2
3.929332125E0,1.525730425E-2,5.273804795E-3,-2.527400494E-2,2.998955944E-2
3.939331125E0,-4.120386690E-3,4.637481552E-3,-1.269722879E-2,1.413164677E-2
3.949330125E0,-1.378901359E-3,1.615088671E-2,-1.015135109E-2,1.912596245E-2
3.959329125E0,-1.607399583E-3,-1.388828835E-2,-2.092835426E-2,2.516871667E-2
3.969327125E0,-2.039307822E-3,-7.303939797E-3,-3.574695289E-2,3.654245413E-2
3.979326125E0,4.020454120E-3,-4.402423482E-3,-4.637426734E-2,4.675594139E-2
3.989325125E0,1.461686969E-2,-3.432352133E-3,-3.020671606E-2,3.373247124E-2
3.999324125E0,1.623024439E-2,-1.454774464E-2,-3.708304167E-3,2.210903044E-2
4.009323125E0,1.694585223E-2,-1.572848020E-2,2.580960989E-3,2.326388525E-2
4.019322125E0,1.123944484E-2,-2.945973426E-3,-3.105456233E-3,1.202695880E-2
4.029320125E0,2.713016700E-3,7.359488346E-3,-2.915070891E-2,3.018751991E-2
4.039319125E0,-5.075639002E-3,7.979494203E-3,-4.277589083E-2,4.380880363E-2
4.049317958E0,-8.943572156E-3,-7.087282185E-3,-3.319990575E-2,3.510627855E-2
4.059316958E0,9.284391738E-3,-6.853229105E-3,-1.149445653E-2,1.628770119E-2
4.069315958E0,1.725717992E-2,-1.114588939E-2,-7.300248742E-3,2.180217284E-2
4.079313958E0,2.208873421E-2,6.919065099E-3,-2.436300874E-2,3.360568160E-2
4.089312958E0,1.278405994E-2,9.069999922E-3,-2.750471771E-2,3.165764652E-2
4.099311958E0,1.296638343E-2,-3.173886929E-3,-3.454008758E-2,3.702996500E-2
4.109310958E0,1.526496045E-2,-9.377106652E-4,-3.753269255E-2,4.052901836E-2
4.119309958E0,8.754962906E-3,8.517438043E-3,-1.582665861E-2,1.999197962E-2
4.129308958E0,3.814723492E-3,2.422393637E-2,-2.358182073E-3,2.463558871E-2
4.139306958E0,-4.180667829E-3,5.858106092E-3,-1.089570165E-2,1.305801305E-2
4.149305958E0,-8.606608082E-3,-4.909230899E-3,-1.224874735E-2,1.575455687E-2
4.159304958E0,6.784597412E-5,-2.604587395E-3,-2.841688335E-2,2.853607783E-2
4.169303958E0,1.147554444E-2,2.079799790E-3,-2.991435528E-2,3.210735646E-2
4.179302958E0,1.848546065E-2,4.661272410E-3,-1.898532450E-2,2.690506017E-2
4.189300958E0,1.731375173E-2,2.380127404E-3,-1.808894634E-2,2.515235546E-2
4.199299958E0,1.973406047E-2,-2.869849987E-3,-1.943497539E-2,2.784577975E-2
4.209298958E0,1.432788933E-2,-4.390692506E-3,-3.484940529E-2,3.793478143E-2
4.219297958E0,1.675830279E-2,9.907229841E-3,-3.904127419E-2,4.362585249E-2
4.229296958E0,2.247253083E-2,2.682958357E-3,-3.769582987E-2,4.396803949E-2
4.239295958E0,2.144585112E-2,-7.769908067E-3,-1.703586280E-2,2.846957364E-2
4.249293958E0,8.842122965E-3,-1.946466828E-2,-5.509831309E-3,2.207747021E-2
4.259292958E0,1.230985075E-3,-1.020342786E-2,-1.478643894E-2,1.800733298E-2
4.269291958E0,-8.615652993E-3,-5.627342071E-3,-4.486743987E-2,4.603241918E-2
4.279290958E0,-1.122340154E-2,-3.546153568E-4,-3.588143885E-2,3.759744869E-2
4.289289958E0,-5.550670456E-3,-1.811134849E-2,4.087203741E-3,1.937875437E-2
4.299287958E0,1.263389613E-2,-2.108964605E-2,-8.934545517E-3,2.615749617E-2
4.309286958E0,3.252703741E-2,2.666180503E-2,8.581958413E-3,4.292446878E-2
4.319285958E0,-1.023927860E-2,-2.777562652E-2,-3.617146075E-2,4.674080474E-2
4.329284958E0,3.203210715E-2,2.792847639E-2,-4.155966997E-2,5.944124704E-2
4.339283958E0,-2.643306926E-4,-3.701852130E-2,-3.318002522E-2,4.971272336E-2
4.349282958E0,1.686881516E-2,2.239401368E-2,-1.446718097E-2,3.154913785E-2
4.359280958E0,-1.350637380E-2,6.963851117E-4,-5.336169004E-3,1.453897469E-2
4.369279958E0,7.447836120E-3,2.250512905E-2,3.502482176E-4,2.370809504E-2
4.379278958E0,6.831667498E-3,-1.611035820E-3,-2.779123127E-2,2.866390854E-2
4.389277958E0,1.774184100E-2,1.191384807E-2,-3.197783768E-2,3.846160164E-2
4.399276958E0,1.313321181E-2,-9.714564085E-3,-4.305538774E-2,4.605019458E-2
4.409274958E0,2.821838865E-2,-3.283083681E-3,-2.943079054E-2,4.090510394E-2
4.419273958E0,2.250317389E-2,3.240362462E-3,1.259490252E-3,2.277013614E-2
4.429272958E0,3.374599915E-2,-5.099429861E-3,5.004631877E-3,3.449410071E-2
4.439271958E0,5.177636370E-3,7.771972865E-3,4.253264666E-3,1.026166365E-2
4.449270958E0,-9.963399656E-3,-6.497407760E-3,-1.191253245E-2,1.683431227E-2
4.459269958E0,-4.972362556E-3,-8.074876908E-3,-3.780926585E-2,3.898036186E-2
4.469267958E0,-1.717767606E-2,-1.093551753E-2,-3.316716135E-2,3.891938707E-2
4.479266958E0,1.400932571E-2,-1.286531797E-2,-6.379312277E-3,2.006173568E-2
4.489265958E0,4.527023993E-3,-8.054959830E-3,4.345416784E-2,4.442567981E-2
4.499264958E0,1.980755266E-2,5.854433309E-3,1.291065216E-2,2.435771892E-2
4.509263958E0,3.707988052E-2,-1.178118937E-2,-7.870820045E-2,8.779917301E-2
4.519261958E0,1.333384439E-2,-1.975883804E-3,-4.039899766E-2,4.258843194E-2
4.529260958E0,5.541241821E-3,-2.417787127E-3,6.442462206E-3,8.834951884E-3
4.539259958E0,-1.134306846E-2,-8.193703294E-3,4.339744985E-2,4.559759456E-2
4.549258958E0,5.069919694E-3,2.678306166E-2,8.722876310E-2,9.138869509E-2
4.559257958E0,-3.283127170E-1,1.043977049E-1,-4.424412668E-2,3.473408465E-1
4.569256958E0,-7.234410921E-2,2.011352649E-1,3.920791984E-2,2.173161888E-1
4.579254958E0,-5.947670817E-2,1.627656713E-1,1.295503253E-1,2.163641129E-1
4.589253958E0,-1.547994795E-1,-8.501942921E-2,4.211047769E-2,1.815612143E-1
4.599252958E0,-9.130911464E-2,-2.197403194E-1,2.793945819E-1,3.669938620E-1
4.609251958E0,-4.619658507E-2,-9.103305297E-2,2.751343006E-1,2.934621348E-1
4.619250958E0,-6.761977823E-2,-2.120817277E-1,1.478924561E-1,2.672513277E-1
4.629248958E0,4.432522025E-1,-1.762223621E-1,-1.289632648E-1,4.941238302E-1
4.639247958E0,5.236903748E-1,2.204299619E-1,-3.037032115E-1,6.442644003E-1
4.649246958E0,4.598163777E-1,5.193807941E-1,5.263663530E-2,6.956709897E-1
4.659245958E0,6.860063039E-3,-4.409827885E-1,-1.512692231E-1,4.662566440E-1
4.669244958E0,3.206512199E-1,3.390380088E-1,-7.533260286E-2,4.726933227E-1
4.679243958E0,-9.791122410E-2,6.868066415E-3,-4.454543370E-1,4.561396107E-1
4.689241958E0,-7.084005551E-1,-8.251798305E-1,-2.464969772E-1,1.115129526E0
4.699240958E0,6.490409374E-5,7.655266826E-1,5.612157583E-2,7.675810949E-1
4.709239958E0,-5.804293435E-2,-2.879982847E-1,3.139878792E-1,4.300004447E-1
4.719238958E0,-1.385287249E-1,-2.995046366E-1,-5.444839507E-1,6.366757476E-1
4.729237958E0,-6.159402151E-3,2.373916747E-1,1.543922210E-1,2.832484834E-1
4.739235958E0,1.004937565E-1,1.886939797E-1,2.146571338E-2,2.148608618E-1
4.749234958E0,-1.817778930E-1,-2.346936232E-1,1.170858157E-1,3.191134397E-1
4.759233958E0,1.090643677E-1,1.764336658E-1,-4.092150486E-1,4.587818988E-1
4.769232958E0,1.377986818E-1,6.554871272E-2,-1.408366209E-1,2.076537123E-1
4.779231958E0,-1.172299313E-1,-3.029088856E-1,7.064956784E-2,3.323973694E-1
4.789230958E0,3.712615757E-1,3.099672606E-1,3.593347907E-2,4.849804895E-1
4.799228958E0,4.516263289E-2,-1.883764393E-1,-3.381503284E-2,1.966438475E-1
4.809227958E0,-1.294835026E-1,-4.290226378E-1,-2.840577364E-2,4.490359553E-1
4.819226958E0,8.286012556E-2,1.083523413E-1,-9.958977699E-3,1.367669971E-1
4.829225958E0,5.557869840E-2,1.046847301E-1,-1.951625168E-2,1.201198090E-1
4.839224958E0,-8.336592799E-2,-7.773639321E-2,-3.732160807E-2,1.199405153E-1
4.849222958E0,-8.303071808E-2,3.136790731E-1,-3.686552525E-2,3.265696373E-1
4.859221958E0,-1.247150068E-1,-2.044773872E-1,-4.465460122E-2,2.436367546E-1
4.869220958E0,-7.562130913E-3,-6.100093111E-2,-2.355375409E-2,6.582612515E-2
4.879219958E0,1.282099607E-1,1.866286335E-1,-8.287843466E-3,2.265761003E-1
4.889218958E0,6.549955957E-2,-1.024368777E-1,-7.541738749E-3,1.218211149E-1
4.899217958E0,6.341011187E-2,1.969989080E-2,8.488987684E-3,6.694020389E-2
4.909215958E0,3.236885196E-2,5.620747508E-2,1.105006814E-2,6.579610048E-2
4.919214958E0,-2.074407561E-2,-2.795895500E-2,-1.454436421E-2,3.773007246E-2
4.929213958E0,-4.423089735E-3,1.595750650E-1,-3.279586315E-2,1.629703462E-1
4.939212958E0,-9.464442126E-2,-3.578881530E-2,-5.196537495E-2,1.137488724E-1
4.949211958E0,-4.449210344E-2,-5.807832828E-2,-3.146211326E-2,7.963983962E-2
4.959209958E0,1.451311816E-2,7.835473627E-2,1.808076024E-2,8.171296828E-2
4.969208958E0,6.426164920E-2,-8.292305622E-2,3.153812706E-2,1.095465484E-1
4.979207958E0,1.494944104E-1,6.647288343E-2,4.575563192E-2,1.698846692E-1
4.989206958E0,6.072545417E-2,-1.394822231E-2,2.584586263E-2,6.745474264E-2
4.999205958E0,-1.234953873E-2,-5.396232700E-2,-7.982677281E-2,9.714297452E-2
5.009204958E0,-2.779706022E-2,1.223195670E-1,-1.449337649E-1,1.916782441E-1
5.019202958E0,-1.290424580E-1,6.486754864E-5,-1.163467276E-1,1.737484423E-1
5.029201958E0,-3.507267756E-2,7.824725714E-2,-1.947122812E-4,8.574825872E-2
5.039200958E0,4.576250240E-3,5.951868022E-2,2.838706255E-2,6.610023208E-2
5.049200333E0,3.162466586E-2,-8.689974759E-2,-7.251716852E-3,9.275922067E-2
5.059199333E0,3.335949820E-2,-1.413641129E-2,-2.207499325E-2,4.242640182E-2
5.069197333E0,-8.662339356E-3,-1.400471189E-1,-2.537399232E-2,1.425905716E-1
5.079196333E0,4.125429913E-2,-6.958732976E-2,-6.061808467E-3,8.112372761E-2
5.089195333E0,5.966648687E-2,-8.288793638E-3,8.308893442E-4,6.024520008E-2
5.099194333E0,3.104049247E-2,-1.011142557E-2,2.389113843E-2,4.045416660E-2
5.109193333E0,-2.432218786E-2,6.181279873E-2,-1.546237707E-2,6.820173029E-2
5.119191333E0,-4.438866254E-2,5.324584208E-3,-7.802816927E-2,8.992830344E-2
5.129190333E0,-5.972614674E-2,-4.330712864E-2,-5.976614535E-2,9.494583785E-2
5.139189333E0,6.901852358E-3,-5.688736008E-2,2.055881023E-3,5.734138078E-2
5.149188333E0,3.161412260E-2,-8.322903005E-2,1.058579922E-2,8.965814707E-2
5.159187333E0,1.009781253E-2,7.747451104E-3,-2.967695832E-2,3.229103082E-2
5.169186333E0,-5.058554169E-3,-2.486711182E-4,-5.646714628E-2,5.669382168E-2
5.179184333E0,-3.938063197E-3,2.793459769E-2,-5.197297633E-2,5.913577900E-2
5.189183333E0,3.524644950E-2,3.342146041E-2,-1.125238180E-2,4.985902441E-2
5.199182333E0,3.377826847E-2,-8.238580674E-3,1.330241561E-2,3.722633333E-2
5.209181333E0,2.513476811E-2,2.010550484E-2,2.977402210E-3,3.232418316E-2
5.219180333E0,1.055603324E-2,-3.334922902E-4,-4.851376355E-2,4.965003835E-2
5.229178333E0,4.176848866E-3,1.185170313E-2,-4.940838754E-2,5.098134652E-2
5.239177333E0,-1.369916746E-2,2.043759014E-2,-3.668075323E-2,4.416831373E-2
5.249176333E0,-3.402567878E-3,9.524931572E-3,-1.646926761E-2,1.932714581E-2
5.259175333E0,1.751568167E-2,4.855670404E-2,-2.005711913E-2,5.537906318E-2
5.269174333E0,3.349206554E-2,5.422667596E-2,-9.129842520E-3,6.438637173E-2
5.279173333E0,2.147300413E-2,4.796703061E-2,-2.664693117E-2,5.892355109E-2
5.289171333E0,-1.466770392E-2,3.718467358E-2,-7.260663092E-2,8.288283502E-2
5.299170333E0,-1.205756167E-2,1.596077912E-2,-4.342434704E-2,4.781009495E-2
5.309169333E0,1.503598714E-2,1.028156128E-2,6.717281342E-3,1.941425456E-2
5.319168333E0,3.424463874E-2,2.919054307E-2,1.030454814E-2,4.616239595E-2
5.329167333E0,1.528524298E-2,1.305783754E-2,-2.608092070E-2,3.292962494E-2
5.339165333E0,-1.680071337E-2,8.615086544E-3,-3.492658854E-2,3.970327786E-2
5.349164333E0,-2.890572885E-2,-8.287130836E-3,-4.929904461E-2,5.774611240E-2
5.359163333E0,-1.437770030E-2,-3.125323975E-2,-1.861519575E-2,3.911532658E-2
5.369162333E0,1.460691115E-2,-5.067586290E-2,2.254978716E-2,5.735763101E-2
5.379161333E0,3.575917723E-2,-4.833651982E-2,2.673931718E-2,6.580371561E-2
5.389160333E0,1.077353138E-2,-3.561427591E-2,-1.906543136E-2,4.180832812E-2
5.399158333E0,-3.136501294E-3,-2.336748373E-2,-4.017037153E-2,4.657827482E-2
5.409157333E0,1.159972468E-2,-3.154081313E-2,-4.720457196E-2,5.794521654E-2
5.419156333E0,2.197482314E-2,-4.064417873E-2,-7.832345366E-3,4.686350126E-2
5.429155333E0,3.484050656E-2,-4.257224327E-2,1.866665125E-2,5.809217385E-2
5.439154333E0,1.411336960E-2,-2.452782713E-2,6.993854642E-3,2.914988007E-2
5.449152333E0,-6.486608684E-3,-4.238385329E-2,-1.799714506E-2,4.650122947E-2
5.459151333E0,-3.106570859E-2,-2.975121796E-2,-3.820336819E-2,5.753008396E-2
5.469150333E0,-2.333070109E-2,3.048226610E-3,-2.637503564E-2,3.534481297E-2
5.479149333E0,7.430513743E-3,3.158145128E-2,-1.828424335E-2,3.724129635E-2
5.489148333E0,1.160928123E-2,2.974178933E-2,-2.336605847E-2,3.956415210E-2
5.499147333E0,3.018144513E-2,2.713981491E-2,-1.707679331E-2,4.403528191E-2
5.509145333E0,2.001202248E-2,3.229013382E-2,-3.353553593E-2,5.067312854E-2
5.519144333E0,3.072587572E-2,4.506520366E-2,-3.233802617E-2,6.340898955E-2
5.529143333E0,1.779103070E-2,4.672038596E-2,-4.041712403E-2,6.428731720E-2
5.539142333E0,9.165857714E-3,3.115314273E-2,-2.948633909E-2,4.386314447E-2
5.549141333E0,-9.209181927E-4,2.558938913E-2,-2.215626955E-2,3.386096878E-2
5.559139333E0,-5.529127121E-3,3.046677098E-2,-2.156219244E-2,3.773226104E-2
5.569138333E0,-2.533671632E-4,2.451682705E-2,-1.783166885E-2,3.031678442E-2
5.579137333E0,4.108217172E-4,3.808900030E-2,-1.784043968E-2,4.206212080E-2
5.589136333E0,6.804331765E-3,3.113974895E-2,-1.830120027E-2,3.675482046E-2
5.599135333E0,1.745605834E-2,1.435235627E-3,-4.993522167E-4,1.752207826E-2
5.609134333E0,6.979766507E-3,-4.244148491E-2,-3.538033247E-2,5.569348891E-2
5.619132333E0,9.740730375E-3,-5.340552589E-2,-2.819702804E-2,6.117274241E-2
5.629131333E0,2.054433838E-2,-3.860781278E-2,2.937641144E-3,4.383221170E-2
5.639130333E0,3.606164273E-2,-3.168914968E-2,-1.577286422E-2,5.053145090E-2
5.649129333E0,2.143273143E-2,-2.588648250E-2,-5.424111128E-2,6.380885601E-2
5.659128333E0,-1.555001222E-2,-2.140535915E-2,-4.406227827E-2,5.139529791E-2
5.669126333E0,-1.014608860E-2,1.416842479E-2,5.426216125E-4,1.743507422E-2
5.679125333E0,2.022431295E-2,2.455445023E-2,1.551090896E-2,3.539113106E-2
5.689124333E0,4.785935048E-2,-3.629485527E-2,-8.888937235E-3,6.071941331E-2
5.699123333E0,-2.600622252E-3,-5.929579167E-2,-1.053258955E-2,6.028009280E-2
5.709122333E0,-1.956478357E-3,-4.464752974E-2,-2.355258465E-2,5.051686810E-2
5.719121333E0,-1.659151096E-2,-6.210071929E-3,-3.133756757E-2,3.599842178E-2
5.729119333E0,1.227058304E-2,2.964092486E-2,-3.403313398E-2,4.676971075E-2
5.739118333E0,1.821261495E-2,-5.909616407E-3,-2.295032144E-3,1.928445182E-2
5.749117333E0,1.950340608E-2,1.080815786E-2,1.147691488E-2,2.507825154E-2
5.759116333E0,2.025853744E-2,3.760452194E-2,-7.533552647E-3,4.337352678E-2
5.769115333E0,1.461661387E-2,3.092099000E-2,-3.073881269E-2,4.598508050E-2
5.779113333E0,7.531853300E-3,2.284686226E-2,-1.966477096E-2,3.107106606E-2
5.789112333E0,-1.335942596E-3,-1.426956335E-2,-2.452906966E-3,1.454035534E-2
5.799111333E0,1.336079640E-2,-6.394113041E-3,-9.595280886E-4,1.484305414E-2
5.809110333E0,3.195598371E-2,-3.439496700E-3,-9.342096448E-3,3.347073048E-2
5.819109333E0,2.716899617E-2,1.454440076E-2,-1.203181565E-2,3.308260168E-2
5.829108333E0,2.677050842E-2,6.495364890E-2,-1.845965981E-2,7.263880276E-2
5.839106333E0,1.916874435E-2,7.347108694E-2,-2.878408849E-2,8.120323347E-2
5.849105333E0,1.924059201E-2,2.452234536E-2,-1.800416172E-2,3.599577256E-2
5.859104333E0,1.301681567E-3,2.377773900E-2,-1.186107695E-2,2.660376652E-2
5.869103333E0,-8.771572653E-3,-2.874737894E-2,-1.500512481E-2,3.359324416E-2
5.879102333E0,8.689309638E-3,4.613325242E-3,-2.413555205E-2,2.606360958E-2
5.889100333E0,8.499147221E-3,-2.456196025E-4,-3.505581200E-2,3.607223014E-2
5.899099333E0,1.265280822E-2,-2.583360175E-2,-3.744498432E-2,4.721859153E-2
5.909098333E0,-1.093926340E-2,-8.358594775E-4,-1.857601941E-2,2.157393432E-2
5.919097333E0,-4.007904533E-2,-3.982059840E-2,2.484364986E-2,6.171885344E-2
5.929096333E0,-9.329197856E-2,-9.782952754E-2,6.257163942E-2,1.489604638E-1
5.939095333E0,-8.116951279E-2,9.658673840E-2,1.343690157E-3,1.261716820E-1
5.949093333E0,-1.003238036E-1,8.350889241E-2,3.963710546E-2,1.364173772E-1
5.959092333E0,-1.423519269E-1,-1.428756912E-1,2.041105109E-1,2.869470942E-1
5.969091333E0,-1.536008186E-1,-1.154772649E-1,4.817392337E-1,5.186529664E-1
5.979090333E0,-9.259193894E-2,-1.465952695E-1,7.128030699E-1,7.335882065E-1
5.989089333E0,5.352268947E-2,2.149589963E-1,8.640711236E-1,8.920151092E-1
5.999087333E0,1.755137161E-1,6.766301109E-2,1.072361809E0,1.088734677E0
6.009086333E0,2.518336396E-1,6.170014847E-2,1.219290059E0,1.246553384E0
6.019085333E0,2.348837857E-1,3.512922745E-1,1.325357966E0,1.391096831E0
6.029084333E0,1.062103783E-1,2.387521208E-1,1.438309801E0,1.461854405E0
6.039083333E0,-7.361010449E-2,8.916254696E-3,1.546604912E0,1.548381317E0
6.049080500E0,-1.938287121E-1,-1.124187691E-1,1.659990610E0,1.675045186E0
6.059079500E0,-2.970459190E-1,-2.165083440E-1,1.772816729E0,1.810522382E0
6.069078500E0,-5.546825912E-1,-4.291544194E-1,1.868750827E0,1.996015016E0
6.079077500E0,-5.800412346E-1,-8.130076817E-1,2.131824076E0,2.354167202E0
6.089076500E0,-2.959498767E-2,1.839772866E-1,2.114499945E0,2.122694873E0
6.099075500E0,2.176673170E-1,8.626122433E-1,2.199051268E0,2.372194221E0
6.109073500E0,1.088026865E0,2.130293859E0,2.405703564E0,3.392545360E0
6.119072500E0,9.261002876E-2,-2.780361275E-1,2.575551730E0,2.592170407E0
6.129071500E0,-2.229574392E-1,-1.874134212E0,3.039080980E0,3.577443538E0
6.139070500E0,8.256936546E-1,-4.628481956E-1,2.880413275E0,3.031959613E0
6.149069500E0,5.552801401E-1,9.708950027E-1,2.871141345E0,3.081302608E0
6.159067500E0,-4.991586373E-1,1.950383914E-1,2.615860680E0,2.670192206E0
6.169066500E0,-5.376110604E-1,6.647423560E-2,2.850599492E0,2.901613678E0
6.179065500E0,-3.225754655E-1,1.034081258E0,2.827648001E0,3.028031076E0
6.189064500E0,-6.360660390E-1,1.082495947E-1,2.869425187E0,2.941071044E0
6.199063500E0,-6.776838887E-2,1.801995468E-1,3.257023664E0,3.262708626E0
6.209062500E0,9.130547840E-2,-5.696704667E-3,2.933765609E0,2.935191611E0
6.219060500E0,-1.920170437E-1,-5.902749949E-1,3.224242419E0,3.283448536E0
6.229059500E0,-1.464897273E-1,-3.653729180E-1,3.399226195E0,3.421943210E0
6.239058500E0,2.594668142E-1,2.223781445E-1,2.917342535E0,2.937288296E0
6.249057500E0,2.173993683E-1,1.104547223E0,3.292873528E0,3.479986081E0
6.259056500E0,1.443411314E-1,1.280817788E-1,3.057703192E0,3.063786565E0
6.269054500E0,-4.569096537E-2,7.515027937E-2,3.216198404E0,3.217400722E0
6.279053500E0,-4.293087493E-1,-3.480142888E-1,3.177765825E0,3.225463624E0
6.289052500E0,1.139200052E-1,2.633712559E-1,2.978888572E0,2.992677616E0
6.299051500E0,-3.773614642E-1,4.018976236E-1,3.139686418E0,3.187719275E0
6.309050500E0,-4.514309954E-1,-1.441318376E-1,2.873441055E0,2.912254698E0
6.319049500E0,-5.089565608E-1,-5.970442799E-1,3.198474324E0,3.293286604E0
6.329047500E0,-6.168729191E-1,-5.715212566E-1,3.058718269E0,3.172211562E0
6.339046500E0,2.153097562E-1,8.455940683E-1,2.868195518E0,2.997988183E0
6.349045500E0,5.172091017E-1,5.025154142E-1,3.102492279E0,3.185197849E0
6.359044500E0,5.578061007E-1,3.070966797E-2,3.045553848E0,3.096367060E0
6.369043500E0,3.592514679E-1,1.634538155E-1,3.056291674E0,3.081671229E0
6.379041500E0,1.145849250E-1,-6.805260010E-2,2.780636972E0,2.783828807E0
6.389040500E0,-8.000588764E-1,-2.966711490E-1,3.030687886E0,3.148519818E0
6.399039500E0,1.261184117E-2,-3.106706075E-1,2.696507233E0,2.714374061E0
6.409038500E0,-2.628829768E-1,7.890321971E-1,2.798029515E0,2.919014976E0
6.419037500E0,3.604265755E-2,2.615895910E-1,2.613151665E0,2.626459559E0
6.429036500E0,-4.173403760E-1,3.943273797E-1,2.615646672E0,2.677923559E0
6.439034500E0,-5.480888688E-1,-2.661432929E-1,2.737573398E0,2.804557321E0
6.449033500E0,-1.542619742E-1,-1.361957041E-1,2.482425465E0,2.490940027E0
6.459032500E0,1.098222034E-1,2.187999227E-1,2.808548071E0,2.819197863E0
6.469031500E0,5.501407299E-1,-4.525579731E-1,2.426569937E0,2.528973152E0
6.479030500E0,4.054910300E-1,1.706885572E-1,2.586286633E0,2.623439747E0
6.489028500E0,3.629144561E-1,2.848088112E-1,2.356986317E0,2.401709279E0
6.499027500E0,6.096069496E-2,7.286795761E-1,2.058299432E0,2.184327512E0
6.509026500E0,-4.910697454E-1,-8.272627914E-2,2.261266227E0,2.315452026E0
6.519025500E0,-6.569268214E-2,-3.416315048E-1,1.551096159E0,1.589631060E0
6.529024500E0,-5.936393366E-1,-9.132877590E-2,2.054291750E0,2.140295120E0
6.539023500E0,-4.138135913E-1,-5.396182633E-1,1.353612882E0,1.514825862E0
6.549021500E0,-3.198878659E-1,5.964826914E-2,1.285303370E0,1.325854787E0
6.559020500E0,-3.040033930E-1,2.063996411E-1,1.063296286E0,1.124996829E0
6.569019500E0,2.508789537E-1,3.029236681E-1,4.062744838E-1,5.654749811E-1
6.579018500E0,6.600593575E-1,4.114656419E-1,8.250877368E-1,1.133910095E0
6.589017500E0,7.157015347E-1,-1.200917596E-2,-1.793516457E-2,7.160269389E-1
6.599015500E0,1.004623460E-1,-1.653586922E-1,-3.195737243E-2,1.961057207E-1
6.609014500E0,-1.530622535E-1,-5.072642304E-1,-3.063841599E-1,6.120590710E-1
6.619013500E0,2.092977952E-2,-4.951462414E-2,-8.490765238E-1,8.507765258E-1
6.629012500E0,1.039335090E-1,3.094800048E-1,-9.463133812E-1,1.001043987E0
6.639011500E0,1.519007407E-1,3.932860637E-1,-1.398671526E0,1.460831886E0
6.649009500E0,-2.215953120E-1,4.067250118E-3,-1.145846107E0,1.167083684E0
6.659008500E0,-6.373011902E-2,-1.815439496E-1,-1.754120842E0,1.764641511E0
6.669007500E0,-3.295799913E-1,-7.607918266E-2,-1.547619989E0,1.584152342E0
6.679006500E0,1.456125353E-1,-6.454067102E-2,-1.600724986E0,1.608629538E0
6.689005500E0,3.269959605E-1,2.502114940E-3,-2.171775177E0,2.196255913E0
6.699004500E0,1.332810681E-2,-3.105090782E-1,-1.862727025E0,1.888477031E0
6.709002500E0,9.134617137E-2,1.883441152E-1,-2.406835000E0,2.415920600E0
6.719001500E0,3.225339868E-1,3.646917539E-2,-2.307040570E0,2.329762728E0
6.729000500E0,-7.521620672E-2,9.010637892E-2,-2.632303051E0,2.634918592E0
6.738999500E0,2.428179274E-1,-3.295136985E-1,-2.734705923E0,2.765168405E0
6.748998500E0,-5.223518740E-2,-2.716993538E-1,-2.687501351E0,2.701705492E0
6.758996500E0,1.696132908E-2,-7.393018473E-3,-3.320688733E0,3.320740280E0
6.768995500E0,-2.283109854E-1,-7.965369523E-4,-2.951120145E0,2.959938623E0
6.778994500E0,6.054472039E-2,1.096412321E-1,-3.467372569E0,3.469633900E0
6.788993500E0,1.099247307E-2,-1.444193013E-1,-3.415911224E0,3.418980442E0
6.798992500E0,-1.992585645E-1,-7.441382255E-2,-3.407055616E0,3.413688528E0
6.808991500E0,2.285563491E-1,-4.187093553E-1,-3.881699839E0,3.910901324E0
6.818989500E0,5.971028617E-2,-3.216222597E-1,-3.580630798E0,3.595542116E0
6.828988500E0,3.787022308E-1,-2.040811652E-1,-4.194287894E0,4.216291670E0
6.838987500E0,2.807593769E-1,-9.893909153E-3,-3.898011231E0,3.908121707E0
6.848986500E0,3.477710812E-1,-1.198496483E-1,-4.268570337E0,4.284390434E0
6.858985500E0,2.016464577E-1,2.990162297E-1,-4.275595767E0,4.290779785E0
6.868983500E0,1.086081387E-1,-9.194488971E-2,-4.141278207E0,4.143722333E0
6.878982500E0,-9.768765947E-2,-3.276264366E-1,-4.391681124E0,4.404968224E0
6.888981500E0,-2.384670690E-1,-3.124062073E-1,-4.266556556E0,4.284620057E0
6.898980500E0,-4.275056507E-2,-2.169312073E-1,-4.379104933E0,4.384683201E0
6.908979500E0,2.374307414E-1,-3.269540433E-1,-4.415174652E0,4.433626000E0
6.918977500E0,3.292274773E-1,1.464288980E-3,-4.340333215E0,4.352802005E0
6.928976500E0,4.614109500E-1,4.369841700E-2,-4.515766057E0,4.539488154E0
6.938975500E0,1.731507831E-1,-2.364621319E-2,-4.452906150E0,4.456334089E0
6.948974500E0,1.529545734E-1,-5.609681653E-2,-4.739592209E0,4.742391408E0
6.958973500E0,-9.378595864E-2,-2.308572468E-1,-4.443716081E0,4.450696966E0
6.968972500E0,5.481269488E-2,-3.254417341E-1,-4.598815815E0,4.610642434E0
6.978970500E0,-5.764649313E-2,-2.557140894E-1,-4.546347579E0,4.553898234E0
6.988969500E0,-5.067054559E-2,-1.191585805E-1,-4.394011824E0,4.395919265E0
6.998968500E0,1.757811897E-1,-1.350453558E-1,-4.594666631E0,4.600010622E0
7.008967500E0,1.606736289E-1,2.977796897E-2,-4.221424237E0,4.224585818E0
7.018966500E0,2.232911142E-1,-1.114237558E-1,-4.376850831E0,4.383959098E0
7.028964500E0,3.968140178E-1,-2.314172821E-1,-4.088740389E0,4.114463913E0
7.038963500E0,1.734045888E-1,-2.983806373E-1,-4.082912470E0,4.097471707E0
7.048962958E0,-9.372154791E-2,-2.912710261E-1,-4.261213371E0,4.272184679E0
7.058961958E0,-1.140231355E-1,-1.722149180E-1,-4.011258350E0,4.016572270E0
7.068960958E0,9.188548565E-2,-2.212597366E-2,-4.172660798E0,4.173731021E0
7.078959958E0,1.738515354E-1,1.467362605E-1,-3.848778260E0,3.855496075E0
7.088957958E0,2.829043000E-1,4.884305315E-2,-3.813927101E0,3.824717038E0
7.098956958E0,2.642257351E-1,-1.068361034E-1,-3.858554220E0,3.869065761E0
7.108955958E0,1.243483681E-1,-2.338862872E-1,-3.728177683E0,3.737575973E0
7.118954958E0,1.033424469E-1,-4.504196464E-1,-3.902836939E0,3.930100977E0
7.128953958E0,8.051950341E-2,-3.242188620E-1,-3.951313280E0,3.965410180E0
7.138951958E0,7.024868639E-2,-3.872408101E-2,-3.927782330E0,3.928601337E0
7.148950958E0,1.094883822E-1,1.200868260E-1,-4.065952036E0,4.069198264E0
7.158949958E0,-1.454186087E-2,3.508102812E-1,-3.898936846E0,3.914714274E0
7.168948958E0,1.936225430E-1,-4.726737471E-2,-3.933538329E0,3.938584477E0
7.178947958E0,9.100416407E-2,-3.733666465E-1,-3.763652741E0,3.783221691E0
7.188945958E0,9.503819469E-2,-4.740168891E-1,-3.785496769E0,3.816242924E0
7.198944958E0,-3.736619309E-2,-3.061274672E-1,-3.632795563E0,3.645862567E0
7.208943958E0,1.817168444E-2,7.454432510E-3,-3.527270277E0,3.527324962E0
7.218942958E0,-2.684542587E-2,3.228499192E-1,-3.431192338E0,3.446452322E0
7.228941958E0,3.690788101E-2,-8.322177585E-2,-3.177201569E0,3.178505603E0
7.238940958E0,3.889788950E-2,-1.470190282E-1,-3.122602608E0,3.126303678E0
7.248938958E0,3.425848933E-2,-7.628721563E-2,-2.915003064E0,2.916202367E0
7.258937958E0,1.690166738E-1,-7.720612384E-2,-2.727913213E0,2.734234430E0
7.268936958E0,1.714615591E-1,3.721113224E-3,-2.647225730E0,2.652775335E0
7.278935958E0,2.325831804E-1,-7.192261633E-2,-2.471042690E0,2.483006197E0
7.288934958E0,1.299559576E-1,-1.088934280E-1,-2.357828316E0,2.363916390E0
7.298932958E0,1.149281383E-1,-2.489619623E-1,-2.286815636E0,2.303196971E0
7.308931958E0,-1.118228282E-1,1.304203179E-1,-2.112860386E0,2.119833204E0
7.318930958E0,-4.821948415E-2,2.924526022E-1,-2.139359382E0,2.159794483E0
7.328929958E0,-1.009331382E-1,-2.574098185E-1,-1.709146982E0,1.731366720E0
7.338928958E0,5.502816478E-2,-2.048651307E-1,-1.662110810E0,1.675592482E0
7.348927958E0,6.535880612E-2,-7.781025086E-2,-1.469568431E0,1.473077588E0
7.358925958E0,-3.169940058E-2,-4.719594001E-1,-1.288367895E0,1.372458510E0
7.368924958E0,1.143093750E-1,-9.257039560E-2,-1.266163679E0,1.274678929E0
7.378923958E0,3.336132545E-2,2.837569702E-1,-9.155459172E-1,9.590908834E-1
7.388922958E0,1.936077605E-1,-1.773451371E-2,-1.069248751E0,1.086780277E0
7.398921958E0,1.125796772E-1,3.056430984E-1,-7.707589173E-1,8.367563540E-1
7.408919958E0,1.616696838E-1,9.314486627E-2,-5.888432676E-1,6.176968889E-1
7.418918958E0,-4.270453652E-2,-1.960304264E-1,-4.584585446E-1,5.004356528E-1
7.428917958E0,-2.539653334E-1,-1.881030089E-1,-8.783687353E-3,3.161618030E-1
7.438916958E0,-5.271756442E-2,-2.284164728E-1,-6.488713682E-2,2.432356207E-1
7.448915958E0,-7.459665768E-2,4.401763843E-2,2.503514618E-1,2.649114347E-1
7.458913958E0,5.997565839E-2,1.252574275E-1,2.931653595E-1,3.243954851E-1
7.468912958E0,1.059086620E-1,1.733530968E-1,3.673729581E-1,4.197985602E-1
7.478911958E0,-3.654624900E-2,1.972165158E-1,5.999582398E-1,6.325977173E-1
7.488910958E0,2.807324979E-2,-1.204254712E-1,4.346656394E-1,4.519121812E-1
7.498909958E0,-3.893469041E-2,-5.615373552E-3,7.565922832E-1,7.576142327E-1
7.508908958E0,1.094706944E-1,-2.230130973E-1,7.257704401E-1,7.671123818E-1
7.518906958E0,1.137654377E-2,-1.317760496E-1,7.661670989E-1,7.775000813E-1
7.528905958E0,-1.796586611E-1,4.851032831E-3,8.888913846E-1,9.068785258E-1
7.538904958E0,-6.508747704E-2,2.897961573E-1,6.105732751E-1,6.789830018E-1
7.548903958E0,-2.089155518E-1,1.097893859E-1,1.004947506E0,1.032288189E0
7.558902958E0,3.067764715E-1,-1.161365202E-1,8.791879302E-1,9.383873995E-1
7.568900958E0,1.045875567E-1,1.001833242E-1,9.950236112E-1,1.005508450E0
7.578899958E0,3.039687848E-2,-1.896252402E-1,1.029904007E0,1.047656416E0
7.588898958E0,-7.986932958E-2,-6.161974926E-2,7.339629740E-1,7.408628419E-1
7.598897958E0,-6.213830592E-2,1.085079686E-1,6.939826369E-1,7.051574637E-1
7.608896958E0,8.227507509E-2,2.749492362E-2,6.351520461E-1,6.410485789E-1
7.618895958E0,9.188753217E-3,9.953397263E-2,7.502562404E-1,7.568856394E-1
7.628893958E0,1.394277526E-1,3.537517961E-2,8.291369337E-1,8.415221663E-1
7.638892958E0,1.309537301E-1,3.426031658E-2,8.878102344E-1,8.980699645E-1
7.648891958E0,1.646347338E-1,-2.873358317E-2,9.010038918E-1,9.163723192E-1
7.658890958E0,-1.572626922E-2,7.067767102E-3,8.336580008E-1,8.338362736E-1
7.668889958E0,-7.907253681E-2,-5.882514562E-2,7.594129801E-1,7.657812600E-1
7.678887958E0,-9.955511397E-2,8.121311110E-2,6.297784549E-1,6.427501010E-1
7.688886958E0,-2.905099561E-1,1.558787111E-1,7.416748667E-1,8.116500570E-1
7.698885958E0,-2.358836961E-1,1.783567054E-1,8.538659781E-1,9.036256642E-1
7.708884958E0,-1.763377532E-1,8.696953045E-2,9.048303097E-1,9.259463224E-1
7.718883958E0,-7.822428854E-2,-3.690711357E-2,1.044430829E0,1.048006170E0
7.728881958E0,2.259450009E-1,-3.608529106E-1,9.942535329E-1,1.081575727E0
7.738880958E0,4.749384468E-2,-2.474357294E-1,1.459056306E0,1.480650334E0
7.748879958E0,4.215767203E-1,-4.589185378E-2,1.087294428E0,1.167065622E0
7.758878958E0,2.502635160E-1,5.919286240E-1,1.246152753E0,1.402108415E0
7.768877958E0,1.362130813E-2,2.947296541E-1,1.035750638E0,1.076954267E0
7.778876958E0,-3.469162183E-1,3.619477287E-1,9.205663365E-1,1.048236329E0
7.788874958E0,-1.056359368E0,-3.993547792E-2,1.211227334E0,1.607657181E0
7.798873958E0,1.539515419E-1,-2.157275215E-1,1.224106411E0,1.252467942E0
7.808872958E0,2.316507139E-1,-3.079872106E-1,1.460836199E0,1.510814540E0
7.818871958E0,7.655662609E-2,-4.536659108E-2,1.092644631E0,1.096262438E0
7.828870958E0,-1.900260668E-1,2.359324472E-1,1.182893481E0,1.221069618E0
7.838868958E0,-1.375428478E-1,6.266012241E-1,1.395278386E0,1.535691670E0
7.848867958E0,4.604741164E-1,1.913152317E-2,1.406343657E0,1.479934090E0
7.858866958E0,-1.884748370E-1,-4.263966532E-1,1.538961432E0,1.608023370E0
7.868865958E0,-3.374844767E-1,-3.457169909E-2,1.360069377E0,1.401741662E0
7.878864958E0,-2.089950556E-1,8.747814685E-2,1.685918334E0,1.701073775E0
7.888863958E0,3.560033396E-1,-3.214675643E-1,1.658370931E0,1.726346987E0
7.898861958E0,3.864782967E-2,3.760641863E-1,1.860420299E0,1.898441891E0
7.908860958E0,-5.788845822E-1,2.015520252E-1,1.909963172E0,2.005913731E0
7.918859958E0,7.383431963E-1,4.734718921E-1,2.066269187E0,2.244725965E0
7.928858958E0,6.119997764E-1,-4.390094994E-2,2.276733867E0,2.357962706E0
7.938857958E0,-1.010233535E0,4.192826383E-2,2.075125380E0,2.308349002E0
7.948855958E0,2.190073526E-1,-3.280419543E-1,2.332934965E0,2.366043384E0
7.958854958E0,2.809597536E-1,1.542303627E-2,2.495250163E0,2.511065437E0
7.968853958E0,-3.143745994E-1,-1.158907544E-1,2.486864671E0,2.509334164E0
7.978852958E0,-3.257601881E-1,1.217609752E-1,2.693897036E0,2.716252322E0
7.988851958E0,4.111577129E-1,3.025297302E-1,2.775185028E0,2.821741810E0
7.998849958E0,2.160469439E-1,2.734397775E-1,2.823654352E0,2.845078118E0
8.008848958E0,-5.228549904E-1,4.162468370E-1,2.818499447E0,2.896649427E0
8.018847958E0,1.112625005E-1,-6.348170372E-2,3.103592725E0,3.106235193E0
8.028846958E0,-2.062711850E-1,-2.607892168E-1,3.152364351E0,3.169851703E0
8.038845958E0,1.639538986E-1,-1.683002254E-1,3.284672808E0,3.293065639E0
8.048845208E0,-4.110102899E-1,-3.570128979E-2,3.398283039E0,3.423234092E0
8.058843208E0,-1.522548261E-1,3.355198123E-2,3.419403766E0,3.422956235E0
8.068842208E0,-2.578986823E-1,3.406202654E-1,3.479142430E0,3.505276871E0
8.078841208E0,-1.083974745E-1,9.700967481E-2,3.453533379E0,3.456595680E0
8.088840208E0,1.001495383E-1,3.872231589E-1,3.594065945E0,3.616252442E0
8.098839208E0,-7.865621505E-2,1.129079801E-1,3.586725935E0,3.589364560E0
8.108837208E0,1.638780493E-1,-3.218603510E-2,3.637504326E0,3.641336248E0
8.118836208E0,-3.929425763E-2,-7.514616804E-2,3.571840094E0,3.572846574E0
8.128835208E0,-2.437277541E-1,-3.027308561E-1,3.555439823E0,3.576618728E0
8.138834208E0,-2.230143582E-1,1.817879977E-1,3.384992318E0,3.397198150E0
8.148833208E0,-2.981011221E-1,2.360541241E-1,3.388894165E0,3.410159745E0
8.158831208E0,-2.797083216E-1,1.463565387E-1,3.317765710E0,3.332750559E0
8.168830208E0,-1.012305971E-1,4.539314110E-1,3.398239769E0,3.429917621E0
8.178829208E0,8.993293589E-2,2.307078870E-1,3.491144425E0,3.499914778E0
8.188828208E0,2.259067930E-1,1.944653825E-1,3.445019249E0,3.457890728E0
8.198827208E0,5.273591006E-2,-5.352502470E-1,3.662542688E0,3.701822908E0
8.208826208E0,1.066979995E-1,-1.324581456E-1,3.451101522E0,3.455290341E0
8.218824208E0,-2.186977426E-2,4.178342830E-1,3.452463924E0,3.477724963E0
8.228823208E0,-7.428492799E-1,6.942267582E-1,2.889585802E0,3.063246962E0
8.238822208E0,9.172965735E-3,1.488589277E-1,3.710913779E0,3.713909557E0
8.248821208E0,2.877103093E-1,-2.969537522E-1,3.413814413E0,3.438762510E0
8.258820208E0,6.615632979E-2,3.958540877E-1,3.640467110E0,3.662523433E0
8.268818208E0,1.165916163E-1,2.502140157E-1,3.337973687E0,3.349368447E0
8.278817208E0,-2.219525952E-1,4.339960601E-1,3.298880373E0,3.334700473E0
8.288816208E0,-3.991012658E-1,-4.935191075E-1,3.545113640E0,3.601482147E0
8.298815208E0,-9.879420849E-2,5.303950846E-2,3.246199299E0,3.248135368E0
8.308814208E0,-1.982078747E-1,-1.167140424E-1,3.489307814E0,3.496881118E0
8.318812208E0,1.314015720E-1,1.762407260E-1,3.332303057E0,3.339546501E0
8.328811208E0,2.919920426E-2,1.916348185E-1,3.390516182E0,3.396053074E0
8.338810208E0,-1.999085921E-1,3.408571507E-1,3.468775901E0,3.491210864E0
8.348809208E0,3.355201777E-2,2.613399149E-1,3.217384804E0,3.228155707E0
8.358808208E0,-3.816433802E-2,7.813250553E-2,3.760004078E0,3.761009422E0
8.368807208E0,2.367802570E-1,-4.725073573E-1,3.464569414E0,3.504649671E0
8.378805208E0,1.774426212E-1,1.568957977E-1,3.714741367E0,3.722284997E0
8.388804208E0,1.171676584E-1,5.171932411E-1,3.600256977E0,3.639102556E0
8.398803208E0,-1.609620611E-1,4.061243931E-1,3.357754233E0,3.386053646E0
8.408802208E0,-3.770717347E-1,-3.779683321E-1,3.796651502E0,3.834006492E0
8.418801208E0,-2.020885072E-1,-6.188912317E-3,3.336413065E0,3.342533502E0
8.428799208E0,-1.800845942E-1,2.190516270E-1,3.360375540E0,3.372319357E0
8.438798208E0,-1.467627374E-1,1.290287171E-1,3.260272377E0,3.266123648E0
8.448797208E0,-1.050299533E-1,2.161754730E-1,2.871055976E0,2.881097975E0
8.458796208E0,-2.353882907E-1,1.174672734E-2,3.187640018E0,3.196340802E0
8.468795208E0,1.928320359E-2,8.475411180E-3,2.661629761E0,2.661713106E0
8.478794208E0,3.806016622E-2,-4.042054100E-2,2.915946804E0,2.916475298E0
8.488792208E0,1.624452074E-1,8.853634670E-2,2.446112502E0,2.453098755E0
8.498791208E0,1.203172611E-1,1.190525632E-1,2.162164693E0,2.168779822E0
8.508790208E0,-2.451627888E-1,1.316209522E-1,2.014917185E0,2.034040346E0
8.518789208E0,1.898217980E-1,-8.820592420E-2,1.194196733E0,1.212401929E0
8.528788208E0,-5.873354899E-1,1.380750541E-1,1.456311623E0,1.576347437E0
8.538786208E0,-1.142122015E-2,-1.846030484E-1,4.120579648E-1,4.516641408E-1
8.548785208E0,-3.456939309E-1,3.754348066E-1,5.431244731E-1,7.452783247E-1
8.558784208E0,-4.445784241E-2,-7.988504397E-2,1.419581169E-1,1.688497171E-1
8.568783208E0,2.324084035E-1,7.623508405E-2,-3.483098656E-1,4.256115794E-1
8.578782208E0,3.257709689E-1,-1.449310971E-1,4.299516141E-2,3.591383173E-1
8.588780208E0,6.075227827E-1,-3.598644754E-1,-8.264442909E-1,1.087012667E0
8.598779208E0,-1.032886891E-1,-4.568139056E-2,-7.651888597E-1,7.734787222E-1
8.608778208E0,-3.247455865E-2,-6.626678735E-2,-1.192325624E0,1.194607165E0
8.618777208E0,-3.715795912E-1,2.284529631E-1,-1.489422652E0,1.551980020E0
8.628776208E0,8.502600733E-3,-1.756798866E-1,-1.561087296E0,1.570964437E0
8.638775208E0,-1.875818576E-1,2.694169297E-1,-2.115387552E0,2.140709446E0
8.648773208E0,6.578082891E-2,6.355557963E-3,-1.901672990E0,1.902820977E0
8.658772208E0,2.887403511E-1,-1.874425476E-2,-2.424174333E0,2.441381481E0
8.668771208E0,4.740351617E-1,-4.352564275E-1,-2.555110449E0,2.634909277E0
8.678770208E0,1.660518248E-1,-2.198992357E-1,-2.633591777E0,2.647968000E0
8.688769208E0,2.028758531E-1,-1.022560525E-1,-3.164164617E0,3.172310299E0
8.698767208E0,-2.979976081E-1,8.656932509E-2,-2.966936864E0,2.983121046E0
8.708766208E0,-2.741194798E-2,-1.713446513E-1,-3.643059765E0,3.647189995E0
8.718765208E0,-4.234757497E-1,2.302724339E-1,-3.242645946E0,3.278278486E0
8.728764208E0,3.910864142E-1,-3.198195631E-1,-3.521316057E0,3.557372614E0
8.738763208E0,2.840164587E-1,-3.845827390E-1,-3.555823401E0,3.587819573E0
8.748761208E0,6.129560155E-1,2.790921164E-1,-3.685112940E0,3.746153343E0
8.758760208E0,3.128318846E-2,2.951303346E-1,-4.026672780E0,4.037595105E0
8.768759208E0,-1.379948010E-1,-4.883274378E-1,-4.071862401E0,4.103360777E0
8.778758208E0,1.210509953E-1,-2.770761061E-1,-4.080366592E0,4.091554232E0
8.788757208E0,-1.723941900E-1,1.218683082E-1,-4.346209082E0,4.351333707E0
8.798756208E0,3.066630721E-2,-3.543835147E-1,-4.323010254E0,4.337619826E0
8.808754208E0,3.072803554E-1,-1.119446148E-1,-4.471508482E0,4.483451897E0
8.818753208E0,3.415537003E-1,-9.638639817E-2,-4.647079902E0,4.660611643E0
8.828752208E0,1.484538436E-1,-7.569640931E-2,-4.657120741E0,4.660101081E0
8.838751208E0,2.134193148E-1,-2.375828421E-1,-4.874157107E0,4.884608573E0
8.848750208E0,-2.355626108E-1,-2.185968050E-1,-5.134329552E0,5.144376955E0
8.858748208E0,2.236116512E-1,-2.734418606E-1,-5.111877998E0,5.124067651E0
8.868747208E0,5.854649656E-1,-2.317941717E-1,-5.269491450E0,5.306980112E0
8.878746208E0,-2.348974535E-2,-5.348665601E-2,-5.507342734E0,5.507652547E0
8.888745208E0,1.179903799E-1,-2.246259239E-1,-5.573517428E0,5.579289834E0
8.898744208E0,1.734127932E-1,-2.161222268E-1,-5.578452478E0,5.585330148E0
8.908743208E0,2.353109065E-1,-1.512851385E-1,-5.600018764E0,5.607001745E0
8.918741208E0,1.070998311E-1,-1.899690016E-1,-5.484613438E0,5.488947363E0
8.928740208E0,1.564658081E-1,-2.338983471E-1,-5.293782538E0,5.301256789E0
8.938739208E0,1.954451932E-2,-1.515445173E-1,-5.046211427E0,5.048524289E0
8.948738208E0,2.598305475E-1,-1.560665894E-1,-4.829332936E0,4.838835119E0
8.958737208E0,2.572054949E-1,-1.105066565E-1,-4.511412220E0,4.520089226E0
8.968735208E0,2.602358144E-3,-1.294707301E-1,-4.243802701E0,4.245777998E0
8.978734208E0,1.069265891E-1,-1.441220252E-1,-3.835638397E0,3.839834159E0
8.988733208E0,3.522022840E-2,-1.378885462E-1,-3.562633068E0,3.565474455E0
8.998732208E0,1.200541730E-1,-9.440835821E-2,-3.177081701E0,3.180750553E0
9.008731208E0,1.567265939E-1,-2.773422092E-2,-2.805589380E0,2.810100386E0
9.018729208E0,1.071918882E-1,-6.900485571E-2,-2.533041887E0,2.536247814E0
9.028728208E0,4.891709352E-2,-9.927713368E-2,-2.140301954E0,2.143161516E0
9.038727208E0,6.032016903E-2,-1.343823729E-1,-1.783327099E0,1.789400091E0
9.048725625E0,-1.132709825E-2,-1.181131715E-1,-1.580529288E0,1.584976926E0
9.058724625E0,-5.521702984E-2,-7.037248291E-2,-1.284782383E0,1.287892456E0
9.068723625E0,2.818591833E-2,-5.060050691E-2,-1.076306925E0,1.077864303E0
9.078721625E0,1.484335793E-2,1.753567183E-2,-8.911870015E-1,8.914830883E-1
9.088720625E0,3.550158910E-2,2.607680937E-2,-8.148931164E-1,8.160828107E-1
9.098719625E0,6.818856614E-2,-5.793443196E-2,-7.040228909E-1,7.096860643E-1
9.108718625E0,2.470616721E-2,-8.599613350E-2,-6.497291547E-1,6.558610403E-1
9.118717625E0,6.539562531E-4,-8.167460259E-2,-6.864379746E-1,6.912801612E-1
9.128715625E0,1.822586255E-2,-6.851939064E-2,-6.867759436E-1,6.904261624E-1
9.138714625E0,3.627685681E-2,-4.721718002E-3,-7.592574441E-1,7.601382581E-1
9.148713625E0,-5.051767744E-2,1.116371609E-1,-8.809935504E-1,8.894742983E-1
9.158712625E0,-2.712070182E-2,-2.371641632E-2,-9.810283005E-1,9.816896288E-1
9.168711625E0,-6.259638045E-2,-1.041221183E-1,-1.141230900E0,1.147679262E0
9.178709625E0,-3.542700056E-3,-1.572502486E-1,-1.315035292E0,1.324408551E0
9.188708625E0,9.825414503E-2,-1.489405329E-1,-1.565331790E0,1.575468429E0
9.198707625E0,1.241352919E-1,7.635928256E-2,-1.930872231E0,1.936364604E0
9.208706625E0,1.775728131E-1,3.196397978E-1,-2.292676885E0,2.321652214E0
9.218705625E0,1.413462789E-1,-1.664123239E-1,-2.495351905E0,2.504885818E0
9.228704625E0,1.328996652E-1,-3.117584089E-1,-2.866119756E0,2.886086985E0
9.238702625E0,1.216595078E-1,3.150788234E-1,-3.216097248E0,3.233783729E0
9.248701625E0,6.865055099E-2,-8.332843272E-2,-3.471460358E0,3.473138860E0
9.258700625E0,-1.260259526E-2,-4.594824652E-1,-3.674143564E0,3.702784612E0
9.268699625E0,-3.877032883E-3,1.128935082E-1,-3.950179505E0,3.951794288E0
9.278698625E0,6.256429385E-3,-3.644410545E-2,-4.015011093E0,4.015181365E0
9.288696625E0,2.719925551E-2,-4.590693594E-1,-4.000795927E0,4.027139497E0
9.298695625E0,1.017389759E-1,-2.597565254E-2,-4.036587319E0,4.037952790E0
9.308694625E0,1.555117435E-1,1.464493450E-1,-3.989157629E0,3.994872952E0
9.318693625E0,1.510203327E-1,-2.995397199E-1,-3.808780966E0,3.823525027E0
9.328692625E0,1.907197293E-1,-2.394564728E-1,-3.538295787E0,3.551513831E0
9.338690625E0,2.109247647E-1,2.174090345E-1,-3.354777415E0,3.368425070E0
9.348689625E0,1.756007300E-1,-1.376402222E-1,-3.122894384E0,3.130854481E0
9.358688625E0,1.034589161E-1,-3.205012389E-1,-2.824082369E0,2.844093180E0
9.368687625E0,1.422645475E-1,8.712923253E-2,-2.694878783E0,2.700037474E0
9.378686625E0,5.849887099E-2,1.100620123E-1,-2.339801935E0,2.343119472E0
9.388685625E0,7.768605234E-2,-2.784162514E-1,-2.135907186E0,2.155377053E0
9.398683625E0,-2.837388804E-2,-6.868397148E-2,-1.852232442E0,1.853722629E0
9.408682625E0,-2.702491712E-3,-3.173828457E-2,-1.555092731E0,1.555418922E0
9.418681625E0,9.746418620E-2,-2.084997234E-1,-1.323069951E0,1.342939126E0
9.428680625E0,-2.515063234E-1,3.653645491E-2,-1.103039226E0,1.131938990E0
9.438679625E0,-2.008647764E-1,-6.795440342E-2,-9.389891589E-1,9.626344580E-1
9.448677625E0,-2.018113492E-2,-2.297899107E-1,-7.294547707E-1,7.650587845E-1
9.458676625E0,-2.121323792E-1,5.764983701E-2,-6.541847330E-1,6.901313751E-1
9.468675625E0,-6.336898036E-2,-1.238873700E-1,-5.224960810E-1,5.407086672E-1
9.478674625E0,4.825010894E-2,4.818736101E-2,-2.510075194E-1,2.601054970E-1
9.488673625E0,3.548479298E-1,3.087862692E-1,-1.346046585E-1,4.892692790E-1
9.498672625E0,3.537049453E-1,-6.531743707E-2,9.633112371E-2,3.723617076E-1
9.508670625E0,3.389191642E-1,-6.511744402E-2,1.271593988E-1,3.677988500E-1
9.518669625E0,1.856321949E-1,-1.049573017E-1,1.524392509E-1,2.621317840E-1
9.528668625E0,-1.060239252E-1,-3.203835636E-2,2.173983085E-1,2.439867897E-1
9.538667625E0,4.605559409E-3,-1.114883127E-2,2.461063832E-1,2.464018252E-1
9.548666625E0,-2.971800212E-1,9.446785362E-2,5.626553428E-1,6.432893402E-1
9.558664625E0,-1.172078215E-1,-7.318362320E-2,4.268648690E-1,4.486726340E-1
9.568663625E0,7.141513282E-2,-1.090713661E-1,5.520063937E-1,5.671928620E-1
9.578662625E0,1.004503044E-1,-5.325305974E-2,5.842087644E-1,5.951689109E-1
9.588661625E0,-4.395978754E-2,1.826083438E-1,6.674456334E-1,6.933699905E-1
9.598660625E0,1.963029066E-1,1.229355529E-1,9.593403929E-1,9.869052492E-1
9.608658625E0,-8.601720175E-2,1.864985512E-1,9.210440540E-1,9.436645686E-1
9.618657625E0,-8.131044896E-2,1.240157164E-1,1.006383582E0,1.017250805E0
9.628656625E0,1.586116814E-1,-1.037721807E-2,9.974361724E-1,1.010021916E0
9.638655625E0,-1.812860508E-1,2.149977341E-2,7.131930792E-1,7.361869605E-1
9.648654625E0,-2.349920688E-1,-2.933126180E-1,8.097768027E-1,8.927441035E-1
9.658652625E0,-1.769469235E-1,8.163672360E-2,9.590135336E-1,9.786121428E-1
9.668651625E0,2.491847412E-1,1.935062199E-1,1.317670632E0,1.354914605E0
9.678650625E0,1.157621705E-1,2.576204645E-2,1.391479450E0,1.396524122E0
9.688649625E0,-1.682808017E-1,-5.999422330E-2,1.250650431E0,1.263346443E0
9.698648625E0,-2.976204627E-1,5.182811887E-1,1.225913785E0,1.363839411E0
9.708647625E0,-9.259637916E-2,7.424019679E-2,1.405697540E0,1.410698859E0
9.718645625E0,5.490291376E-1,-2.271905858E-1,1.254814233E0,1.388382986E0
9.728644625E0,-9.058584695E-1,3.080625301E-1,1.199295505E0,1.534207221E0
9.738643625E0,3.681404051E-1,4.601901244E-2,1.185217749E0,1.241928428E0
9.748642625E0,2.150098123E-1,-3.736535255E-3,1.464998832E0,1.480697389E0
9.758641625E0,-4.906715135E-1,1.652376548E-1,1.421142960E0,1.512517547E0
9.768639625E0,-1.187458036E-1,-1.838589719E-1,1.438551875E0,1.455106933E0
9.778638625E0,3.348240301E-1,-2.344213988E-1,1.638403859E0,1.688617106E0
9.788637625E0,-3.630838061E-1,2.840617198E-1,1.494250113E0,1.563746882E0
9.798636625E0,1.724447319E-1,7.022286728E-2,1.553209927E0,1.564330372E0
9.808635625E0,-1.309346719E-1,-1.093613880E-2,1.515203025E0,1.520889113E0
9.818634625E0,1.780471136E-1,-2.705846735E-1,1.620865721E0,1.652913344E0
9.828632625E0,-2.823293177E-1,-1.242993977E-1,1.679546038E0,1.707640207E0
9.838631625E0,7.900882043E-2,5.843338218E-2,1.643765171E0,1.646699970E0
9.848630625E0,6.792573379E-2,3.928256320E-2,1.795385227E0,1.797099090E0
9.858629625E0,1.824932816E-1,1.436273325E-1,1.897885163E0,1.912040978E0
9.868628625E0,-2.794130189E-1,1.544577646E-1,1.771368958E0,1.799910226E0
9.878626625E0,3.769988272E-1,-2.610343248E-3,2.090624009E0,2.124345471E0
9.888625625E0,-3.316679589E-2,-1.106054197E-1,2.008703933E0,2.012020151E0
9.898624625E0,-2.211119483E-1,2.291521621E-1,2.196545151E0,2.219507110E0
9.908623625E0,2.583412434E-1,-1.513769215E-1,2.179798141E0,2.200267053E0
9.918622625E0,1.046004023E-1,-1.663017567E-2,2.184037957E0,2.186604584E0
9.928620625E0,-2.823513910E-1,1.561775404E-1,2.253975919E0,2.276954364E0
9.938619625E0,9.377603665E-2,2.077407365E-1,2.208935986E0,2.220663943E0
9.948618625E0,2.994707228E-1,4.550603621E-1,2.474767367E0,2.534015818E0
9.958617625E0,-7.647821128E-1,-1.950885130E-1,2.446631150E0,2.570788826E0
9.968616625E0,4.788136890E-2,-1.649262541E-1,2.544709421E0,2.550497860E0
9.978615625E0,5.975763034E-2,1.843362143E-2,2.736780515E0,2.737494906E0
9.988613625E0,7.376196764E-2,3.838478536E-1,2.655367393E0,2.683981370E0
9.998612625E0,1.566953296E-1,3.532523343E-1,2.858334188E0,2.884339607E0
1.000861163E1,-2.224692149E-1,8.760402644E-2,2.854431172E0,2.864427401E0
1.001861063E1,-2.699322155E-1,1.746508498E-2,2.905328261E0,2.917893201E0
1.002860963E1,-1.024651270E-1,-2.134397618E-1,3.117326081E0,3.126304132E0
1.003860762E1,-3.539944921E-1,2.151494328E-1,2.768116913E0,2.798941340E0
1.004860663E1,-1.708296213E-1,2.864347026E-1,2.938166224E0,2.957033709E0
1.005860638E1,-1.192811711E-1,1.606987171E-1,2.822755635E0,2.829841242E0
1.006860538E1,-2.034783538E-1,1.356275010E-1,2.755085224E0,2.765916277E0
1.007860438E1,9.186182270E-2,-2.868790179E-2,2.959134924E0,2.960699425E0
1.008860238E1,2.147722509E-2,1.285198997E-1,2.881904899E0,2.884849127E0
1.009860138E1,-3.704247661E-2,1.298263321E-1,2.864113576E0,2.867293776E0
1.010860038E1,2.447991651E-2,-1.003231092E-1,3.031336343E0,3.033094792E0
1.011859938E1,5.680023657E-2,1.857007169E-1,3.022214686E0,3.028447231E0
1.012859838E1,-1.273165610E-1,4.643288568E-2,3.088243784E0,3.091215811E0
1.013859638E1,1.365438145E-2,-4.944641272E-2,3.191105078E0,3.191517353E0
1.014859538E1,3.423864534E-2,1.894594716E-2,3.197566252E0,3.197805680E0
1.015859438E1,-3.965892289E-1,7.672498936E-2,3.027818073E0,3.054644337E0
1.016859338E1,-2.405998958E-1,3.475146443E-2,3.004464294E0,3.014282944E0
1.017859238E1,7.369887253E-2,-1.199301389E-1,3.083811595E0,3.087022629E0
1.018859138E1,-1.535801524E-1,-1.065105963E-1,3.044304298E0,3.050036070E0
1.019858938E1,-4.182705218E-2,1.235783995E-1,2.979938732E0,2.982793317E0
1.020858838E1,1.205621681E-1,2.085369080E-1,3.100273846E0,3.109617468E0
1.021858738E1,1.290170958E-1,2.495886377E-1,3.069268400E0,3.082101298E0
1.022858638E1,1.697352418E-1,2.291767570E-1,3.192004965E0,3.204719603E0
1.023858538E1,8.488744659E-2,-2.884141496E-1,3.372100376E0,3.385476266E0
1.024858338E1,7.515316643E-4,-1.489045360E-1,3.285193210E0,3.288566185E0
1.025858238E1,5.567422729E-2,3.023267222E-1,3.196916626E0,3.211662651E0
1.026858138E1,-1.076343946E-1,4.370420940E-1,3.177459431E0,3.209180486E0
1.027858038E1,-3.613374986E-1,4.997591098E-1,3.219823678E0,3.278351487E0
1.028857938E1,-2.779756089E-1,-3.589997818E-1,3.188840452E0,3.221002128E0
1.029857838E1,-3.260096449E-1,3.695807205E-1,3.312743536E0,3.349200193E0
1.030857638E1,-1.662334905E-1,2.884267759E-1,3.269889877E0,3.286792264E0
1.031857538E1,9.317324353E-2,3.019453375E-1,3.282274280E0,3.297450029E0
1.032857438E1,1.731082264E-1,-2.194748741E-2,3.547516846E0,3.551805727E0
1.033857338E1,1.599723285E-1,-2.869408523E-1,3.477925040E0,3.493406472E0
1.034857238E1,2.732019968E-1,5.136394496E-1,3.547107541E0,3.594500900E0
1.035857038E1,-4.475190254E-2,1.243125539E-1,3.480083832E0,3.482590963E0
1.036856938E1,-3.459785807E-1,1.091053530E-1,3.440715698E0,3.459787518E0
1.037856838E1,-3.574805655E-1,-1.407882900E-1,3.654178246E0,3.674320665E0
1.038856738E1,-2.776712247E-1,-6.539255552E-2,3.453598868E0,3.465360391E0
1.039856638E1,-2.878997408E-1,2.963743663E-1,3.546670754E0,3.570657847E0
1.040856438E1,-4.973837150E-2,3.211602931E-1,3.454425665E0,3.469679310E0
1.041856338E1,4.875527183E-2,3.395260321E-1,3.377141846E0,3.394516468E0
1.042856238E1,3.739926640E-2,-8.758562598E-3,3.597620468E0,3.597825516E0
1.043856138E1,-2.569390811E-2,-2.212757617E-1,3.391530089E0,3.398837961E0
1.044856038E1,-2.657882390E-1,-2.189535948E-1,3.488402665E0,3.505358358E0
1.045855838E1,-6.327198967E-2,-1.153457026E-1,3.431847811E0,3.434368555E0
1.046855738E1,2.403324405E-2,2.164172554E-1,3.476495980E0,3.483308531E0
1.047855638E1,1.344420876E-1,1.401319401E-1,3.562074074E0,3.567363641E0
1.048855538E1,-6.836557232E-2,1.855630333E-1,3.309339872E0,3.315243261E0
1.049855438E1,-2.160465236E-1,-1.448846849E-2,3.502026093E0,3.508713834E0
1.050855338E1,-3.774404016E-1,-4.559989499E-2,3.331758097E0,3.353379284E0
1.051855138E1,-3.071409358E-1,1.675577021E-1,3.376475848E0,3.394554505E0
1.052855038E1,-2.265896564E-2,-2.088367423E-1,3.325226757E0,3.331855219E0
1.053854938E1,4.749506894E-2,4.708925025E-1,3.210620745E0,3.245316795E0
1.054854838E1,4.648145411E-2,-1.194611739E-2,2.982949464E0,2.983335506E0
1.055854738E1,-1.540548001E-1,4.738552867E-1,2.644423744E0,2.690956828E0
1.056854538E1,1.609183532E-1,-1.970601759E-1,2.341954295E0,2.355732869E0
1.057854438E1,4.255296573E-1,-3.028837243E-1,2.675398784E0,2.725907683E0
1.058854338E1,2.238504186E-2,3.127569672E-1,1.550418466E0,1.581807647E0
1.059854238E1,-3.312549993E-1,1.120268047E-1,1.902644797E0,1.934512110E0
1.060854138E1,-3.471371334E-1,5.069630988E-1,8.942503577E-1,1.084988237E0
1.061853938E1,1.437137799E-1,-8.365001862E-1,1.277645271E0,1.533872111E0
1.062853838E1,-3.446992099E-1,-2.841867406E-2,7.473969519E-1,8.235456090E-1
1.063853738E1,-4.898144944E-2,6.166521867E-1,-2.170825589E-1,6.555790868E-1
1.064853638E1,9.069255864E-1,2.807692258E-1,2.488510662E-1,9.814643297E-1
1.065853538E1,-7.293409692E-1,2.192221099E-1,-3.226049209E-1,8.270855566E-1
1.066853438E1,9.921449538E-2,-7.226043190E-1,-9.623218882E-1,1.207503182E0
1.067853238E1,-2.628648322E-1,1.116217754E-1,-6.083367151E-1,6.720348947E-1
1.068853138E1,4.422464814E-1,6.762494937E-2,-1.494195734E0,1.559735867E0
1.069853038E1,1.245986107E-1,5.270843180E-1,-1.448930098E0,1.546848772E0
1.070852938E1,1.530561505E-1,-5.112083601E-1,-1.520195378E0,1.611134433E0
1.071852838E1,6.001689588E-1,-3.766429145E-1,-2.156335604E0,2.269767807E0
1.072852638E1,-3.335401643E-1,1.982135757E-1,-1.953234907E0,1.991397566E0
1.073852538E1,3.878664622E-2,-4.728356054E-1,-2.645096759E0,2.687306230E0
1.074852438E1,-3.485186843E-1,2.618352654E-1,-2.592456615E0,2.628850372E0
1.075852338E1,4.218559613E-1,-2.674331339E-1,-2.756989662E0,2.801869899E0
1.076852238E1,4.526399803E-1,5.274910650E-1,-3.151289048E0,3.227034620E0
1.077852038E1,1.714050238E-1,-1.251158517E-1,-3.037433819E0,3.044837904E0
1.078851938E1,-7.439942379E-3,-1.666900849E-1,-3.493248838E0,3.497231531E0
1.079851838E1,-1.808266424E-1,-4.706184874E-1,-3.328352094E0,3.366319607E0
1.080851738E1,-3.411210794E-2,-4.480615374E-1,-3.513645095E0,3.542262643E0
1.081851638E1,3.921048530E-1,-1.911848936E-1,-3.691226789E0,3.716914458E0
1.082851538E1,1.716569292E-1,3.816437457E-1,-3.652315907E0,3.676211302E0
1.083851338E1,1.888134274E-1,1.870910752E-1,-4.047112307E0,4.055831802E0
1.084851238E1,2.208221091E-2,-1.403902591E-1,-3.931290659E0,3.933858576E0
1.085851138E1,2.149244612E-2,-5.806778502E-1,-4.201975229E0,4.241962342E0
1.086851038E1,6.281241680E-2,-1.643010771E-1,-4.260550881E0,4.264180350E0
1.087850938E1,4.491628239E-2,5.712828364E-2,-4.485727156E0,4.486315775E0
1.088850738E1,1.384380200E-1,-3.389128784E-1,-4.735005654E0,4.749137349E0
1.089850638E1,1.588640801E-1,-1.274092576E-1,-4.537146986E0,4.541714839E0
1.090850538E1,6.356442355E-1,5.816450162E-2,-5.099988270E0,5.139776946E0
1.091850438E1,-2.138036231E-1,-4.173654094E-1,-4.945092604E0,4.967277598E0
1.092850338E1,-9.948832780E-2,-5.390643858E-1,-5.226043714E0,5.254714192E0
1.093850138E1,1.950142351E-1,-8.320770599E-4,-5.207195799E0,5.210846317E0
1.094850038E1,3.309111465E-1,-1.438517377E-1,-5.347432496E0,5.359592317E0
1.095849938E1,1.202031491E-1,-8.990402872E-2,-5.359874201E0,5.361975661E0
1.096849838E1,-2.605199525E-2,-2.507935661E-1,-5.333207390E0,5.339164465E0
1.097849738E1,1.002954994E-1,-2.936584808E-1,-5.521357926E0,5.530071232E0
1.098849538E1,2.006022546E-2,-3.393296387E-1,-5.312072044E0,5.322936823E0
1.099849438E1,1.261458753E-1,-2.680148222E-1,-5.327160199E0,5.335389444E0
1.100849338E1,3.586744208E-2,-1.052624533E-1,-5.244218615E0,5.245397557E0
1.101849238E1,-3.287745008E-2,2.096865802E-1,-5.022400981E0,5.026883826E0
1.102849138E1,2.399751756E-1,-9.297706945E-2,-4.859520941E0,4.866330918E0
1.103849038E1,3.081924479E-1,-4.260545911E-1,-4.470336115E0,4.501156527E0
1.104848838E1,1.209327354E-1,1.775568246E-1,-4.272893184E0,4.278290232E0
1.105848708E1,1.189018147E-1,-6.792207928E-2,-4.056431015E0,4.058741631E0
1.106848608E1,1.492414270E-1,-4.483077782E-1,-3.602121654E0,3.632978568E0
1.107848508E1,-3.258092316E-2,9.384077629E-2,-3.412612810E0,3.414058260E0
1.108848408E1,3.360721914E-2,-7.917124512E-2,-3.000210444E0,3.001443027E0
1.109848208E1,8.844684776E-2,-3.397613094E-1,-2.749044465E0,2.771372596E0
1.110848108E1,6.459272951E-2,1.935228845E-1,-2.465839253E0,2.474264850E0
1.111848008E1,3.917370997E-1,4.519320287E-2,-2.139059420E0,2.175103580E0
1.112847908E1,8.874180324E-2,-1.444741921E-1,-1.822922105E0,1.830790239E0
1.113847808E1,-2.391092760E-2,2.896948177E-3,-1.557084292E0,1.557270567E0
1.114847608E1,2.942773903E-2,4.444055658E-2,-1.303957742E0,1.305046646E0
1.115847508E1,-4.950002437E-2,-1.983356363E-1,-9.870766604E-1,1.008021632E0
1.116847408E1,-3.540509177E-2,-4.383072853E-2,-8.065760368E-1,8.085416232E-1
1.117847308E1,3.378550440E-2,2.366434321E-1,-5.971860749E-1,6.432517254E-1
1.118847208E1,1.456602267E-1,-1.144156846E-1,-4.250498933E-1,4.636542486E-1
1.119847108E1,1.467124879E-1,-2.019816494E-2,-3.666864949E-1,3.954636590E-1
1.120846908E1,1.086755827E-1,5.017905056E-2,-2.228484982E-1,2.529619982E-1
1.121846808E1,1.166629523E-1,-1.326741820E-1,-2.198441988E-1,2.820357331E-1
1.122846708E1,9.364885971E-2,4.898060890E-2,-2.449854720E-1,2.668090899E-1
1.123846608E1,6.640810724E-2,1.630989809E-1,-1.761321688E-1,2.490659655E-1
1.124846508E1,-1.591666918E-3,-9.134575110E-2,-1.723952132E-1,1.951068661E-1
1.125846308E1,-1.493358778E-1,-1.130675543E-1,-2.544404197E-1,3.159515839E-1
1.126846208E1,-1.569687783E-1,-4.626225661E-3,-4.281126648E-1,4.560055406E-1
1.127846108E1,-7.771991137E-3,-4.492476085E-2,-4.726193315E-1,4.748133006E-1
1.128846008E1,7.230124181E-2,-1.929336313E-2,-5.853711909E-1,5.901348444E-1
1.129845908E1,1.120862818E-1,1.127421019E-1,-8.919693589E-1,9.060261880E-1
1.130845708E1,1.315872028E-2,5.213264186E-2,-1.059375143E0,1.060738732E0
1.131845608E1,-3.671620198E-2,-8.112591449E-2,-1.330672501E0,1.333648679E0
1.132845508E1,-4.798725832E-2,-5.487458400E-2,-1.623376515E0,1.625012402E0
1.133845408E1,1.063552979E-1,-1.820291223E-1,-2.061430616E0,2.072182964E0
1.134845308E1,1.165333634E-2,-1.594977173E-1,-2.541672962E0,2.546699191E0
1.135845108E1,-3.322992755E-2,-1.984347466E-1,-3.027606989E0,3.034284867E0
1.136845008E1,1.362898260E-1,-6.706489574E-2,-3.476271447E0,3.479588451E0
1.137844908E1,1.372967531E-1,5.830770358E-4,-3.894094766E0,3.896514441E0
1.138844808E1,1.041865290E-1,-2.051689483E-1,-4.183326704E0,4.189650515E0
1.139844708E1,2.643338720E-1,-1.637289087E-1,-4.441536824E0,4.452407091E0
1.140844608E1,2.344961701E-1,-2.620136968E-1,-4.636409318E0,4.649723755E0
1.141844408E1,2.021415342E-2,-2.070559179E-1,-4.757937264E0,4.762483362E0
1.142844308E1,3.499503750E-2,-9.681710042E-4,-4.796853992E0,4.796981740E0
1.143844208E1,6.544534491E-2,-1.452078897E-1,-4.753894499E0,4.756561923E0
1.144844108E1,4.239015732E-2,-7.608786212E-2,-4.569616574E0,4.570446578E0
1.145844008E1,1.851018707E-1,-2.063199179E-1,-4.346266385E0,4.355096107E0
1.146843808E1,9.470515922E-3,-2.702803990E-1,-4.008706625E0,4.017819059E0
1.147843708E1,5.957461249E-2,-3.064551122E-1,-3.768729293E0,3.781637788E0
1.148843608E1,1.014676468E-1,-2.163380804E-1,-3.498071036E0,3.506222871E0
1.149843508E1,1.898677900E-1,-5.430654528E-2,-3.299414808E0,3.305319509E0
1.150843408E1,2.516287129E-1,1.137289109E-1,-3.045214709E0,3.057708930E0
1.151843208E1,2.677879502E-1,1.211027797E-2,-2.799415889E0,2.812220896E0
1.152843108E1,1.320485847E-1,1.906652771E-2,-2.564534991E0,2.568003131E0
1.153843008E1,1.380836422E-2,-2.579176309E-1,-2.320988519E0,2.335315798E0
1.154842908E1,-5.018199610E-1,-1.955803004E-1,-2.233735782E0,2.297749001E0
1.155842808E1,6.482945038E-2,-1.899911114E-1,-1.819559956E0,1.830600424E0
1.156842708E1,3.606936836E-1,-3.390498860E-2,-1.592151214E0,1.632848728E0
1.157842508E1,1.297092599E-1,8.356862538E-2,-1.567298793E0,1.574875777E0
1.158842408E1,-3.414293008E-1,1.261044515E-1,-1.364781064E0,1.412481381E0
1.159842308E1,3.012091365E-1,-2.405100496E-2,-9.190103924E-1,9.674117511E-1
1.160842208E1,3.335241210E-1,-2.413215153E-1,-6.112410271E-1,7.369464066E-1
1.161842108E1,-5.683729696E-1,-4.995802581E-2,-6.480422330E-1,8.634247927E-1
1.162841908E1,1.967559562E-1,9.544061104E-2,-4.616750979E-1,5.108480328E-1
1.163841808E1,3.484481888E-1,1.310583953E-2,-2.369888198E-1,4.216059820E-1
1.164841708E1,-4.196116173E-1,4.313670058E-2,-4.061429214E-1,5.855653310E-1
1.165841608E1,2.389685774E-1,1.952521071E-1,-1.274418193E-1,3.338724062E-1
1.166841508E1,2.898201674E-2,-1.844561371E-1,-5.348740518E-2,1.942290563E-1
1.167841308E1,-2.900474231E-1,2.004381672E-2,-3.107982230E-1,4.255875911E-1
1.168841208E1,2.064524122E-1,-2.148189372E-1,2.439429134E-1,3.850687202E-1
1.169841108E1,-7.082958899E-2,6.907155052E-2,1.159888780E-1,1.524504168E-1
1.170841008E1,-1.137026167E-1,2.047745171E-1,5.189310336E-1,5.693419935E-1
1.171840908E1,2.656136265E-1,8.070486015E-2,7.521460605E-1,8.017403378E-1
1.172840708E1,-2.301412004E-1,1.030532838E-1,2.436324263E-1,3.506304473E-1
1.173840608E1,3.233731354E-2,-1.881405590E-2,9.666078973E-1,9.673316379E-1
1.174840508E1,1.967880428E-2,-2.057072942E-1,6.740050399E-1,7.049720137E-1
1.175840408E1,-4.662668433E-2,-3.214888701E-2,1.002383502E0,1.003982212E0
1.176840308E1,-1.373031668E-1,3.853684220E-1,1.084421691E0,1.159021736E0
1.177840208E1,4.242208312E-1,2.843886523E-2,9.856031621E-1,1.073399122E0
1.178840008E1,-3.356133677E-1,1.177244961E-1,1.230056537E0,1.280443078E0
1.179839908E1,1.948298834E-1,-1.148161275E-1,6.157088846E-1,6.559259540E-1
1.180839808E1,-3.742048448E-1,1.177483052E-2,1.355131404E0,1.405897946E0
1.181839708E1,6.731404560E-1,-5.060399696E-2,1.394521172E0,1.549312150E0
1.182839608E1,2.407024596E-2,3.331350619E-2,1.755261049E0,1.755742155E0
1.183839408E1,-1.072338055E0,-7.565604525E-2,1.605710322E0,1.932340130E0
1.184839308E1,5.772437073E-1,-2.866878871E-2,2.069434869E0,2.148625811E0
1.185839208E1,3.418043265E-1,-8.150415625E-3,2.380821322E0,2.405245683E0
1.186839108E1,6.731183097E-2,4.317669919E-2,2.120843005E0,2.122350150E0
1.187839008E1,-3.089377121E-1,4.033654209E-2,2.378592948E0,2.398910995E0
1.188838808E1,-1.549221797E-1,2.962868042E-1,2.483225364E0,2.505632647E0
1.189838708E1,-3.534859305E-2,-1.184030654E-1,2.471301722E0,2.474389017E0
1.190838608E1,8.340737013E-2,5.249811111E-2,2.591252673E0,2.593126155E0
1.191838508E1,1.650878930E-1,-6.672435025E-2,2.406103513E0,2.412683209E0
1.192838408E1,-3.406572125E-1,-1.840683388E-2,2.515697876E0,2.538724473E0
1.193838208E1,7.444108520E-2,3.711171130E-2,2.290112881E0,2.291622954E0
1.194838108E1,-1.738993729E-1,3.611928897E-1,2.455204337E0,2.487715746E0
1.195838008E1,3.809557842E-2,1.373810809E-1,2.342022123E0,2.346357274E0
1.196837908E1,-1.594131520E-1,2.044161011E-2,2.404567450E0,2.409932578E0
1.197837808E1,-9.568670573E-2,-1.842062782E-1,2.388994560E0,2.397995602E0
1.198837708E1,1.835976379E-2,-5.467744147E-2,2.322254441E0,2.322970596E0
1.199837508E1,-3.710453019E-2,-1.769456992E-2,2.305824934E0,2.306191335E0
1.200837408E1,5.192380490E-2,2.027863907E-1,2.060366423E0,2.070972766E0
1.201837308E1,-9.322765918E-2,4.573260851E-1,2.230861875E0,2.279162840E0
1.202837208E1,3.946117736E-2,2.309971049E-1,2.189128543E0,2.201635898E0
1.203837108E1,-2.769943547E-1,-3.555925727E-2,2.304417509E0,2.321277750E0
1.204836908E1,-4.247089275E-1,-2.933374321E-1,2.317316467E0,2.374106175E0
1.205836825E1,-2.387336838E-1,2.552966530E-1,2.155049801E0,2.183210892E0
1.206836725E1,8.749742439E-2,1.984898566E-1,2.450968614E0,2.460548957E0
1.207836625E1,3.324825492E-2,-8.045576876E-2,2.323595207E0,2.325225422E0
1.208836525E1,7.172160001E-2,1.141705401E-1,2.404128909E0,2.407906707E0
1.209836325E1,9.293105917E-2,-9.822068799E-2,2.626428353E0,2.629906725E0
1.210836225E1,2.001128975E-1,4.218626491E-1,2.521034045E0,2.563908330E0
1.211836125E1,2.252019660E-1,6.066071453E-2,2.827300091E0,2.836903498E0
1.212836025E1,1.412603248E-1,-4.082160518E-3,2.717884653E0,2.721556197E0
1.213835925E1,-9.619828959E-1,-1.633310057E-3,2.838662986E0,2.997235611E0
1.214835725E1,-1.898038543E-1,-4.125317720E-1,3.018305238E0,3.052273657E0
1.215835625E1,2.742414673E-1,5.989878944E-1,3.107210398E0,3.176279480E0
1.216835525E1,8.361523865E-2,8.809627064E-2,3.372461734E0,3.374648220E0
1.217835425E1,1.589471471E-1,3.330566361E-1,3.192391466E0,3.213651224E0
1.218835325E1,-1.115042098E-2,1.563048452E-2,3.599552972E0,3.599604179E0
1.219835225E1,1.479793603E-1,-2.567158271E-1,3.570413958E0,3.582688479E0
1.220835025E1,-3.888612198E-2,2.545669571E-1,3.594068284E0,3.603282295E0
1.221834925E1,-6.034297683E-1,-7.543872982E-2,3.772803633E0,3.821500457E0
1.222834825E1,1.433799587E-1,1.716237462E-1,3.592279621E0,3.599234001E0
1.223834725E1,-1.629157255E-1,1.488705856E-1,3.915585623E0,3.921799938E0
1.224834625E1,-1.864744680E-1,7.442425618E-2,3.662289503E0,3.667788994E0
1.225834425E1,-4.201608170E-3,2.039251908E-1,3.764186007E0,3.769708136E0
1.226834325E1,-5.034660984E-2,-8.278571974E-2,3.878547605E0,3.879757696E0
1.227834225E1,1.992297487E-1,1.676883143E-1,3.566755355E0,3.576248820E0
1.228834125E1,8.708426379E-2,3.413460876E-1,3.849221479E0,3.865308114E0
1.229834025E1,-1.270333730E-1,3.979737034E-1,3.557918458E0,3.582360158E0
1.230833825E1,-2.630239313E-1,2.594278023E-2,3.695456665E0,3.704896028E0
1.231833725E1,-2.759903695E-1,-9.909901287E-2,3.818662761E0,3.829905558E0
1.232833625E1,-2.008473078E-1,-1.440232986E-1,3.670461572E0,3.678772961E0
1.233833525E1,-2.593301903E-1,1.913839182E-1,3.897676186E0,3.910979366E0
1.234833425E1,1.414803080E-1,2.205880377E-1,3.763717060E0,3.772829425E0
1.235833225E1,-1.153025611E-1,2.074113738E-1,3.805010682E0,3.812403500E0
1.236833125E1,-2.636960870E-2,1.771526541E-1,3.808159407E0,3.812368882E0
1.237833025E1,1.195324369E-1,-6.508115474E-2,3.712057495E0,3.714551710E0
1.238832925E1,-1.900498759E-1,2.196616195E-3,3.703387828E0,3.708261747E0
1.239832825E1,5.897554697E-2,1.187864966E-1,3.428732414E0,3.431296302E0
1.240832725E1,-1.491167534E-1,1.921468154E-1,3.509711089E0,3.518128498E0
1.241832525E1,-2.315076764E-1,1.289796918E-1,3.406583161E0,3.416875825E0
1.242832425E1,-1.523189445E-1,7.224424973E-2,3.397139323E0,3.401319725E0
1.243832325E1,-2.711847988E-1,-5.618867263E-2,3.541891240E0,3.552702059E0
1.244832225E1,8.308016360E-3,-6.712166855E-2,3.351948532E0,3.352630804E0
1.245832125E1,-8.086492768E-2,1.364651511E-1,3.406891310E0,3.410582101E0
1.246831925E1,8.838870451E-2,3.523376836E-2,3.216066257E0,3.217473567E0
1.247831825E1,2.805009848E-2,2.139267983E-1,3.166836795E0,3.174178125E0
1.248831725E1,-8.474373300E-2,9.105209297E-2,3.200545408E0,3.202961582E0
1.249831625E1,-2.818617415E-2,4.368893355E-3,3.063740442E0,3.063873210E0
1.250831525E1,-1.441233774E-1,1.573804405E-1,3.207617031E0,3.214707944E0
1.251831325E1,-5.074080354E-2,1.153508737E-1,3.016337065E0,3.018968324E0
1.252831225E1,-1.521192438E-1,6.534990739E-2,3.178309032E0,3.182618289E0
1.253831125E1,-8.015136637E-2,2.795146326E-2,3.155715390E0,3.156856847E0
1.254831025E1,-3.853609303E-2,-1.338263210E-3,3.084163597E0,3.084404629E0
1.255830925E1,-6.929756368E-2,2.854312474E-1,3.226498275E0,3.239840161E0
1.256830725E1,2.028184225E-1,-9.994166974E-2,3.153588173E0,3.161683415E0
1.257830625E1,-1.134766584E-1,2.220128763E-1,3.212135174E0,3.221797487E0
1.258830525E1,-4.737532893E-2,-4.059204714E-2,3.028327950E0,3.028970503E0
1.259830425E1,-9.070878832E-2,5.234800212E-2,3.056913818E0,3.058707323E0
1.260830325E1,-4.043824710E-3,-3.164441848E-2,3.042845417E0,3.043012645E0
1.261830225E1,2.412160461E-1,3.387293489E-1,2.690764682E0,2.722707720E0
1.262830025E1,-3.417565987E-1,2.011610840E-1,2.724027153E0,2.752741776E0
1.263829925E1,1.032447070E-1,-3.079280441E-1,2.405647430E0,2.427471670E0
1.264829825E1,-7.173488416E-2,2.340577020E-1,2.322417578E0,2.335284203E0
1.265829725E1,-5.298363101E-3,2.755564696E-1,1.988000112E0,2.007013674E0
1.266829625E1,5.855273847E-3,1.867851927E-1,1.709872622E0,1.720054469E0
1.267829425E1,-1.046046598E-1,-1.000899515E-1,1.449261636E0,1.456474999E0
1.268829325E1,2.785001406E-2,1.270376488E-1,8.152965742E-1,8.256044401E-1
1.269829225E1,-2.549307818E-1,1.635989727E-1,5.350769502E-1,6.148671970E-1
1.270829125E1,3.497150246E-1,-4.832114895E-1,1.025157237E-1,6.052300519E-1
1.271829025E1,6.041743381E-2,1.554733711E-1,-3.258600658E-1,3.660696900E-1
1.272828825E1,-6.851694211E-2,2.658356928E-1,-6.803288037E-1,7.336282901E-1
1.273828725E1,3.267836335E-1,-1.081376206E-1,-1.122354918E0,1.173951383E0
1.274828625E1,-3.598069534E-1,3.562843714E-2,-1.308703342E0,1.357731515E0
1.275828525E1,4.032729618E-1,-2.660781147E-1,-1.711531477E0,1.778416892E0
1.276828425E1,-3.197984766E-1,1.449186535E-1,-1.764054092E0,1.798654864E0
1.277828225E1,2.641594423E-1,-4.761859138E-1,-2.156662463E0,2.224348492E0
1.278828125E1,1.463958247E-2,5.123447299E-2,-2.264112067E0,2.264739001E0
1.279828025E1,-7.979514303E-2,-4.289955944E-3,-2.450177486E0,2.451480243E0
1.280827925E1,3.075630317E-1,-2.076092290E-2,-2.705692624E0,2.723196396E0
1.281827825E1,-2.260583090E-1,1.155490395E-1,-2.644183424E0,2.656343336E0
1.282827625E1,2.707076477E-1,-2.705814209E-1,-3.005404526E0,3.029678745E0
1.283827525E1,-2.152608040E-1,1.280179528E-1,-2.895239475E0,2.906051862E0
1.284827425E1,2.148040999E-1,-5.426338917E-1,-3.073971900E0,3.128880884E0
1.285827325E1,-1.096904035E-1,4.994974835E-2,-3.236960113E0,3.239203256E0
1.286827225E1,1.029182131E-1,-4.035564787E-1,-3.319438598E0,3.345462987E0
1.287827025E1,1.533676792E-1,-5.893353838E-2,-3.396047063E0,3.400019186E0
1.288826925E1,2.435202876E-1,-1.101229878E-2,-3.454869468E0,3.463458740E0
1.289826825E1,2.298231850E-1,-5.441714901E-2,-3.560203550E0,3.568028761E0
1.290826725E1,1.917996004E-1,-8.114199433E-2,-3.623811316E0,3.629790567E0
1.291826625E1,1.527473809E-1,-1.433645550E-1,-3.704895240E0,3.710813105E0
1.292826525E1,1.091799416E-2,-3.888956087E-1,-3.850200888E0,3.869806956E0
1.293826325E1,6.172138117E-3,-2.600218063E-1,-3.870343961E0,3.879073577E0
1.294826225E1,4.374111995E-2,-1.487778159E-1,-4.061602292E0,4.064561637E0
1.295826125E1,7.796006748E-2,-1.406958858E-1,-4.075781205E0,4.078953976E0
1.296826025E1,1.423393736E-1,7.445851721E-2,-4.162285498E0,4.165384153E0
1.297825925E1,1.927547613E-1,6.074891612E-2,-4.273034686E0,4.277811387E0
1.298825725E1,9.435471000E-2,-1.744573800E-1,-4.242320432E0,4.246954301E0
1.299825625E1,3.725784783E-1,-2.436213348E-1,-4.318309677E0,4.341193908E0
1.300825525E1,9.323290341E-2,-4.062371713E-1,-4.317358920E0,4.337431159E0
1.301825425E1,-8.683654284E-2,-3.598475915E-1,-4.395426850E0,4.410987199E0
1.302825325E1,5.120357411E-2,-1.198913280E-1,-4.521447212E0,4.523326279E0
1.303825125E1,2.016361337E-1,1.903402815E-1,-4.364385152E0,4.373184687E0
1.304825025E1,3.152242729E-1,5.084877603E-2,-4.570927520E0,4.582066164E0
1.305824888E1,1.632753841E-1,-2.792766509E-1,-4.329434590E0,4.341504136E0
1.306824788E1,2.016127083E-1,-6.153152208E-1,-4.389243420E0,4.436746365E0
1.307824688E1,8.959653826E-2,2.988904780E-2,-4.349668880E0,4.350694227E0
1.308824488E1,2.008764525E-1,1.040079149E-1,-4.323289751E0,4.329203537E0
1.309824388E1,1.188638443E-2,-8.281826315E-2,-4.208008971E0,4.208840654E0
1.310824288E1,1.728201414E-1,-2.341890085E-1,-4.088833945E0,4.099179713E0
1.311824188E1,-1.289669011E-1,-6.838439304E-2,-4.014288962E0,4.016942215E0
1.312824088E1,-1.316515222E-2,-5.860958437E-2,-3.793362443E0,3.793838034E0
1.313823988E1,1.531633007E-1,-3.291542044E-2,-3.643091925E0,3.646458720E0
1.314823788E1,6.734545246E-2,-1.419891619E-1,-3.445684077E0,3.449265877E0
1.315823688E1,9.797828436E-2,-2.653977181E-1,-3.172682841E0,3.185271119E0
1.316823588E1,2.096925919E-1,1.294542117E-1,-2.931575827E0,2.941915397E0
1.317823488E1,2.710419623E-1,-9.525695365E-2,-2.635819566E0,2.651430259E0
1.318823388E1,1.147770974E-1,-2.448416670E-1,-2.515649929E0,2.530141456E0
1.319823188E1,1.768681870E-1,-5.738333188E-2,-2.267805169E0,2.275415453E0
1.320823088E1,2.000951549E-1,1.687171684E-1,-2.122655057E0,2.138730475E0
1.321822988E1,2.201860417E-3,-1.238147914E-1,-1.880817726E0,1.884889988E0
1.322822888E1,-1.033549088E-1,-1.121840582E-1,-1.717267011E0,1.724028273E0
1.323822788E1,-2.323091470E-2,-1.332329748E-1,-1.597890841E0,1.603604016E0
1.324822588E1,-1.725341577E-2,-5.120923860E-2,-1.360851150E0,1.361923610E0
1.325822488E1,1.343651785E-1,2.088104663E-2,-1.289063129E0,1.296215172E0
1.326822388E1,2.020308573E-1,-3.282153608E-2,-1.061447981E0,1.081002098E0
1.327822288E1,9.107255822E-2,-6.076188963E-3,-1.017934756E0,1.022018737E0
1.328822188E1,-1.768537517E-1,-9.093750581E-2,-9.367227781E-1,9.575993121E-1
1.329821988E1,-1.698428305E-1,-2.232882454E-1,-7.752489942E-1,8.244484403E-1
1.330821888E1,2.403480635E-1,9.534250572E-3,-7.640714568E-1,8.010388784E-1
1.331821788E1,1.600088371E-1,6.843639672E-2,-6.231050277E-1,6.469515004E-1
1.332821688E1,3.485084882E-2,3.919112736E-2,-9.153342479E-1,9.168354877E-1
1.333821588E1,-1.196330455E-1,-1.455191078E-1,-9.017657840E-1,9.212325469E-1
1.334821388E1,3.858517310E-2,-1.387161464E-1,-1.071391756E0,1.081023256E0
1.335821288E1,1.311602099E-1,-1.021353441E-1,-1.371253932E0,1.381293587E0
1.336821188E1,4.534605274E-2,-3.100855205E-2,-1.522472284E0,1.523463045E0
1.337821088E1,1.345490734E-1,-4.271325253E-2,-1.917973273E0,1.923161291E0
1.338820988E1,-2.861711394E-2,-1.124775885E-1,-2.136846249E0,2.139995804E0
1.339820888E1,-4.632182512E-2,-1.649471579E-1,-2.559588831E0,2.565316406E0
1.340820688E1,1.909328420E-1,-6.651151160E-2,-2.914822969E0,2.921826839E0
1.341820588E1,9.535003401E-2,-7.005470501E-2,-3.207786600E0,3.209967938E0
1.342820488E1,2.614103738E-2,-2.079098672E-1,-3.742486405E0,3.748348217E0
1.343820388E1,7.940750917E-2,-1.507362311E-1,-3.859850548E0,3.863608833E0
1.344820288E1,1.798078199E-1,-2.425096147E-2,-4.194105461E0,4.198028059E0
1.345820088E1,9.690574056E-2,-1.186778298E-1,-4.327941211E0,4.330652407E0
1.346819988E1,1.407926572E-1,-9.475115122E-2,-4.450214092E0,4.453448755E0
1.347819888E1,1.485147460E-1,-1.877215695E-1,-4.594051504E0,4.600283169E0
1.348819788E1,-3.943992639E-2,-2.174005378E-1,-4.429961091E0,4.435467706E0
1.349819688E1,1.074598917E-1,-2.644794311E-1,-4.382471759E0,4.391759980E0
1.350819488E1,-6.669911586E-2,-1.140730743E-1,-3.991740929E0,3.993927526E0
1.351819388E1,7.897194643E-3,5.205772441E-2,-3.999369206E0,3.999715793E0
1.352819288E1,4.341765929E-2,-5.611454090E-2,-3.673800917E0,3.674485965E0
1.353819188E1,5.327538880E-2,-1.088227132E-1,-3.446100399E0,3.448229779E0
1.354819088E1,1.751499827E-1,2.597718744E-2,-3.286236354E0,3.291003145E0
1.355818888E1,6.163301513E-2,-1.069889533E-1,-2.847199920E0,2.849875901E0
1.356818788E1,1.831377178E-1,-2.353050410E-1,-2.732216179E0,2.748438308E0
1.357818688E1,1.100063541E-1,-1.123194578E-1,-2.358890170E0,2.364123494E0
1.358818588E1,1.621411522E-1,-7.712101031E-2,-2.306932982E0,2.313909502E0
1.359818488E1,2.462665969E-1,3.963864036E-3,-2.110399293E0,2.124723070E0
1.360818288E1,1.751793284E-1,2.461297721E-2,-1.875095640E0,1.883421688E0
1.361818188E1,-7.921586668E-2,9.199488340E-2,-1.995789773E0,1.999478689E0
1.362818088E1,-4.420960618E-1,-1.821406762E-1,-1.592870421E0,1.663087590E0
1.363817988E1,3.078683294E-1,-5.365966781E-1,-1.245735846E0,1.390890615E0
1.364817888E1,1.055928027E-1,-1.335728259E-1,-1.120016617E0,1.132885149E0
1.365817688E1,-5.539208086E-2,4.796233457E-1,-1.054481024E0,1.159757330E0
1.366817588E1,4.735647532E-1,1.599334080E-2,-8.522825521E-1,9.751435336E-1
1.367817488E1,-1.541073702E-1,-2.726308700E-1,-5.934590596E-1,6.710218538E-1
1.368817388E1,1.367082674E-2,-1.816200730E-1,-5.621863961E-1,5.909537092E-1
1.369817288E1,2.690439139E-1,2.360250342E-1,-1.671485066E-1,3.950076805E-1
1.370817188E1,3.665915508E-2,1.099866381E-1,-3.012520587E-1,3.227905778E-1
1.371816988E1,7.288188860E-2,1.171970224E-2,1.853655070E-1,1.995231623E-1
1.372816888E1,-6.225647449E-2,-2.333094228E-1,2.168282050E-1,3.245360163E-1
1.373816788E1,-8.743780106E-2,-2.796485703E-2,2.243184882E-1,2.423761260E-1
1.374816688E1,2.391311117E-1,4.728736488E-2,5.076704657E-1,5.631599109E-1
1.375816588E1,-2.985511933E-1,6.364473140E-2,1.012328446E-2,3.054274836E-1
1.376816388E1,1.231609996E-1,1.436600586E-2,4.987008369E-1,5.138847523E-1
1.377816288E1,3.567929330E-1,9.027437674E-2,7.539318001E-1,8.389659226E-1
1.378816188E1,-5.064130220E-1,-1.321150968E-2,7.887829596E-1,9.374471986E-1
1.379816088E1,-4.241053121E-2,-5.068673506E-2,1.124834722E0,1.126774578E0
1.380815988E1,3.432677750E-1,1.024598280E-1,9.568915790E-1,1.021749615E0
1.381815788E1,-7.967938643E-2,1.906111903E-1,1.171646361E0,1.189721239E0
1.382815688E1,-5.970418679E-1,3.205800301E-1,8.258490443E-1,1.068296397E0
1.383815588E1,2.609103090E-1,1.605144385E-1,1.373834893E0,1.407572871E0
1.384815488E1,3.254770732E-1,-3.319376618E-1,1.651541968E0,1.715723990E0
1.385815388E1,-4.567951945E-1,-1.686309403E-1,1.520577786E0,1.596638671E0
1.386815188E1,-3.241617420E-1,1.479085907E-1,1.797971451E0,1.832937294E0
1.387815088E1,2.574455596E-1,-1.109043951E-1,1.535140277E0,1.560523524E0
1.388814988E1,1.208950209E-2,2.286728184E-1,2.063723309E0,2.076389007E0
1.389814888E1,-5.288659646E-1,1.944473841E-1,1.465546716E0,1.570138902E0
1.390814788E1,-3.022652899E-1,4.548893676E-1,2.137416937E0,2.206091523E0
1.391814588E1,4.463868217E-1,-4.821764593E-1,1.907792686E0,2.017778051E0
1.392814488E1,4.845703094E-1,-1.835855780E-1,2.152853002E0,2.214336943E0
1.393814388E1,-2.012594086E-1,-3.559163623E-2,2.228065152E0,2.237419593E0
1.394814288E1,-2.505952541E-1,-7.050495889E-2,1.826559657E0,1.845017375E0
1.395814188E1,-8.331158178E-1,6.367512596E-1,2.204482162E0,2.441162783E0
1.396813988E1,4.919346582E-1,-1.027053197E-1,1.945523599E0,2.009380542E0
1.397813888E1,4.910281205E-1,-3.167478746E-1,2.468091601E0,2.536318982E0
1.398813788E1,2.506541648E-1,9.477243874E-2,2.171471706E0,2.187943943E0
1.399813688E1,-5.313593270E-2,-2.244505988E-1,2.201862609E0,2.213910669E0
1.400813588E1,-8.381998987E-1,1.680998121E-1,2.143634282E0,2.307813803E0
1.401813388E1,4.691256932E-1,2.278422214E-1,2.211423976E0,2.272088686E0
1.402813288E1,2.323530742E-1,-9.122707089E-2,2.820803250E0,2.831826496E0
1.403813188E1,-2.747325238E-1,-4.794464674E-2,2.242866209E0,2.260138376E0
1.404813088E1,-5.615685647E-1,-2.745885361E-2,2.559151459E0,2.620185000E0
1.405812971E1,5.847065818E-1,-1.672008209E-1,2.857806185E0,2.921796381E0
1.406812771E1,1.926413436E-1,1.732853605E-1,2.751856391E0,2.764028238E0
1.407812671E1,-9.846095374E-2,9.756053735E-2,3.056060709E0,3.059202458E0
1.408812571E1,-2.869966383E-1,2.216737378E-1,2.666280051E0,2.690828056E0
1.409812471E1,1.125330457E-1,2.036029726E-1,3.214748295E0,3.223154426E0
1.410812371E1,-1.421344653E-1,2.649580257E-1,3.096252131E0,3.110816970E0
1.411812271E1,2.836721308E-1,-3.861994576E-2,3.199858360E0,3.212639865E0
1.412812071E1,-5.919462387E-1,3.407830738E-1,3.402560277E0,3.470439438E0
1.413811971E1,9.559475826E-2,3.810557351E-1,3.186562377E0,3.210688651E0
1.414811871E1,-3.291016160E-1,-1.342822028E-1,3.576032547E0,3.593653901E0
1.415811771E1,-1.972653949E-1,-2.840897134E-2,3.430857292E0,3.436641161E0
1.416811671E1,3.626768764E-1,1.917751517E-1,3.549110797E0,3.572743998E0
1.417811471E1,-2.083873107E-1,9.126608279E-3,3.707065727E0,3.712929419E0
1.418811371E1,-4.163809575E-2,2.424471774E-1,3.337024099E0,3.346078930E0
1.419811271E1,-1.033914722E-1,1.194617038E-1,3.952085697E0,3.955242376E0
1.420811171E1,9.673112808E-2,4.255462488E-1,3.482521536E0,3.509758221E0
1.421811071E1,-2.459835917E-2,3.485793857E-2,3.787117032E0,3.787357334E0
1.422810871E1,-3.629106189E-1,2.722881136E-1,3.730220701E0,3.757710927E0
1.423810771E1,-3.922809273E-2,5.604919827E-2,3.591447562E0,3.592099100E0
1.424810671E1,-1.499976730E-1,7.310982037E-2,3.860287335E0,3.863892164E0
1.425810571E1,-1.654386529E-1,2.721772905E-1,3.410896068E0,3.425735309E0
1.426810471E1,-1.762420782E-1,-1.162763600E-1,3.667280686E0,3.673353930E0
1.427810271E1,3.571760718E-2,-1.583735718E-1,3.585284597E0,3.588958564E0
1.428810171E1,2.493614185E-1,-1.790948433E-1,3.391761639E0,3.405628150E0
1.429810071E1,-1.654433306E-1,2.627709113E-1,3.563774444E0,3.577276665E0
1.430809971E1,1.496528517E-1,2.105534300E-1,3.209778746E0,3.220156568E0
1.431809871E1,-1.660894297E-2,1.439857668E-1,3.428611962E0,3.431674189E0
1.432809671E1,-8.937891221E-2,1.532815789E-1,3.319211141E0,3.323950426E0
1.433809571E1,5.225126725E-3,-2.448420507E-1,3.384651425E0,3.393499698E0
1.434809471E1,-3.738720652E-1,-2.564876578E-1,3.466728791E0,3.496251528E0
1.435809371E1,-1.639038501E-1,1.016901882E-1,3.179949176E0,3.185793799E0
1.436809271E1,-1.004732730E-1,1.110018974E-1,3.661050478E0,3.664110657E0
1.437809071E1,-6.011847664E-2,3.686577375E-1,3.354513706E0,3.375245911E0
1.438808971E1,-2.219575653E-2,2.361346147E-1,3.430377236E0,3.438566589E0
1.439808871E1,6.433901517E-2,9.192223174E-2,3.751293481E0,3.752971088E0
1.440808771E1,1.441842798E-1,4.066824367E-2,3.447146466E0,3.450400233E0
1.441808671E1,-1.006293754E-1,-2.151401869E-1,3.629649176E0,3.637411815E0
1.442808571E1,9.016771987E-2,2.604894374E-2,3.371292291E0,3.372598476E0
1.443808371E1,-3.734906074E-1,3.693821345E-1,3.485490167E0,3.524851784E0
1.444808271E1,-1.743098292E-1,-2.849254997E-2,3.350936964E0,3.355588515E0
1.445808171E1,-1.814655421E-1,-5.753978144E-2,3.288644822E0,3.294150168E0
1.446808071E1,-3.000706288E-1,1.602252206E-1,3.402811707E0,3.419772217E0
1.447807971E1,-1.148942792E-1,6.108562072E-1,3.091393095E0,3.153261370E0
1.448807771E1,-1.334888270E-2,-5.606171496E-2,3.243564543E0,3.244076456E0
1.449807671E1,-2.870679561E-2,-1.570628454E-1,3.297017450E0,3.300881228E0
1.450807571E1,1.896623882E-1,-1.519571480E-1,3.081782611E0,3.091350329E0
1.451807471E1,-3.164842017E-3,4.273159817E-2,3.453205351E0,3.453471181E0
1.452807371E1,1.973589138E-1,6.256659620E-2,3.109752182E0,3.116636609E0
1.453807171E1,7.189685203E-2,1.822419061E-1,3.362020946E0,3.367724174E0
1.454807071E1,-2.072481451E-1,6.033072326E-1,3.194876533E0,3.257939144E0
1.455806971E1,-1.053425418E-1,3.236538748E-1,3.092030441E0,3.110707497E0
1.456806871E1,-5.182891190E-1,-1.652282627E-1,3.428102669E0,3.470995808E0
1.457806771E1,-1.770918613E-1,1.132829145E-1,3.066776901E0,3.073973830E0
1.458806571E1,7.267299682E-2,-8.628144108E-2,3.481589490E0,3.483416602E0
1.459806471E1,8.178268472E-2,3.398940777E-2,3.432255362E0,3.433397815E0
1.460806371E1,1.037673568E-1,-1.834673546E-3,3.217340950E0,3.219014418E0
1.461806271E1,-2.732055051E-1,2.914216467E-1,3.402502974E0,3.425871322E0
1.462806171E1,-1.166200301E-1,2.262381474E-1,2.935648413E0,2.946661761E0
1.463805971E1,2.274944582E-1,1.504157489E-1,3.119750921E0,3.131648837E0
1.464805871E1,-1.244756730E-1,3.114985367E-2,2.863194394E0,2.866068151E0
1.465805771E1,8.654838474E-2,1.323295800E-1,2.312447491E0,2.317847091E0
1.466805671E1,-5.899076801E-1,-2.204965836E-1,2.548056368E0,2.624728761E0
1.467805571E1,4.287740580E-1,-8.899791129E-3,1.803523382E0,1.853813094E0
1.468805371E1,-1.441539108E-1,1.597020044E-1,1.948843063E0,1.960682117E0
1.469805271E1,1.433405997E-1,-1.217937927E-1,1.400385929E0,1.412961785E0
1.470805171E1,-4.218331207E-2,2.441823752E-1,1.094866573E0,1.122558362E0
1.471805071E1,1.300460047E-1,3.048441860E-1,1.055085041E0,1.105914275E0
1.472804971E1,1.084773438E-1,6.062691031E-2,2.412204498E-1,2.713489668E-1
1.473804771E1,3.286487857E-2,-4.102105370E-1,6.093640709E-1,7.353076607E-1
1.474804671E1,2.324979024E-1,-5.803239474E-1,-1.858403009E-1,6.522022509E-1
1.475804571E1,-3.057857705E-1,2.800116276E-1,-2.687199050E-1,4.940868713E-1
1.476804471E1,4.408479005E-2,1.020864467E-1,-7.736895418E-1,7.816396986E-1
1.477804371E1,-3.683042368E-2,3.903123891E-1,-1.318817856E0,1.375856380E0
1.478804171E1,9.056406973E-2,-3.776838651E-1,-9.845144105E-1,1.058355128E0
1.479804071E1,1.639016574E-1,-4.125579017E-1,-1.736449386E0,1.792295804E0
1.480803971E1,1.084672756E-1,6.138737725E-2,-1.690488517E0,1.695076691E0
1.481803871E1,2.404302717E-1,3.368810441E-1,-2.120040182E0,2.160061556E0
1.482803771E1,1.886934863E-2,1.738113723E-1,-2.572345117E0,2.578279629E0
1.483803671E1,2.608058448E-1,-5.041774853E-1,-2.525197847E0,2.588211505E0
1.484803471E1,-6.308307344E-1,-1.834770208E-1,-2.773778188E0,2.850518666E0
1.485803371E1,-3.441906849E-2,-2.338618934E-1,-3.234842252E0,3.243467350E0
1.486803271E1,-1.628997736E-1,4.573991753E-2,-2.953893480E0,2.958735400E0
1.487803171E1,4.522905361E-1,2.020848344E-1,-3.230537531E0,3.268298908E0
1.488803071E1,4.471831029E-1,1.621473100E-2,-3.294799016E0,3.325046797E0
1.489802871E1,-1.142794993E-1,-1.398907972E-2,-3.279546554E0,3.281566866E0
1.490802771E1,5.709007574E-2,-4.198360772E-1,-3.694388378E0,3.718605531E0
1.491802671E1,-4.672776076E-1,-3.223302845E-1,-3.488443596E0,3.534329342E0
1.492802571E1,2.807463485E-1,-3.076375837E-1,-3.639640313E0,3.663392008E0
1.493802471E1,6.432890314E-1,2.349227427E-1,-3.853703370E0,3.914082158E0
1.494802271E1,2.090555743E-1,-2.061301575E-1,-3.867208099E0,3.878336287E0
1.495802171E1,-1.354203633E-1,-1.569122247E-2,-4.029929679E0,4.032234877E0
1.496802071E1,1.776176722E-1,-1.852332868E-1,-4.221707243E0,4.229500142E0
1.497801971E1,6.653811643E-2,-3.136032055E-1,-4.071723238E0,4.084324230E0
1.498801871E1,3.513403313E-1,-3.175745612E-1,-4.330826812E0,4.356644868E0
1.499801671E1,1.239276975E-1,-1.563074034E-1,-4.146682788E0,4.151477836E0
1.500801571E1,3.122924059E-1,1.842835711E-1,-4.573740615E0,4.588092218E0
1.501801471E1,4.176355507E-3,-1.808257105E-1,-4.455947871E0,4.459617339E0
1.502801371E1,9.249038011E-2,-6.869997824E-2,-4.588870286E0,4.590316401E0
1.503801271E1,3.817238525E-1,-2.047888428E-1,-4.675689159E0,4.695713011E0
1.504801071E1,8.722435942E-2,-3.737258117E-1,-4.708759257E0,4.724372213E0
1.505801008E1,1.997098234E-3,-1.891487652E-1,-4.943911466E0,4.947528861E0
1.506800908E1,2.282719004E-1,-4.623506706E-1,-4.848545133E0,4.875886187E0
1.507800808E1,9.371564588E-2,-2.296019592E-1,-4.989674115E0,4.995833009E0
1.508800708E1,1.528310692E-1,-5.629653549E-2,-5.087739522E0,5.090345773E0
1.509800508E1,9.688595138E-2,5.711141808E-2,-4.873995724E0,4.875293111E0
1.510800408E1,2.661667000E-1,-7.009890631E-2,-4.963686165E0,4.971311588E0
1.511800308E1,-1.332532939E-2,6.856337266E-2,-4.708659854E0,4.709177860E0
1.512800208E1,1.494077437E-1,-5.560378296E-1,-4.602990142E0,4.638859665E0
1.513800108E1,4.464197489E-2,-5.021387073E-1,-4.364563492E0,4.393580620E0
1.514799908E1,1.518227717E-2,2.359141381E-2,-4.307095887E0,4.307187254E0
1.515799808E1,2.389659827E-1,-9.341341792E-2,-4.112241518E0,4.120237992E0
1.516799708E1,-8.182392586E-3,-6.157348316E-2,-3.785207916E0,3.785717530E0
1.517799608E1,2.155564173E-1,-6.929211846E-2,-3.536746275E0,3.543986481E0
1.518799508E1,2.977135796E-1,-1.631827788E-1,-3.162242637E0,3.180415145E0
1.519799308E1,1.442551956E-2,-1.024678314E-1,-2.899995600E0,2.901841180E0
1.520799208E1,4.030527776E-2,-8.597027784E-2,-2.600488935E0,2.602221763E0
1.521799108E1,2.684538933E-2,1.249198787E-1,-2.293642845E0,2.297198980E0
1.522799008E1,-3.109096125E-2,-6.985129500E-2,-2.028424838E0,2.029865309E0
1.523798908E1,-8.177745877E-2,-7.673860241E-2,-1.703340697E0,1.707028382E0
1.524798708E1,-8.052968122E-3,-8.386414731E-2,-1.401297510E0,1.403827895E0
1.525798608E1,4.188846622E-2,1.262104505E-1,-1.147918360E0,1.155595207E0
1.526798508E1,2.423391318E-2,-9.471484367E-3,-8.795738465E-1,8.799586030E-1
1.527798408E1,9.136237912E-2,-1.586566684E-1,-6.098663467E-1,6.367542568E-1
1.528798308E1,1.923196554E-1,1.735199252E-1,-4.539099956E-1,5.226186931E-1
1.529798208E1,1.117280485E-1,-2.138396383E-1,-3.000446087E-1,3.850159931E-1
1.530798008E1,6.772477230E-2,1.209683120E-1,-2.226654804E-1,2.622973379E-1
1.531797908E1,7.387483718E-2,-4.558617231E-2,-9.257662654E-2,1.269095050E-1
1.532797808E1,-4.358598601E-2,-2.633634535E-1,-8.014836967E-2,2.787181515E-1
1.533797708E1,-1.018693506E-1,9.499472430E-2,-1.062053168E-1,1.751597315E-1
1.534797608E1,1.759176856E-2,3.281072970E-1,-1.048902780E-1,3.449142489E-1
1.535797408E1,-2.029365728E-2,-1.208738247E-2,-1.077712011E-1,1.103293666E-1
1.536797308E1,-5.058236226E-2,-2.023631985E-1,-8.877184331E-2,2.266933603E-1
1.537797208E1,6.238047201E-2,-8.110493761E-2,-1.808380079E-1,2.077780530E-1
1.538797108E1,6.780983102E-2,2.794786356E-3,-2.224573195E-1,2.325795413E-1
1.539797008E1,1.103017299E-1,5.162479291E-2,-3.720051223E-1,3.914324998E-1
1.540796808E1,1.216453465E-1,8.050031723E-2,-4.640870744E-1,4.864716888E-1
1.541796708E1,2.868212767E-2,2.534513997E-2,-6.107913762E-1,6.119894982E-1
1.542796608E1,-3.921846310E-2,-1.644038419E-1,-8.279984808E-1,8.450728935E-1
1.543796508E1,-1.564528894E-1,-1.823187787E-1,-1.038015849E0,1.065455089E0
1.544796408E1,-1.332789120E-1,-1.427966807E-1,-1.317204024E0,1.331608276E0
1.545796208E1,-5.259632606E-2,-7.584280897E-2,-1.523362815E0,1.526156208E0
1.546796108E1,1.049938102E-1,6.895319922E-2,-1.892829076E0,1.896992397E0
1.547796008E1,2.300523227E-1,4.532560576E-2,-2.274279791E0,2.286334850E0
1.548795908E1,2.802234978E-1,-3.489722455E-2,-2.655124733E0,2.670099319E0
1.549795808E1,2.041396922E-1,-1.198931004E-1,-2.988068701E0,2.997432557E0
1.550795608E1,1.332392605E-1,-2.682831363E-1,-3.304828160E0,3.318375764E0
1.551795508E1,7.196572127E-2,-2.749722231E-1,-3.664092200E0,3.675100058E0
1.552795408E1,2.811690291E-2,-1.760212727E-1,-3.881604529E0,3.885695275E0
1.553795308E1,1.477055644E-1,-1.784490001E-1,-4.096572735E0,4.103117004E0
1.554795208E1,6.225269208E-2,-8.227269966E-3,-4.150486987E0,4.150961974E0
1.555795008E1,6.771848654E-2,-5.161099713E-2,-4.195713446E0,4.196577273E0
1.556794908E1,1.142273129E-1,-1.565783670E-1,-4.170147665E0,4.174649232E0
1.557794808E1,2.543248275E-2,-1.178453873E-1,-4.000275525E0,4.002091781E0
1.558794708E1,1.741704096E-1,-2.100494913E-1,-3.869906589E0,3.879514548E0
1.559794608E1,1.521304631E-1,-2.097610043E-1,-3.679344662E0,3.688457740E0
1.560794408E1,1.795714462E-1,-1.428345232E-1,-3.593859538E0,3.601176750E0
1.561794308E1,1.966029601E-1,-1.743067960E-1,-3.426164317E0,3.436224310E0
1.562794208E1,1.220586350E-1,-1.051458561E-1,-3.260716181E0,3.264693550E0
1.563794108E1,-1.121135993E-2,9.319571877E-2,-3.092157910E0,3.093582338E0
1.564794008E1,-7.205699265E-2,1.624765082E-1,-2.892651497E0,2.898106884E0
1.565793808E1,-7.951688865E-2,-2.487140587E-2,-2.591051529E0,2.592390701E0
1.566793708E1,6.878934927E-2,-4.192338871E-1,-2.135680899E0,2.177526562E0
1.567793608E1,8.139187144E-2,-2.969674201E-1,-1.978928742E0,2.002741434E0
1.568793508E1,-4.483383665E-2,3.186145982E-2,-1.812321687E0,1.813156122E0
1.569793408E1,4.100171769E-2,2.120249914E-1,-1.720574781E0,1.734074195E0
1.570793208E1,1.066510573E-1,-2.347563894E-2,-1.384976177E0,1.389274834E0
1.571793108E1,2.748881511E-1,-1.858374869E-1,-1.155337307E0,1.202041331E0
1.572793008E1,-1.232968012E-1,-1.347072406E-2,-1.218086118E0,1.224384479E0
1.573792908E1,-4.037655167E-1,3.669416528E-2,-9.880320954E-1,1.067979623E0
1.574792808E1,3.680532085E-1,-4.098499831E-2,-7.778667927E-1,8.615217244E-1
1.575792608E1,-5.038227785E-2,-1.589035671E-2,-5.238690072E-1,5.265259862E-1
1.576792508E1,-3.109661477E-1,9.337912034E-2,-5.382601744E-1,6.286045024E-1
1.577792408E1,2.227593099E-1,-4.299147036E-2,-3.637131858E-1,4.286691710E-1
1.578792308E1,3.503813148E-1,-1.387236382E-1,-2.345253879E-1,4.438619956E-1
1.579792208E1,-6.166697283E-1,1.806994289E-2,-2.536890525E-1,6.670578775E-1
1.580792008E1,1.658429696E-1,-1.156496481E-1,1.278780216E-1,2.392311018E-1
1.581791908E1,4.531000100E-1,5.230334401E-3,5.559708059E-2,4.565282147E-1
1.582791808E1,-4.280176841E-1,1.476771506E-1,-1.469288349E-1,4.760207572E-1
1.583791708E1,2.047412062E-1,-6.793790331E-2,1.639799005E-1,2.709685000E-1
1.584791608E1,1.075060847E-1,2.432112806E-2,3.555990046E-1,3.722898436E-1
1.585791408E1,-1.524450982E-1,-6.988593975E-2,6.317518902E-1,6.536313971E-1
1.586791308E1,3.000694228E-2,-1.255288662E-1,7.185596538E-1,7.300588256E-1
1.587791208E1,1.207914338E-1,4.027684567E-2,8.492338139E-1,8.587263041E-1
1.588791108E1,-6.286136895E-2,4.271096846E-2,8.309577566E-1,8.344258936E-1
1.589791008E1,3.363428079E-3,1.114332027E-1,7.140491116E-1,7.226996645E-1
1.590790808E1,2.857900289E-1,3.353458576E-2,9.491907960E-1,9.918486156E-1
1.591790708E1,-2.792285941E-1,5.816163283E-2,8.967734313E-1,9.410387720E-1
1.592790608E1,2.464631364E-1,-6.578605486E-2,1.274708800E0,1.299982464E0
1.593790508E1,-2.457164470E-3,-2.669879963E-1,1.300331883E0,1.327460596E0
1.594790408E1,-1.331389991E-1,7.914257549E-2,1.308564178E0,1.317698656E0
1.595790208E1,6.980833624E-2,1.696658061E-1,1.539701105E0,1.550593171E0
1.596790108E1,1.112025848E-1,-1.796721462E-3,1.566042811E0,1.569987048E0
1.597790008E1,-2.569018965E-1,6.935382485E-2,1.895200707E0,1.913790547E0
1.598789908E1,3.275127813E-1,-3.514891064E-2,1.800158894E0,1.830047024E0
1.599789808E1,-1.644748490E-1,-2.627395190E-2,2.043421192E0,2.050198152E0
1.600789608E1,-3.945481121E-1,4.337417062E-2,1.907079910E0,1.947948489E0
1.601789508E1,4.806071397E-2,2.736679651E-3,2.161265391E0,2.161801428E0
1.602789408E1,7.624206416E-2,7.408327214E-2,2.126296703E0,2.128952524E0
1.603789308E1,1.836259055E-1,-5.075255278E-3,1.989198207E0,1.997662068E0
1.604789208E1,-3.561032539E-1,2.525692741E-1,2.269272235E0,2.310886679E0
1.605789046E1,6.963706763E-2,1.374781630E-1,1.927676727E0,1.933827069E0
1.606788946E1,-2.773625648E-1,1.440719402E-1,2.266706477E0,2.288153179E0
