"Time (s)","Linear Acceleration x (m/s^2)","Linear Acceleration y (m/s^2)","Linear Acceleration z (m/s^2)","Absolute acceleration (m/s^2)"
3.085174999E-2,-9.309615165E-2,3.364128831E-2,-3.015409112E-2,1.034789783E-1
4.084974999E-2,-1.063551517E-1,2.647142791E-2,-2.222760558E-2,1.118312176E-1
5.084874999E-2,-1.134316713E-1,3.033344989E-2,-2.522547305E-2,1.200965725E-1
6.084674998E-2,-1.228291702E-1,2.014669573E-2,-4.737706482E-2,1.331821334E-1
7.084474998E-2,-1.304900459E-1,1.165371093E-2,-4.992469668E-2,1.401996305E-1
8.084374998E-2,-1.282220571E-1,-8.644117056E-3,-3.779874086E-2,1.339565658E-1
9.084175003E-2,-1.248130573E-1,-2.221513000E-2,-2.326957941E-2,1.288925312E-1
1.008397500E-1,-1.131673041E-1,-2.510921395E-2,-2.641538143E-2,1.188910582E-1
1.108377500E-1,-9.801709525E-2,-3.133588193E-2,-3.045405328E-2,1.073160651E-1
1.208367500E-1,-9.734663889E-2,-4.629728052E-2,-4.481773853E-2,1.167408925E-1
1.308347500E-1,-1.055771796E-1,-5.042714153E-2,-4.870906055E-2,1.267359856E-1
1.408327500E-1,-1.007449675E-1,-5.065572198E-2,-3.644277155E-2,1.185058068E-1
1.508317500E-1,-1.207702924E-1,-4.325507015E-2,-2.536288261E-2,1.307659759E-1
1.608297500E-1,-1.209087253E-1,-2.344525170E-2,-2.386482596E-2,1.254517022E-1
1.708277500E-1,-1.329045805E-1,-3.186119487E-2,-2.341634452E-2,1.386617772E-1
1.808267500E-1,-1.336030304E-1,-1.476299069E-2,-4.511594653E-2,1.417856279E-1
1.908247500E-1,-1.221112783E-1,1.169304259E-2,-5.245244801E-2,1.334134582E-1
2.008227500E-1,-1.088204840E-1,7.731782394E-3,-4.257474661E-2,1.171080153E-1
2.108217500E-1,-1.021474953E-1,3.126119288E-2,-4.017212570E-2,1.141278785E-1
2.208197500E-1,-9.554657355E-2,2.768559310E-2,-3.102766514E-2,1.042034346E-1
2.308177500E-1,-9.135930933E-2,3.614546805E-2,-4.763200343E-2,1.091871147E-1
2.408167500E-1,-9.699295543E-2,4.080389451E-2,-4.792728782E-2,1.156270562E-1
2.508147500E-1,-1.094693056E-1,4.444194986E-2,-3.715379298E-2,1.238507978E-1
2.608127500E-1,-1.181278626E-1,4.482498360E-2,-2.308188379E-2,1.284377064E-1
2.708117500E-1,-1.234142572E-1,4.054895591E-2,-2.428348660E-2,1.321551528E-1
2.808097500E-1,-1.343893348E-1,3.007245851E-2,-3.895648956E-2,1.431169247E-1
2.908077500E-1,-1.349622157E-1,3.199861357E-2,-5.212792754E-2,1.481756787E-1
3.008067500E-1,-1.223243362E-1,2.324829189E-2,-4.494988561E-2,1.323790713E-1
3.108047500E-1,-1.086586623E-1,8.200528091E-3,-2.758307040E-2,1.124045343E-1
3.208027500E-1,-9.452499188E-2,1.259021561E-2,-2.712991118E-2,9.914393426E-2
3.308017500E-1,-1.002835491E-1,-1.670584687E-2,-2.936997950E-2,1.058228295E-1
3.407997500E-1,-9.931810074E-2,-1.532423660E-2,-2.966467917E-2,1.047802966E-1
3.507977500E-1,-1.125215522E-1,-1.863870339E-2,-4.851668715E-2,1.239450278E-1
3.607957500E-1,-1.279707731E-1,-1.921652250E-2,-5.180106819E-2,1.393884649E-1
3.707947500E-1,-1.356364728E-1,-2.609043156E-2,-2.231531382E-2,1.399140329E-1
3.807927500E-1,-1.328345601E-1,-2.235971154E-2,-2.306785047E-2,1.366641972E-1
3.907907500E-1,-1.338681286E-1,-3.610313055E-2,-3.086218894E-2,1.420443121E-1
4.007897500E-1,-1.278560945E-1,-2.093381319E-2,-5.377450347E-2,1.402750964E-1
4.107877500E-1,-1.178796483E-1,-1.910630705E-2,-5.901828647E-2,1.332059330E-1
4.207857500E-1,-9.839811444E-2,-1.105063916E-2,-4.195260286E-2,1.075375583E-1
4.307847500E-1,-8.319827735E-2,2.581970547E-3,-1.396607459E-2,8.440184338E-2
4.407827500E-1,-8.566806816E-2,1.018728863E-2,-1.291299105E-2,8.723270080E-2
4.507807500E-1,-1.036678445E-1,2.425013920E-2,-3.191527247E-2,1.111470910E-1
4.607797500E-1,-1.324677204E-1,2.548467829E-3,-5.735533834E-2,1.443739121E-1
4.707777500E-1,-1.386167255E-1,1.285125724E-2,-4.821321666E-2,1.473236765E-1
4.807757500E-1,-1.424571037E-1,1.071931216E-2,-4.192278206E-2,1.488840142E-1
4.907747500E-1,-1.372182177E-1,6.728774775E-3,-3.638488412E-2,1.421195816E-1
5.007727500E-1,-1.183418707E-1,1.536526761E-2,-3.338994026E-2,1.239184325E-1
5.107707500E-1,-9.845600188E-2,2.167050754E-2,-3.997799814E-2,1.084501523E-1
5.207697500E-1,-8.974116549E-2,8.385957917E-4,-2.711470842E-2,9.375173299E-2
5.307677500E-1,-9.044005394E-2,7.129386705E-3,-2.172240615E-2,9.328501723E-2
5.407657500E-1,-9.085527934E-2,-3.923070570E-4,-2.021207035E-2,9.307719096E-2
5.507637500E-1,-1.251608936E-1,3.535674261E-3,-4.026100338E-2,1.315245174E-1
5.607627500E-1,-1.483108974E-1,-3.121974617E-2,-4.759165764E-2,1.588576744E-1
5.707607500E-1,-1.577688418E-1,-1.748947426E-2,-5.701210678E-2,1.686631835E-1
5.807587500E-1,-1.439804495E-1,-1.044196685E-2,-3.620420516E-2,1.488292612E-1
5.907577500E-1,-1.252051862E-1,-1.117451333E-2,-2.169083118E-2,1.275605761E-1
6.007557500E-1,-1.103327201E-1,-8.415477220E-3,-1.689611435E-2,1.119357319E-1
6.107537500E-1,-9.600499526E-2,-6.012093429E-3,-2.528160632E-2,9.945986125E-2
6.207527500E-1,-9.352789544E-2,-1.235919577E-2,-4.115328848E-2,1.029262362E-1
6.307507500E-1,-1.058927100E-1,-8.219988355E-3,-5.536845446E-2,1.197768759E-1
6.407487500E-1,-1.251258834E-1,-9.084238806E-3,-4.069311261E-2,1.318898764E-1
6.507477500E-1,-1.329164942E-1,-1.254780502E-3,-2.406597018E-2,1.350834551E-1
6.607457500E-1,-1.353175803E-1,6.892149635E-3,-1.971330285E-2,1.369195514E-1
6.707437500E-1,-1.401220912E-1,1.759554184E-2,-4.425114334E-2,1.479931323E-1
6.807427500E-1,-1.349829002E-1,2.002420113E-2,-5.277930737E-2,1.463113368E-1
6.907407500E-1,-1.288115296E-1,6.217974806E-3,-4.678941965E-2,1.371871829E-1
7.007387500E-1,-1.152767602E-1,3.859532350E-3,-4.154505193E-2,1.225953457E-1
7.107377500E-1,-1.151215898E-1,-1.197888921E-3,-1.204467952E-2,1.157561647E-1
7.207357500E-1,-1.126303104E-1,9.406201118E-3,-1.832400441E-2,1.144981772E-1
7.307337500E-1,-1.080031163E-1,5.454401532E-3,-3.374311209E-2,1.132829257E-1
7.407327500E-1,-1.180300679E-1,2.448009923E-3,-4.736420095E-2,1.272024261E-1
7.507307500E-1,-1.254541314E-1,1.700927624E-3,-4.421606004E-2,1.330289150E-1
7.607287500E-1,-1.297092234E-1,8.390384442E-3,-2.610957205E-2,1.325767360E-1
7.707267500E-1,-1.348986273E-1,-2.283867616E-3,-2.895014942E-2,1.379890098E-1
7.807257500E-1,-1.392643046E-1,-1.988337003E-2,-3.179598927E-2,1.442251014E-1
7.907237500E-1,-1.305301724E-1,-1.222781614E-2,-4.676018357E-2,1.391910923E-1
8.007217500E-1,-1.146989091E-1,-2.370156074E-2,-4.480662882E-2,1.254003099E-1
8.107207500E-1,-1.042141937E-1,-1.410974707E-2,-4.211164713E-2,1.132831583E-1
8.207187500E-1,-1.064103348E-1,-6.176683414E-3,-2.025241613E-2,1.084964107E-1
8.307167500E-1,-1.130440740E-1,-3.632683223E-3,-2.443551421E-2,1.157119415E-1
8.407157500E-1,-1.236217602E-1,-1.373578108E-2,-2.950855851E-2,1.278349182E-1
8.507137500E-1,-1.238666855E-1,-1.240370770E-2,-3.353378177E-2,1.289237071E-1
8.607117500E-1,-1.256921862E-1,-8.952909429E-3,-3.548207402E-2,1.309108775E-1
8.707107500E-1,-1.297982472E-1,-5.997534776E-3,-3.803204477E-2,1.353883002E-1
8.807087500E-1,-1.360761834E-1,8.502911367E-3,-3.937807381E-2,1.419142695E-1
8.907067500E-1,-1.281915785E-1,1.468320361E-2,-3.833434582E-2,1.346038608E-1
9.007057500E-1,-1.221218763E-1,1.297992339E-2,-3.996338010E-2,1.291483753E-1
9.107037500E-1,-1.162854780E-1,1.301449962E-2,-4.698705554E-2,1.260931124E-1
9.207017500E-1,-1.136210480E-1,1.381618944E-2,-3.754731059E-2,1.204592470E-1
9.307007500E-1,-1.111046257E-1,1.387126290E-2,-2.930507541E-2,1.157386592E-1
9.406987500E-1,-1.134788876E-1,6.014276999E-3,-1.761649132E-2,1.149955226E-1
9.506967500E-1,-1.181220885E-1,1.060963119E-2,-2.794559777E-2,1.218455928E-1
9.606947500E-1,-1.247075882E-1,-1.519385283E-3,-4.426225305E-2,1.323383471E-1
9.706937500E-1,-1.346538482E-1,-2.543447446E-3,-4.741097867E-2,1.427793012E-1
9.806917500E-1,-1.383473881E-1,-1.185070728E-2,-4.336529016E-2,1.454681665E-1
9.906897500E-1,-1.209474631E-1,-1.932794850E-2,-2.809411705E-2,1.256627941E-1
1.000688750E0,-1.144286216E-1,-1.632173505E-2,-1.911805630E-2,1.171571959E-1
1.010686750E0,-1.099188104E-1,-1.654638690E-2,-3.513357997E-2,1.165774259E-1
1.020684750E0,-1.104771464E-1,-2.244611329E-2,-3.858519137E-2,1.191547098E-1
1.030683750E0,-1.194540842E-1,-2.353308784E-2,-4.487153292E-2,1.297556893E-1
1.040681750E0,-1.264741051E-1,-1.971014170E-4,-3.573935151E-2,1.314269354E-1
1.050679750E0,-1.338682017E-1,2.306680894E-4,-2.660073817E-2,1.364857058E-1
1.060678750E0,-1.339909932E-1,-2.613888122E-4,-3.243625939E-2,1.378613996E-1
1.070676750E0,-1.344597937E-1,2.264576373E-3,-3.767711878E-2,1.396571864E-1
1.080674750E0,-1.284258326E-1,2.478703237E-3,-5.939016938E-2,1.415151252E-1
1.090673750E0,-1.242705819E-1,1.246297014E-2,-5.505212009E-2,1.364889705E-1
1.100671750E0,-1.122043408E-1,1.404815031E-2,-3.859103858E-2,1.194840277E-1
1.110669750E0,-1.050837477E-1,1.526819926E-2,-2.078275859E-2,1.082018253E-1
1.120667750E0,-1.039451487E-1,1.244465191E-2,-2.900862157E-2,1.086322393E-1
1.130666750E0,-1.081272966E-1,1.279617007E-2,-3.348700404E-2,1.139150283E-1
1.140664750E0,-1.329015838E-1,1.063189172E-2,-4.171462119E-2,1.396995982E-1
1.150662750E0,-1.343915275E-1,9.816470090E-4,-4.963525951E-2,1.432679492E-1
1.160661750E0,-1.324933020E-1,-8.251211573E-3,-3.823903620E-2,1.381476799E-1
1.170659750E0,-1.295976877E-1,-1.229044074E-2,-2.236793876E-2,1.320868664E-1
1.180657750E0,-1.280292452E-1,-7.586287223E-3,-5.142509222E-2,1.381795191E-1
1.190656750E0,-1.238584994E-1,-4.922282067E-3,-4.827110410E-2,1.330235175E-1
1.200654750E0,-1.211060688E-1,4.743215656E-3,-3.973475397E-2,1.275461825E-1
1.210652750E0,-1.134196115E-1,-4.572134349E-3,-3.718595266E-2,1.194475104E-1
1.220651750E0,-1.099358404E-1,1.423111791E-2,-1.113660693E-2,1.114111203E-1
1.230649750E0,-1.137042978E-1,-1.236166256E-2,-3.627378702E-2,1.199886064E-1
1.240647750E0,-1.262200436E-1,1.926209423E-2,-4.974167883E-2,1.370283266E-1
1.250646750E0,-1.358521619E-1,-2.206162688E-2,-5.527256012E-2,1.483158157E-1
1.260644750E0,-1.405529579E-1,6.161416699E-3,-4.388920069E-2,1.473748926E-1
1.270642750E0,-1.273291873E-1,-2.010894465E-2,-2.696969748E-2,1.316983530E-1
1.280640750E0,-1.171773977E-1,-6.308506150E-4,-5.554854870E-3,1.173106854E-1
1.290639750E0,-1.192590065E-1,-6.841712832E-3,-1.886370242E-2,1.209353502E-1
1.300637750E0,-1.154848480E-1,3.130443944E-3,-3.411674917E-2,1.204595466E-1
1.310635750E0,-1.137360920E-1,-9.688548543E-3,-4.638362288E-2,1.232120411E-1
1.320634750E0,-1.296645653E-1,7.398326648E-3,-4.966975808E-2,1.390493423E-1
1.330632750E0,-1.205130880E-1,-6.771783787E-3,-2.884957731E-2,1.241030199E-1
1.340630750E0,-1.352845435E-1,1.562357750E-2,-1.402688563E-2,1.369041906E-1
1.350629750E0,-1.302340110E-1,9.697840135E-3,-3.468626797E-2,1.351224737E-1
1.360627750E0,-1.311154056E-1,1.236536732E-2,-4.546210170E-2,1.393232019E-1
1.370625750E0,-1.306851237E-1,1.046408120E-2,-5.219867885E-2,1.411127231E-1
1.380624750E0,-1.204895530E-1,2.202393518E-2,-4.052178919E-2,1.290147337E-1
1.390622750E0,-1.038314203E-1,7.562482660E-3,-3.333380699E-2,1.093128432E-1
1.400620750E0,-1.100073226E-1,6.046573729E-3,-1.627280116E-2,1.113686497E-1
1.410619750E0,-1.170589916E-1,1.805304992E-3,-1.775916338E-2,1.184122228E-1
1.420617750E0,-1.294780391E-1,-3.322703135E-3,-4.558898628E-2,1.373097179E-1
1.430615750E0,-1.341766423E-1,1.088463762E-3,-6.116070628E-2,1.474624972E-1
1.440614750E0,-1.203171332E-1,-8.029040219E-3,-4.096910119E-2,1.273544082E-1
1.450612750E0,-1.280005939E-1,-1.511539507E-2,-2.629200518E-2,1.315442767E-1
1.460610750E0,-1.341417052E-1,-1.784651073E-2,-1.895725787E-2,1.366450608E-1
1.470608750E0,-1.292593532E-1,-8.041675687E-3,-3.272160351E-2,1.335790114E-1
1.480607750E0,-1.313601116E-1,-3.868851350E-3,-4.305012524E-2,1.382886843E-1
1.490605750E0,-1.195299518E-1,-8.499096972E-3,-5.322895825E-2,1.311219510E-1
1.500603750E0,-1.171624873E-1,-3.044119854E-3,-2.956820011E-2,1.208742882E-1
1.510602750E0,-1.129481066E-1,1.844828515E-3,-4.047033370E-2,1.199938585E-1
1.520600750E0,-1.219976230E-1,4.457775601E-3,-3.837995410E-2,1.279699678E-1
1.530598750E0,-1.276929572E-1,5.298385941E-3,-4.257182300E-2,1.347068088E-1
1.540597750E0,-1.238704131E-1,-1.910892916E-3,-4.076854169E-2,1.304208754E-1
1.550595750E0,-1.209720945E-1,2.409349778E-3,-2.774036050E-2,1.241353302E-1
1.560593750E0,-1.235421650E-1,-5.831574351E-3,-2.355141521E-2,1.259021166E-1
1.570592750E0,-1.274766102E-1,6.059629465E-3,-4.434937656E-2,1.351068928E-1
1.580590750E0,-1.300661959E-1,2.398820221E-4,-4.598776639E-2,1.379570495E-1
1.590588750E0,-1.312666292E-1,3.660950856E-3,-3.983883440E-2,1.372277787E-1
1.600586750E0,-1.283045029E-1,-6.816752530E-3,-2.560905039E-2,1.310127362E-1
1.610585750E0,-1.229875566E-1,3.410986955E-3,-2.799822271E-2,1.261803249E-1
1.620583750E0,-1.186956272E-1,-5.143539794E-4,-1.914670765E-2,1.202310812E-1
1.630581750E0,-1.246783521E-1,-6.463123891E-3,-3.260758281E-2,1.290337859E-1
1.640580750E0,-1.245882319E-1,-1.042466731E-2,-4.800680995E-2,1.339236910E-1
1.650578750E0,-1.262626552E-1,4.026031815E-3,-4.874472857E-2,1.354050058E-1
1.660576750E0,-1.274150683E-1,-4.777330505E-3,-3.241287053E-2,1.315599357E-1
1.670575750E0,-1.252328143E-1,6.430470846E-3,-3.346595407E-2,1.297866666E-1
1.680573750E0,-1.232063887E-1,-6.883885874E-3,-2.073598087E-2,1.251286657E-1
1.690571750E0,-1.167778867E-1,-9.721635561E-3,-3.091481388E-2,1.211912156E-1
1.700570750E0,-1.263264629E-1,-1.069312760E-2,-3.420621157E-2,1.313117783E-1
1.710568750E0,-1.282967553E-1,-2.187196696E-3,-2.551432550E-2,1.308274515E-1
1.720566750E0,-1.343725240E-1,-1.277482317E-2,-3.344314992E-2,1.390597555E-1
1.730565750E0,-1.366141272E-1,-9.984006523E-3,-2.325203776E-2,1.389379624E-1
1.740563750E0,-1.434069838E-1,-1.207882635E-2,-2.878408849E-2,1.467650667E-1
1.750561750E0,-1.328412113E-1,2.098615947E-3,-3.087212920E-2,1.363975072E-1
1.760559750E0,-1.273702640E-1,-4.885481154E-3,-4.987558007E-2,1.368744884E-1
1.770558750E0,-1.228108976E-1,-1.131328878E-2,-4.687595844E-2,1.319388591E-1
1.780556750E0,-1.170764601E-1,-4.329940849E-3,-4.269286036E-2,1.246929277E-1
1.790554750E0,-1.007065952E-1,8.330706297E-3,-3.819752097E-2,1.080290220E-1
1.800553750E0,-1.091289246E-1,1.089391551E-2,-2.591427505E-2,1.126913893E-1
1.810551750E0,-1.241040093E-1,2.634408195E-3,-2.546579361E-2,1.267172123E-1
1.820549750E0,-1.307061736E-1,-2.756573888E-3,-3.399922013E-2,1.350838610E-1
1.830548750E0,-1.377448326E-1,6.550462106E-3,-5.150110602E-2,1.472036391E-1
1.840546750E0,-1.405487917E-1,5.511128660E-3,-3.817530155E-2,1.457452882E-1
1.850544750E0,-1.437538699E-1,1.446637698E-4,-2.499567747E-2,1.459108630E-1
1.860543750E0,-1.386783405E-1,-6.040374767E-3,-2.483546376E-2,1.410140721E-1
1.870541750E0,-1.233032332E-1,-6.255132034E-3,-3.665151715E-2,1.287872187E-1
1.880539500E0,-1.136924572E-1,3.802197659E-4,-3.141065776E-2,1.179523158E-1
1.890537500E0,-1.163454120E-1,-2.011876157E-3,-4.085040271E-2,1.233250094E-1
1.900536500E0,-1.183989541E-1,1.449383605E-2,-1.046008408E-2,1.197405403E-1
1.910534500E0,-1.144039902E-1,-1.588624996E-2,-2.527108133E-2,1.182339776E-1
1.920532500E0,-1.317333101E-1,1.162801973E-2,-4.008734107E-2,1.381878097E-1
1.930531500E0,-1.289349058E-1,-2.402604923E-2,-4.501888275E-2,1.386656439E-1
1.940529500E0,-1.465239152E-1,9.319159831E-3,-5.623910487E-2,1.572225855E-1
1.950527500E0,-1.312123963E-1,-1.994884971E-2,-4.156610191E-2,1.390769225E-1
1.960526500E0,-1.293943508E-1,-1.253186222E-3,-2.329004467E-2,1.314796360E-1
1.970524500E0,-1.138859269E-1,-7.155091614E-3,-2.252230525E-2,1.163118821E-1
1.980522500E0,-1.156040581E-1,4.323010985E-3,-2.910217702E-2,1.192892425E-1
1.990521500E0,-1.205000049E-1,-1.417609469E-2,-4.989312172E-2,1.311889341E-1
2.000519500E0,-1.284450553E-1,1.038913177E-3,-5.916212797E-2,1.414191252E-1
2.010517500E0,-1.298252906E-1,-6.014866289E-3,-2.758073151E-2,1.328588779E-1
2.020516500E0,-1.307378948E-1,5.968668717E-3,-1.440929353E-2,1.316649151E-1
2.030514500E0,-1.443067972E-1,8.961680252E-4,-2.233870268E-2,1.460283277E-1
2.040512500E0,-1.368502817E-1,1.248328465E-2,-4.838629425E-2,1.456882475E-1
2.050510500E0,-1.313942447E-1,-5.658505904E-4,-5.707467198E-2,1.432560153E-1
2.060509500E0,-1.269479489E-1,2.888337239E-3,-2.922438383E-2,1.303003792E-1
2.070507500E0,-1.169876555E-1,4.712275662E-3,-6.764059067E-3,1.172777455E-1
2.080505500E0,-1.159423196E-1,-2.564141108E-4,-1.573310316E-2,1.170052039E-1
2.090504500E0,-1.212739570E-1,-1.985289599E-3,-2.920099497E-2,1.247558100E-1
2.100502500E0,-1.328168723E-1,-8.305924153E-3,-5.538658082E-2,1.441422328E-1
2.110500500E0,-1.358284807E-1,-7.961856625E-3,-6.330955803E-2,1.500695421E-1
2.120499500E0,-1.427433980E-1,-1.835236798E-2,-5.221037328E-2,1.530960814E-1
2.130497500E0,-1.373404245E-1,-3.855156074E-3,-2.182180882E-2,1.391166625E-1
2.140495500E0,-1.335520135E-1,-5.372467423E-3,-2.106985688E-2,1.353105413E-1
2.150494500E0,-1.217377874E-1,1.279432911E-2,-4.292441010E-2,1.297161852E-1
2.160492500E0,-1.226328499E-1,3.031059550E-3,-4.636783540E-2,1.311410666E-1
2.170490500E0,-1.238310175E-1,-5.344697717E-3,-3.993122041E-2,1.302197721E-1
2.180488500E0,-1.171407064E-1,2.009843336E-3,-4.022299647E-2,1.238703920E-1
2.190487500E0,-1.093893450E-1,5.607772171E-3,-3.483712614E-2,1.149395548E-1
2.200485500E0,-1.255043444E-1,1.319839912E-3,-2.059974074E-2,1.271905333E-1
2.210483500E0,-1.241214048E-1,2.630835911E-4,-3.586448193E-2,1.291992779E-1
2.220482500E0,-1.276512227E-1,-5.147605436E-4,-3.990081489E-2,1.337429425E-1
2.230480500E0,-1.345904059E-1,-8.985439134E-3,-3.121126771E-2,1.384538143E-1
2.240478500E0,-1.333717000E-1,-6.317135361E-3,-1.743815124E-2,1.346551361E-1
2.250477500E0,-1.321471468E-1,-1.063016497E-2,-3.062069893E-2,1.360643084E-1
2.260475500E0,-1.352375465E-1,5.703132036E-3,-4.528551579E-2,1.427322586E-1
2.270473500E0,-1.353853349E-1,-1.437759980E-2,-4.827929020E-2,1.444534324E-1
2.280472500E0,-1.292578914E-1,2.054053769E-3,-4.468676090E-2,1.367798531E-1
2.290470500E0,-1.245980260E-1,-6.273299516E-3,-3.839866519E-2,1.305315282E-1
2.300468500E0,-1.189714696E-1,7.932670796E-3,-1.938176572E-2,1.208006237E-1
2.310466500E0,-1.244464369E-1,-4.241519985E-3,-3.060374200E-2,1.282243938E-1
2.320465500E0,-1.285301323E-1,9.291929165E-3,-3.778002977E-2,1.342894840E-1
2.330463500E0,-1.210712048E-1,7.035136898E-3,-4.809861124E-2,1.304653447E-1
2.340461500E0,-1.351222102E-1,3.105734889E-3,-4.149944365E-2,1.413855052E-1
2.350460500E0,-1.293366095E-1,-8.182442836E-3,-3.445588768E-2,1.340974240E-1
2.360458500E0,-1.237699872E-1,-8.230970157E-3,-1.992146373E-2,1.256328910E-1
2.370456500E0,-1.221731856E-1,-1.050992246E-2,-2.935536146E-2,1.260891867E-1
2.380455500E0,-1.327841279E-1,-1.536608987E-2,-4.117843151E-2,1.398692409E-1
2.390453500E0,-1.328349256E-1,-8.311026762E-3,-4.895405889E-2,1.418121663E-1
2.400451500E0,-1.219069181E-1,-6.134117511E-3,-3.696726680E-2,1.275362807E-1
2.410450500E0,-1.331253129E-1,-1.755575337E-2,-2.050092280E-2,1.358338737E-1
2.420448500E0,-1.267674892E-1,-1.080858727E-2,-1.778898418E-2,1.284650529E-1
2.430446500E0,-1.277911904E-1,5.113440338E-3,-3.334199309E-2,1.321681661E-1
2.440444500E0,-1.309033710E-1,5.295978533E-4,-5.115261197E-2,1.405438107E-1
2.450443500E0,-1.308250183E-1,7.222119891E-3,-4.381143272E-2,1.381549350E-1
2.460441500E0,-1.332354598E-1,1.225697456E-2,-3.378345788E-2,1.379972580E-1
2.470439500E0,-1.181146333E-1,4.412596724E-3,-3.002837598E-2,1.219517977E-1
2.480438500E0,-1.134311597E-1,1.018922552E-2,-3.451611400E-2,1.190034051E-1
2.490436500E0,-1.316254290E-1,1.254696448E-2,-4.018674374E-2,1.381942627E-1
2.500434500E0,-1.267870042E-1,6.637425735E-3,-3.898572564E-2,1.328114704E-1
2.510433500E0,-1.262359042E-1,-1.127830141E-2,-3.629483700E-2,1.318332992E-1
2.520431500E0,-1.343612681E-1,-9.988962952E-4,-3.448980153E-2,1.387209234E-1
2.530429500E0,-1.454345059E-1,3.977102498E-3,-2.040736735E-2,1.469131495E-1
2.540428500E0,-1.341952072E-1,-6.006940571E-3,-3.730932891E-2,1.394145724E-1
2.550426500E0,-1.378238431E-1,-2.427055878E-2,-4.059312522E-2,1.457129835E-1
2.560424500E0,-1.272416984E-1,-2.202147296E-2,-3.278826177E-2,1.332308717E-1
2.570422500E0,-1.216804115E-1,-4.724760382E-3,-2.993014276E-2,1.253964089E-1
2.580421500E0,-1.201803815E-1,-2.089269538E-3,-2.393031478E-2,1.225575338E-1
2.590419500E0,-1.117228226E-1,4.372867635E-3,-3.021080911E-2,1.158179781E-1
2.600417500E0,-1.208301533E-1,-4.085632302E-3,-3.783090055E-2,1.266798933E-1
2.610416500E0,-1.335222658E-1,1.177991029E-2,-4.456396937E-2,1.412547667E-1
2.620414500E0,-1.445212439E-1,-8.263760246E-3,-4.455812216E-2,1.514599152E-1
2.630412500E0,-1.357458888E-1,2.084896917E-2,-5.008958817E-2,1.461868417E-1
2.640411500E0,-1.283732808E-1,6.687794016E-3,-2.673580885E-2,1.312982455E-1
2.650409500E0,-1.232039036E-1,1.641907291E-2,-2.822626412E-2,1.274578746E-1
2.660407500E0,-1.313145033E-1,2.428558795E-4,-2.612068176E-2,1.338874444E-1
2.670406500E0,-1.290688071E-1,2.728333664E-3,-5.275241017E-2,1.394597345E-1
2.680404500E0,-1.242524555E-1,-3.485525250E-3,-6.307917774E-2,1.393908328E-1
2.690402500E0,-1.258861676E-1,3.744561472E-3,-3.866646767E-2,1.317438600E-1
2.700400500E0,-1.280584082E-1,-1.001954206E-2,-1.486011386E-2,1.293064968E-1
2.710399500E0,-1.267671968E-1,-6.772793345E-3,-1.395496488E-2,1.277127009E-1
2.720397500E0,-1.235297397E-1,-7.555233026E-3,-3.731166780E-2,1.292626732E-1
2.730395500E0,-1.362339120E-1,-9.853001484E-3,-4.914701700E-2,1.451626319E-1
2.740394500E0,-1.348189589E-1,-4.639423010E-3,-4.584860265E-2,1.424772624E-1
2.750392500E0,-1.212352192E-1,1.275899000E-3,-3.685792387E-2,1.267206094E-1
2.760390500E0,-1.232139900E-1,-2.862609490E-3,-2.651946187E-2,1.260680916E-1
2.770389500E0,-1.269688527E-1,-6.495977934E-3,-1.827547252E-2,1.284417384E-1
2.780387500E0,-1.320779304E-1,3.463607328E-4,-3.292274773E-2,1.361198258E-1
2.790385500E0,-1.241357305E-1,7.467981605E-3,-3.876002312E-2,1.302604688E-1
2.800383500E0,-1.307310974E-1,4.270267272E-3,-4.355006218E-2,1.378603022E-1
2.810382500E0,-1.341499644E-1,2.747533545E-3,-3.127383292E-2,1.377745060E-1
2.820380500E0,-1.302749415E-1,6.749779070E-3,-1.569509625E-2,1.313904713E-1
2.830378500E0,-1.339363217E-1,4.824158479E-3,-3.289058805E-2,1.380000057E-1
2.840377500E0,-1.344160858E-1,4.869268835E-4,-4.770041585E-2,1.426297686E-1
2.850375500E0,-1.353042778E-1,-2.541748099E-3,-4.873537302E-2,1.438361730E-1
2.860373500E0,-1.221953320E-1,-1.101066339E-2,-3.345952213E-2,1.271710403E-1
2.870372500E0,-1.211377899E-1,-1.433591098E-3,-2.447761416E-2,1.235943887E-1
2.880369958E0,-1.301109271E-1,-7.710832916E-4,-2.163294375E-2,1.318993259E-1
2.890367958E0,-1.212144616E-1,-8.668954019E-4,-3.135803282E-2,1.252079208E-1
2.900366958E0,-1.279386134E-1,5.179449921E-3,-3.330223203E-2,1.323032658E-1
2.910364958E0,-1.319666871E-1,-1.601511254E-3,-3.089376390E-2,1.355440740E-1
2.920362958E0,-1.351739580E-1,5.592962271E-3,-2.084590852E-2,1.368862011E-1
2.930360958E0,-1.293480116E-1,-3.746338477E-3,-1.935019076E-2,1.308410220E-1
2.940359958E0,-1.342822576E-1,2.177308963E-2,-3.969499290E-2,1.417091550E-1
2.950357958E0,-1.428806613E-1,-1.125554295E-2,-5.166307390E-2,1.523503982E-1
2.960355958E0,-1.336604062E-1,-4.245083132E-3,-5.225422740E-2,1.435744727E-1
2.970354958E0,-1.210247925E-1,-5.724305352E-3,-4.177133918E-2,1.281585457E-1
2.980352958E0,-1.232719506E-1,1.057113093E-2,-1.871927619E-2,1.251324654E-1
2.990350958E0,-1.251805548E-1,-1.316594708E-2,-2.440393925E-2,1.282149200E-1
3.000349958E0,-1.327220012E-1,-9.128051810E-4,-3.532302976E-2,1.373451100E-1
3.010347958E0,-1.242694125E-1,-1.949287653E-2,-4.744196892E-2,1.344380881E-1
3.020345958E0,-1.324246703E-1,-9.980991553E-3,-5.057900012E-2,1.421061179E-1
3.030344958E0,-1.377993578E-1,-7.881713226E-3,-2.751290381E-2,1.407399883E-1
3.040342958E0,-1.311290735E-1,-1.228973268E-2,-1.867425263E-2,1.330210478E-1
3.050340958E0,-1.268192370E-1,-1.314264044E-2,-2.120960534E-2,1.292505135E-1
3.060338958E0,-1.223109607E-1,-9.121775189E-3,-4.830209434E-2,1.318190813E-1
3.070337958E0,-1.260362948E-1,-4.859712292E-3,-5.294069052E-2,1.367899161E-1
3.080335958E0,-1.247964659E-1,1.225655886E-2,-3.796831012E-2,1.310189822E-1
3.090333958E0,-1.244588622E-1,1.327866586E-2,-1.221892655E-2,1.257602223E-1
3.100332958E0,-1.281704555E-1,8.717732588E-3,-2.358123600E-2,1.306129366E-1
3.110330958E0,-1.307329977E-1,1.482568838E-2,-2.834905565E-2,1.345904406E-1
3.120328958E0,-1.346997488E-1,2.319378031E-2,-3.956986248E-2,1.422945811E-1
3.130327958E0,-1.402428362E-1,9.027178204E-3,-4.719229281E-2,1.482452547E-1
3.140325958E0,-1.393645113E-1,9.221972711E-4,-3.535694361E-2,1.437825821E-1
3.150323958E0,-1.296264122E-1,-1.255776356E-3,-3.489559829E-2,1.342471098E-1
3.160321958E0,-1.232348207E-1,-1.339808611E-2,-2.440861702E-2,1.263412456E-1
3.170320958E0,-1.225053806E-1,-1.614027950E-3,-2.694280028E-2,1.254435644E-1
3.180318958E0,-1.290161821E-1,3.473168439E-3,-4.103225112E-2,1.354285191E-1
3.190316958E0,-1.127300785E-1,-1.680674788E-2,-5.061525285E-2,1.247094271E-1
3.200315958E0,-8.982470758E-2,-2.343115442E-2,-2.246149421E-2,9.550924464E-2
3.210313958E0,-1.329762089E-1,-1.502350242E-2,-1.393274546E-2,1.345455282E-1
3.220311958E0,-1.825680529E-1,2.024575579E-3,-5.150753796E-2,1.897056122E-1
3.230310958E0,-1.552321735E-1,-6.531527177E-3,-7.455199957E-2,1.723301749E-1
3.240308958E0,-1.106461309E-1,-1.194651025E-2,-3.786773801E-2,1.175553103E-1
3.250306958E0,-1.015199429E-1,-4.198228662E-2,-1.630788445E-3,1.098702447E-1
3.260305958E0,-1.444398214E-1,3.958482770E-3,1.424030900E-2,1.451940701E-1
3.270303958E0,-1.638907304E-1,2.818007568E-2,-4.113106906E-2,1.713068972E-1
3.280301958E0,-1.383556473E-1,5.431247472E-2,-8.110321999E-2,1.693217716E-1
3.290299958E0,-1.047223898E-1,-1.763056575E-2,-5.549826264E-2,1.198235074E-1
3.300298958E0,-1.043091378E-1,-2.713352915E-2,-7.438827753E-3,1.080368493E-1
3.310296958E0,-1.326562200E-1,-1.381453577E-2,-1.701071978E-2,1.344540022E-1
3.320294958E0,-1.504495896E-1,2.873445111E-2,-4.769632280E-2,1.604234612E-1
3.330293958E0,-1.285632422E-1,1.767184800E-2,-3.526982009E-2,1.344795957E-1
3.340291958E0,-1.348012711E-1,-9.710831917E-3,-1.266331494E-2,1.357425596E-1
3.350289958E0,-1.548031341E-1,-3.286555008E-2,-6.131916583E-2,1.697179861E-1
3.360288958E0,-1.599428366E-1,-4.363507521E-3,-7.269843221E-2,1.757436008E-1
3.370286958E0,-1.248478483E-1,1.776967923E-2,-2.493077338E-2,1.285468404E-1
3.380284958E0,-1.036337113E-1,2.605871041E-3,9.954299927E-3,1.041432896E-1
3.390283958E0,-1.175551278E-1,-1.309949439E-2,-3.374252737E-2,1.230014755E-1
3.400281958E0,-1.301267146E-1,-1.765704724E-2,-5.080587208E-2,1.408047222E-1
3.410279958E0,-1.172698568E-1,1.333440627E-2,-4.676544607E-2,1.269528757E-1
3.420277958E0,-1.273922642E-1,2.026638550E-2,-4.016277015E-2,1.351020483E-1
3.430276958E0,-1.430802707E-1,3.695549928E-3,-3.821447790E-2,1.481417134E-1
3.440274958E0,-1.510186699E-1,-2.609425052E-2,-2.234688878E-2,1.548771513E-1
3.450272958E0,-1.303163836E-1,-1.521098791E-2,-2.562366843E-2,1.336798653E-1
3.460271958E0,-1.279454838E-1,4.259554991E-3,-6.185126245E-2,1.421751361E-1
3.470269958E0,-1.264139519E-1,8.783984282E-3,-6.679976106E-2,1.432475259E-1
3.480267958E0,-1.210305666E-1,-2.122037700E-2,-3.850800812E-2,1.287694418E-1
3.490266958E0,-1.057271607E-1,-3.029080176E-2,-1.933264911E-2,1.116669893E-1
3.500264958E0,-1.192927010E-1,-1.779231435E-2,-1.513610244E-2,1.215582847E-1
3.510262958E0,-1.386286392E-1,1.100063176E-2,-2.500561774E-2,1.412947077E-1
3.520260958E0,-1.376132702E-1,5.410456052E-3,-4.714960814E-2,1.455670661E-1
3.530259958E0,-1.384386047E-1,-9.510528236E-3,-5.013695061E-2,1.475446076E-1
3.540257958E0,-1.476859763E-1,-1.096564440E-2,-4.161346436E-2,1.538280643E-1
3.550255958E0,-1.485377694E-1,1.214796054E-2,-3.817880988E-2,1.538462330E-1
3.560254958E0,-1.379562825E-1,1.367635875E-2,-3.188369751E-2,1.422517094E-1
3.570252958E0,-1.123699632E-1,1.001152955E-2,-2.799354494E-2,1.162363020E-1
3.580250958E0,-1.220712248E-1,-2.555214968E-3,-5.059420288E-2,1.321653753E-1
3.590249958E0,-1.295900863E-1,1.385127730E-3,-2.573651969E-2,1.321282616E-1
3.600247958E0,-1.139922000E-1,-4.260060227E-2,-1.807549775E-2,1.230274628E-1
3.610245958E0,-1.223781306E-1,-1.616592959E-2,-2.329062939E-2,1.256192562E-1
3.620243958E0,-1.599888103E-1,-3.065613854E-2,-4.796704888E-2,1.698147698E-1
3.630242958E0,-1.583314171E-1,-1.387203034E-2,-5.470128715E-2,1.680877797E-1
3.640240958E0,-1.361608949E-1,-1.956527236E-2,-3.733564138E-2,1.425360983E-1
3.650238958E0,-1.278583603E-1,-2.297868957E-2,-9.486522675E-3,1.302527335E-1
3.660237958E0,-1.270464744E-1,-1.067372672E-2,-1.637863576E-2,1.285418018E-1
3.670235958E0,-1.221815910E-1,1.394091785E-2,-4.349042058E-2,1.304381350E-1
3.680233958E0,-1.114945619E-1,9.821284907E-3,-4.289926708E-2,1.198659338E-1
3.690232958E0,-1.155598386E-1,1.611183371E-2,-5.815699160E-2,1.303683364E-1
3.700230958E0,-1.200148322E-1,2.441623667E-3,-4.152634084E-2,1.270195200E-1
3.710228958E0,-1.537249806E-1,5.233797963E-2,-2.894313276E-2,1.649495035E-1
3.720227958E0,-1.457180227E-1,4.308865748E-2,-3.193164468E-2,1.552739659E-1
3.730225958E0,-1.298571579E-1,4.463093370E-2,-5.197882354E-2,1.468216599E-1
3.740223958E0,-1.321105286E-1,5.845182831E-3,-4.524341583E-2,1.397652482E-1
3.750221958E0,-1.483866189E-1,1.331370348E-2,-3.536103666E-2,1.531216715E-1
3.760220958E0,-1.193197444E-1,5.290510473E-3,-3.534758806E-2,1.245577894E-1
3.770218958E0,-1.123435776E-1,1.988459886E-3,-2.695800304E-2,1.155498478E-1
3.780216958E0,-1.262949611E-1,-3.145352973E-2,-1.750656366E-2,1.313248700E-1
3.790215958E0,-1.506086339E-1,-3.194883001E-2,-4.204791248E-2,1.595986068E-1
3.800213958E0,-1.444770243E-1,-3.619781433E-2,-4.772438943E-2,1.564017572E-1
3.810211958E0,-1.389176378E-1,-1.473381857E-2,-3.844134986E-2,1.448893816E-1
3.820210958E0,-1.443279203E-1,-2.290779208E-2,-2.302575052E-2,1.479374892E-1
3.830208958E0,-1.391540846E-1,-2.992240890E-2,-2.092250705E-2,1.438643845E-1
3.840206958E0,-1.282233728E-1,-2.023185952E-2,-3.199888766E-2,1.336955133E-1
3.850204958E0,-1.182059960E-1,-7.226610370E-3,-3.634103000E-2,1.238771644E-1
3.860203958E0,-1.302175657E-1,3.211743082E-3,-4.576264858E-2,1.380621226E-1
3.870201958E0,-1.209820347E-1,1.071153263E-2,-3.362909138E-2,1.260250191E-1
3.880200833E0,-1.208420670E-1,8.849180737E-3,-3.182171702E-2,1.252746376E-1
3.890199833E0,-1.407277165E-1,1.210446273E-2,-4.738758981E-2,1.489845357E-1
3.900197833E0,-1.406722411E-1,2.021372401E-2,-3.527040482E-2,1.464283972E-1
3.910195833E0,-1.325716547E-1,3.076262638E-2,-3.660473943E-2,1.409307978E-1
3.920194833E0,-1.276931765E-1,1.703059574E-2,-4.138893127E-2,1.353093942E-1
3.930192833E0,-1.308131046E-1,9.321699715E-3,-1.847252369E-2,1.324394071E-1
3.940190833E0,-1.341919912E-1,-1.007611844E-2,-2.879636765E-2,1.376163125E-1
3.950188833E0,-1.218787783E-1,4.599004132E-3,-4.898914218E-2,1.314363858E-1
3.960187833E0,-1.275706773E-1,-2.899497655E-2,-4.852838159E-2,1.395349067E-1
3.970185833E0,-1.373117001E-1,-5.608416279E-3,-4.028380752E-2,1.432087374E-1
3.980183833E0,-1.274191613E-1,-3.593121327E-2,-2.574996829E-2,1.348694021E-1
3.990182833E0,-1.189368249E-1,-3.016690018E-2,-6.593320370E-3,1.228799498E-1
4.000180833E0,-1.294904644E-1,-2.809822380E-2,-1.781412721E-2,1.336960496E-1
4.010178833E0,-1.276598474E-1,-5.957718892E-3,-4.116205931E-2,1.342640911E-1
4.020177833E0,-1.298941416E-1,-9.131619525E-3,-5.448318601E-2,1.411534344E-1
4.030175833E0,-1.324949831E-1,-4.142359430E-3,-5.239163697E-2,1.425375856E-1
4.040173833E0,-1.376857026E-1,-2.482578845E-2,-2.395896614E-2,1.419426100E-1
4.050172833E0,-1.415912772E-1,3.841862795E-3,-2.051671028E-2,1.431215745E-1
4.060170833E0,-1.413761728E-1,3.017528728E-3,-3.862436771E-2,1.465884357E-1
4.070168833E0,-1.409358043E-1,1.269711915E-2,-4.325419307E-2,1.479697367E-1
4.080166833E0,-1.387899493E-1,2.324482924E-3,-4.265192986E-2,1.452144633E-1
4.090165833E0,-1.219824202E-1,7.755280891E-4,-2.558449209E-2,1.246389928E-1
4.100163833E0,-1.250840758E-1,1.070907040E-2,-2.618032336E-2,1.282424249E-1
4.110161833E0,-1.264157791E-1,1.913002482E-2,-2.632942736E-2,1.305379095E-1
4.120160833E0,-1.310880699E-1,5.939067188E-3,-3.230762064E-2,1.351411741E-1
4.130158833E0,-1.339480893E-1,6.549082529E-3,-5.040826142E-2,1.432688868E-1
4.140156833E0,-1.352748225E-1,-1.528407354E-3,-5.892706990E-2,1.475602019E-1
4.150155833E0,-1.348371584E-1,1.011335333E-3,-4.006687582E-2,1.406678237E-1
4.160153833E0,-1.377849591E-1,8.592474265E-3,-2.914895475E-2,1.410963753E-1
4.170151833E0,-1.334731492E-1,4.035844174E-3,-1.925955892E-2,1.349159005E-1
4.180149833E0,-1.327161540E-1,-1.563664237E-3,-3.812033772E-2,1.380912116E-1
4.190148833E0,-1.303788026E-1,-4.379459457E-3,-4.378862858E-2,1.376054353E-1
4.200146833E0,-1.250260422E-1,5.032945191E-4,-3.898981869E-2,1.309655317E-1
4.210144833E0,-1.299711055E-1,-6.930654463E-3,-4.107376635E-2,1.364828800E-1
4.220143833E0,-1.470305034E-1,-2.730948466E-2,-1.740949988E-2,1.505551977E-1
4.230141833E0,-1.398724151E-1,-2.047859374E-2,-6.754528105E-2,1.566717278E-1
4.240139833E0,-7.570221998E-2,1.127183567E-1,-4.448503196E-2,1.428816717E-1
4.250138833E0,-1.293598522E-1,-1.177181555E-2,-1.784862578E-2,1.311149132E-1
4.260136833E0,-1.345513757E-1,-9.186125625E-2,-3.354956925E-2,1.663374182E-1
4.270134833E0,-1.238067515E-1,-8.069261754E-2,8.974306583E-3,1.480538700E-1
4.280133833E0,-1.270961758E-1,6.287588649E-2,-2.935302258E-4,1.417988052E-1
4.290131833E0,-1.772492062E-1,2.303951432E-2,-1.109170032E-1,2.103584605E-1
4.300129833E0,-1.621703334E-1,-2.052466798E-2,-6.825805664E-2,1.771429968E-1
4.310127833E0,-1.300304548E-1,-6.630917053E-2,6.092798710E-4,1.459629970E-1
4.320126833E0,-1.073423079E-1,2.173027248E-2,-2.647736192E-2,1.126748707E-1
4.330124833E0,-1.366132502E-1,3.683638053E-2,-4.802727520E-2,1.494212776E-1
4.340122833E0,-1.199594298E-1,1.043768194E-2,-1.552962005E-2,1.214099629E-1
4.350121833E0,-9.505343400E-2,6.535044643E-3,-3.244093716E-2,1.006492748E-1
4.360119833E0,-1.308331313E-1,-9.778938275E-3,-4.800914884E-2,1.397061711E-1
4.370117833E0,-1.741419227E-1,-1.175604177E-2,-3.512597859E-2,1.780377717E-1
4.380116833E0,-1.403119064E-1,1.325979032E-2,-4.633976877E-2,1.483597900E-1
4.390114833E0,-1.347419950E-1,3.224593709E-2,-4.364420235E-2,1.452584664E-1
4.400112833E0,-1.583079551E-1,-1.154273260E-2,-2.374028027E-2,1.604937514E-1
4.410110833E0,-1.314201187E-1,-7.757085306E-3,-3.376065373E-2,1.359087992E-1
4.420109833E0,-1.121406792E-1,-6.196856308E-3,-4.873186469E-2,1.224284591E-1
4.430107833E0,-1.232068272E-1,-8.361198613E-4,-4.707242489E-2,1.318955441E-1
4.440105833E0,-1.231367337E-1,-1.357395939E-2,-1.337433636E-2,1.246024897E-1
4.450104833E0,-1.222556314E-1,-2.987467187E-2,-4.830384851E-3,1.259454963E-1
4.460102833E0,-1.383792555E-1,-3.320630571E-2,-3.580016255E-2,1.467417075E-1
4.470100833E0,-1.279389788E-1,4.260052918E-3,-3.579197645E-2,1.329195092E-1
4.480099833E0,-2.440797383E-1,4.502384375E-2,-9.793618441E-2,2.668212161E-1
4.490097833E0,-1.278153102E-1,-6.301060086E-3,-6.815105259E-2,1.449862850E-1
4.500095833E0,-6.049967855E-2,-7.041384283E-2,-1.006364286E-2,9.337878385E-2
4.510093833E0,-1.031869841E-1,-5.384381125E-3,4.084104717E-2,1.111059691E-1
4.520092833E0,-1.765392812E-1,-1.477422374E-3,-2.531961322E-2,1.783518528E-1
4.530090833E0,-1.178602794E-1,5.877351197E-2,-1.006007606E-1,1.657283446E-1
4.540088833E0,-8.336543463E-2,2.168848316E-2,-4.265485346E-2,9.612295520E-2
4.550087833E0,-1.517258175E-1,-4.589249332E-2,1.393157601E-2,1.591255274E-1
4.560085833E0,-1.636844699E-1,-3.064685608E-2,-4.218649149E-2,1.717892183E-1
4.570083833E0,-1.371919783E-1,2.234938755E-2,-6.313121796E-2,1.526652702E-1
4.580082833E0,-1.428241626E-1,2.961605592E-2,-6.395099759E-3,1.460025667E-1
4.590080833E0,-1.861800972E-1,-2.307587212E-2,-4.397573948E-2,1.926898808E-1
4.600078833E0,-1.382298591E-1,-2.495422619E-2,-6.149575174E-2,1.533360194E-1
4.610076833E0,-1.180109914E-1,-1.705109297E-2,-4.174911976E-3,1.193095291E-1
4.620075833E0,-1.378588533E-1,4.032092363E-2,-1.599622786E-2,1.445223845E-1
4.630073833E0,-1.326267647E-1,1.472676080E-3,-5.566490829E-2,1.438423078E-1
4.640071833E0,-1.156286164E-1,-9.920596210E-3,-4.383189797E-2,1.240549493E-1
4.650070833E0,-1.244895601E-1,2.610329543E-3,-4.398451030E-2,1.320571904E-1
4.660068833E0,-1.362543773E-1,1.665169617E-2,-2.272403419E-2,1.391363218E-1
4.670066833E0,-1.124480235E-1,-2.670341162E-3,4.905813932E-4,1.124807956E-1
4.680065833E0,-1.327129380E-1,6.512916586E-3,-2.135637045E-2,1.345779944E-1
4.690063833E0,-1.509023103E-1,1.640518578E-3,-5.083978593E-2,1.592447248E-1
4.700061833E0,-1.442602388E-1,-2.374646096E-2,-4.020603955E-2,1.516292733E-1
4.710059833E0,-1.349358302E-1,-2.956972587E-2,-4.243441343E-2,1.445085686E-1
4.720058833E0,-1.367616232E-1,-1.704442806E-2,-4.302264333E-2,1.443786756E-1
4.730056833E0,-1.370169273E-1,-6.961101098E-3,-2.626686215E-2,1.396855159E-1
4.740054833E0,-1.419698844E-1,-1.216547478E-2,-7.855734229E-3,1.427065500E-1
4.750053833E0,-1.284742914E-1,-4.231698947E-2,-4.677246273E-2,1.431224456E-1
4.760051833E0,-1.636820579E-1,-1.640430870E-2,-7.252126157E-2,1.797783380E-1
4.770049833E0,-1.607989421E-1,-4.328364842E-3,-1.939053655E-2,1.620216881E-1
4.780048833E0,-1.335597610E-1,1.735604354E-2,-3.751632035E-2,1.398102869E-1
4.790046833E0,-1.151146462E-1,-8.697020654E-3,-5.923054039E-2,1.297508260E-1
4.800044833E0,-1.120664927E-1,3.399744770E-3,-9.080141187E-3,1.124851368E-1
4.810042833E0,-1.157319660E-1,8.969966853E-3,-3.676670730E-2,1.217626339E-1
4.820041833E0,-1.254055995E-1,2.879316081E-2,-7.732708812E-2,1.501169180E-1
4.830039833E0,-1.259358689E-1,6.686958047E-3,-3.810338080E-2,1.317437897E-1
4.840037833E0,-1.445321343E-1,-7.047749525E-3,-8.455658555E-3,1.449507047E-1
4.850036833E0,-1.622665932E-1,4.890136085E-3,-2.686152399E-2,1.645475681E-1
4.860034833E0,-1.467817774E-1,-1.082789222E-2,-5.260272145E-2,1.562983677E-1
4.870032833E0,-1.440179448E-1,-8.496589065E-3,-4.258059382E-2,1.504209673E-1
4.880031958E0,-1.251565813E-1,-1.343671884E-2,-3.958740413E-2,1.319540746E-1
4.890029958E0,-1.176377197E-1,-3.420263015E-2,-4.123105645E-2,1.292611814E-1
4.900027958E0,-1.159633695E-1,-2.519801397E-2,-1.144007742E-2,1.192196223E-1
4.910025958E0,-1.148816346E-1,-1.566009976E-2,-1.129974425E-2,1.164934029E-1
4.920024958E0,-1.237666250E-1,-2.154175916E-2,-3.419568658E-2,1.301981944E-1
4.930022958E0,-1.506532189E-1,-1.759830100E-2,-4.556676686E-2,1.583743123E-1
4.940020958E0,-1.537822833E-1,-2.520224864E-2,-3.778119922E-2,1.603482554E-1
4.950019958E0,-1.586807151E-1,-1.241077918E-2,-4.062177658E-2,1.642672381E-1
4.960017958E0,-1.422728433E-1,3.027971489E-3,-3.911728799E-2,1.475835112E-1
4.970015958E0,-1.393278200E-1,-2.264169808E-3,-2.937875032E-2,1.424095463E-1
4.980014958E0,-1.182003681E-1,1.687045055E-3,-3.313149333E-2,1.227675404E-1
4.990012958E0,-1.066472201E-1,8.467243351E-3,-2.729129434E-2,1.104089603E-1
5.000010958E0,-1.063764209E-1,-3.629718502E-3,-2.070732951E-2,1.084339028E-1
5.010008958E0,-1.153072388E-1,9.341283320E-3,-3.176850736E-2,1.199677330E-1
5.020007958E0,-1.322113200E-1,7.052824725E-3,-5.555556536E-2,1.435827160E-1
5.030005958E0,-1.472364715E-1,1.314380075E-2,-5.405049205E-2,1.573937538E-1
5.040003958E0,-1.626008347E-1,1.284556991E-2,-3.219184577E-2,1.662538873E-1
5.050002958E0,-1.537344092E-1,-1.163838026E-2,-3.787650883E-2,1.587587805E-1
5.060000958E0,-1.591568977E-1,6.804765738E-3,-5.627886593E-2,1.689512761E-1
5.069998958E0,-1.329148132E-1,7.218565880E-3,-4.250458002E-2,1.397322245E-1
5.079997958E0,-1.281537178E-1,2.251959178E-3,-3.291514635E-2,1.323323603E-1
5.089995958E0,-1.111305727E-1,-2.039417914E-2,-4.100184560E-2,1.201959986E-1
5.099993958E0,-1.036644823E-1,2.117573717E-3,-2.738134146E-2,1.072406027E-1
5.109992958E0,-1.154539309E-1,-4.975962248E-3,-1.778664529E-2,1.169219188E-1
5.119990958E0,-1.297363398E-1,2.383702885E-2,-3.814957380E-2,1.373139170E-1
5.129988958E0,-1.447191721E-1,-1.411622926E-3,-3.575513899E-2,1.490773672E-1
5.139986958E0,-1.562539744E-1,2.397632506E-4,-3.710233748E-2,1.605987094E-1
5.149985958E0,-1.662093707E-1,-2.094285353E-3,-4.263555765E-2,1.716034141E-1
5.159983958E0,-1.503483597E-1,4.206030127E-3,-4.337230682E-2,1.565358648E-1
5.169981958E0,-1.431826700E-1,-5.309303789E-3,-2.496234834E-2,1.454392813E-1
5.179980958E0,-1.259130648E-1,3.081669942E-3,-3.528619230E-2,1.308002750E-1
5.189978958E0,-1.168198404E-1,-9.029983040E-3,-2.151775360E-2,1.191277862E-1
5.199976958E0,-1.168617942E-1,-2.002721610E-3,-3.394542575E-2,1.217085937E-1
5.209975958E0,-1.207756280E-1,-3.801850481E-3,-2.809821010E-2,1.240593237E-1
5.219973958E0,-1.380358777E-1,-2.137477091E-4,-3.796889484E-2,1.431627961E-1
5.229971958E0,-1.526529667E-1,-9.931641966E-3,-4.917859197E-2,1.606863394E-1
5.239969958E0,-1.636422238E-1,-1.239559469E-3,-4.872192442E-2,1.707458340E-1
5.249968958E0,-1.480942581E-1,-2.309951680E-2,-2.776725769E-2,1.524352897E-1
5.259966958E0,-1.530411487E-1,1.053901236E-2,-3.659947693E-2,1.577091807E-1
5.269964958E0,-1.354307239E-1,-2.536633156E-2,-2.865895808E-2,1.407347421E-1
5.279963958E0,-1.197446908E-1,-2.592276265E-3,-1.803456724E-2,1.211228983E-1
5.289961958E0,-1.166547297E-1,-2.816094432E-2,-3.149836600E-2,1.240705920E-1
5.299959958E0,-1.239505930E-1,1.828497882E-2,-5.169114053E-2,1.355362091E-1
5.309958958E0,-1.412393479E-1,-2.215320433E-2,-5.346986353E-2,1.526379513E-1
5.319956958E0,-1.440684501E-1,6.053435071E-3,-4.192979872E-2,1.501681405E-1
5.329954958E0,-1.448999242E-1,-2.243229924E-2,-1.393216074E-2,1.472864596E-1
5.339952958E0,-1.497947015E-1,2.528770021E-3,-1.496360958E-2,1.505614721E-1
5.349951958E0,-1.514251245E-1,-8.494656743E-3,-3.187726557E-2,1.549770550E-1
5.359949958E0,-1.467354383E-1,3.599792635E-3,-4.354889274E-2,1.531037341E-1
5.369947958E0,-1.379892462E-1,-1.470191013E-2,-5.463345945E-2,1.491374973E-1
5.379946958E0,-1.444283462E-1,1.111467530E-2,-5.255009651E-2,1.540928157E-1
5.389944958E0,-1.281890935E-1,-8.125080736E-3,-2.396539807E-2,1.306629287E-1
5.399942958E0,-1.260509129E-1,1.207223453E-2,-1.093897104E-2,1.270993020E-1
5.409941958E0,-1.290671991E-1,-4.481164464E-3,-2.710769176E-2,1.319592728E-1
5.419939958E0,-1.356321605E-1,1.697777894E-2,-4.370910645E-2,1.435089332E-1
5.429937958E0,-1.385160072E-1,1.237960621E-3,-6.031461418E-2,1.510829887E-1
5.439935958E0,-1.393300858E-1,1.785134382E-2,-4.129712999E-2,1.464137843E-1
5.449934958E0,-1.417100488E-1,1.252656318E-2,-2.137566626E-2,1.438595559E-1
5.459932958E0,-1.428412657E-1,1.774602999E-2,-2.884256065E-2,1.468006883E-1
5.469930958E0,-1.394811632E-1,-6.860976666E-4,-3.244210660E-2,1.432059912E-1
5.479929958E0,-1.419035185E-1,-1.103922338E-2,-4.172456145E-2,1.483219877E-1
5.489927958E0,-1.384387509E-1,-1.559131731E-2,-5.715302467E-2,1.505816893E-1
5.499925958E0,-1.304188561E-1,-1.834357888E-2,-4.413478374E-2,1.389008425E-1
5.509924958E0,-1.273663171E-1,-1.197226998E-2,-1.628858864E-2,1.289605836E-1
5.519922958E0,-1.300173716E-1,-1.875760743E-2,-1.239258885E-2,1.319467355E-1
5.529920958E0,-1.271714587E-1,-1.908234717E-2,-3.260056615E-2,1.326631554E-1
5.539918958E0,-1.426519621E-1,-2.402106539E-2,-3.828172088E-2,1.496398477E-1
5.549917958E0,-1.500296134E-1,-8.027911889E-3,-5.743252158E-2,1.608472157E-1
5.559915958E0,-1.331086484E-1,-7.462709974E-3,-5.533629477E-2,1.443457995E-1
5.569913958E0,-1.389382493E-1,4.767216649E-4,-3.888222992E-2,1.442771367E-1
5.579912958E0,-1.335264319E-1,6.136109219E-3,-2.480973601E-2,1.359502955E-1
5.589910958E0,-1.226559464E-1,2.098588082E-2,-2.346721530E-2,1.266317439E-1
5.599908958E0,-1.243947621E-1,1.599968137E-2,-3.678483367E-2,1.307026038E-1
5.609907958E0,-1.382449888E-1,3.196462663E-2,-3.842497766E-2,1.470030380E-1
5.619905958E0,-1.466568663E-1,9.740122813E-3,-3.019502163E-2,1.500494777E-1
5.629903958E0,-1.459837787E-1,1.887414061E-2,-5.967726767E-2,1.588359943E-1
5.639901958E0,-1.529222310E-1,5.004714103E-3,-5.203554153E-2,1.616104992E-1
5.649900958E0,-1.471584112E-1,-2.079703859E-3,-2.912673533E-2,1.500276304E-1
5.659898958E0,-1.395326187E-1,-9.724719054E-3,-3.510258973E-2,1.442085769E-1
5.669896958E0,-1.142637301E-1,-1.065495168E-3,-1.938702822E-2,1.159016487E-1
5.679895958E0,-1.122700489E-1,-4.597871234E-3,-2.281349659E-2,1.146567046E-1
5.689893958E0,-1.249441811E-1,-2.389930626E-2,-4.525101721E-2,1.350180721E-1
5.699891958E0,-1.336585059E-1,-2.764320992E-2,-4.809802651E-2,1.447140747E-1
5.709890958E0,-1.490501317E-1,-1.189264735E-2,-4.614914954E-2,1.564836120E-1
5.719888958E0,-1.627380250E-1,-1.191422266E-2,-4.076503336E-2,1.681885888E-1
5.729886958E0,-1.583430384E-1,-2.077868382E-2,-2.279829383E-2,1.613196631E-1
5.739884958E0,-1.459641174E-1,-2.339523973E-2,-3.178195596E-2,1.512050050E-1
5.749883958E0,-1.429436651E-1,-2.498859229E-2,-4.525160193E-2,1.520033836E-1
5.759881958E0,-1.260322749E-1,-9.348697406E-3,-6.276518226E-2,1.411063449E-1
5.769879958E0,-1.232842297E-1,3.506401638E-3,-3.656497836E-2,1.286401718E-1
5.779878958E0,-1.166775338E-1,3.613748294E-3,-5.264832973E-3,1.168521482E-1
5.789876958E0,-1.316539342E-1,6.096782126E-3,-1.782699108E-2,1.329952283E-1
5.799874958E0,-1.450616728E-1,-6.780084092E-3,-3.144281745E-2,1.485850235E-1
5.809873958E0,-1.498332200E-1,1.264538043E-3,-3.981076777E-2,1.550370604E-1
5.819871958E0,-1.652421682E-1,3.506990927E-3,-5.373064935E-2,1.737937162E-1
5.829869958E0,-1.672700556E-1,2.058251430E-2,-7.065249145E-2,1.827421297E-1
5.839867958E0,-1.582839815E-1,3.076951057E-3,-2.321286142E-2,1.600066354E-1
5.849866958E0,-1.379473655E-1,-1.551339403E-5,2.736496925E-4,1.379476378E-1
5.859864958E0,-1.286884457E-1,2.413200717E-2,-1.679320335E-2,1.320040965E-1
5.869862958E0,-1.199954633E-1,1.815309669E-2,-5.421538353E-2,1.329201036E-1
5.879861708E0,-1.235103708E-1,1.711066605E-2,-5.226299822E-2,1.351998800E-1
5.889859708E0,-1.255951224E-1,6.056034341E-3,-2.292400897E-2,1.278136163E-1
5.899857708E0,-1.299811189E-1,-1.360154180E-2,-3.069963634E-2,1.342481317E-1
5.909856708E0,-1.394664721E-1,-6.370239956E-3,-2.739888310E-2,1.422749999E-1
5.919854708E0,-1.479867424E-1,5.986447907E-3,-3.039265752E-2,1.511940049E-1
5.929852708E0,-1.575034513E-1,-2.046839766E-2,-4.131584108E-2,1.641136533E-1
5.939850708E0,-1.513966924E-1,-1.647841302E-2,-4.191693485E-2,1.579541895E-1
5.949849708E0,-1.422542053E-1,-3.001314125E-2,-2.725854993E-2,1.479191540E-1
5.959847708E0,-1.446920557E-1,-1.557969140E-2,-2.919514775E-2,1.484280109E-1
5.969845708E0,-1.260590259E-1,-3.432077131E-2,-2.724334717E-2,1.334578335E-1
5.979844708E0,-1.300083084E-1,-3.489214935E-2,-2.995528579E-3,1.346424730E-1
5.989842708E0,-1.331168345E-1,-4.784831843E-2,5.210161507E-2,1.507452536E-1
5.999840708E0,-1.306483593E-1,-6.616207194E-2,7.321591079E-2,1.637283822E-1
6.009839708E0,-1.874470427E-1,-8.254865170E-2,1.015041554E-1,2.285908294E-1
6.019837708E0,-2.446399746E-1,-1.858561249E-1,2.001349890E-1,3.666677381E-1
6.029835708E0,-1.575815848E-1,-1.387145110E-1,3.972042829E-1,4.492715368E-1
6.039833708E0,-1.220156032E-1,3.058335715E-1,8.465750849E-1,9.083564032E-1
6.049832708E0,-2.942248750E-1,-9.664269808E-2,7.921556336E-1,8.505402024E-1
6.059830708E0,-1.349394847E-1,8.535410008E-2,7.214271283E-1,7.388850306E-1
6.069828708E0,1.702660958E-1,4.250750363E-1,1.321787657E0,1.398857369E0
6.079827708E0,-1.329320332E0,-2.615901757E-2,-8.922693211E-1,1.601224963E0
6.089825708E0,1.105113526E0,7.216313423E-1,-3.669733593E0,3.899868247E0
6.099823708E0,1.616853361E0,1.746543946E-1,-1.303987563E-2,1.626311467E0
6.109821708E0,-1.426500325E0,-3.203508558E-1,-4.361555099E-2,1.462679105E0
6.119820708E0,-3.549369536E-2,-3.741048574E-1,-2.262866610E-1,4.386569271E-1
6.129818708E0,-1.324075672E0,-6.855650584E-1,-2.001642251E-1,1.504407376E0
6.139816708E0,-2.811925276E-1,2.079137775E-1,-2.010173339E-1,4.033675061E-1
6.149815708E0,-1.684549939E-1,6.412845145E-2,-2.156154925E-1,2.810330654E-1
6.159813708E0,-2.281350390E-1,1.155566957E-2,5.671272933E-2,2.353624082E-1
6.169811708E0,4.095199078E-1,-1.045657392E-1,3.643546253E-1,5.580276352E-1
6.179810708E0,1.999495592E-1,1.316809228E-1,-5.163910031E-2,2.449209838E-1
6.189808708E0,-1.856161333E-1,1.098734762E-1,-1.370698446E-1,2.555653967E-1
6.199806708E0,-2.296653284E-1,1.689173807E-2,7.352113545E-2,2.417371532E-1
6.209804708E0,-1.171306200E-1,-9.407369647E-2,-9.787654281E-3,1.505497947E-1
6.219803708E0,-1.851517913E-1,-3.002533360E-1,-1.737254548E-1,3.932095946E-1
6.229801708E0,-4.097882219E-2,-2.358699186E-2,-5.013402700E-3,4.754728446E-2
6.239799708E0,-6.949050352E-2,1.110664269E-1,1.550359994E-1,2.029799064E-1
6.249798708E0,-2.291425873E-1,4.160958144E-2,-6.350427032E-2,2.413927815E-1
6.259796708E0,-2.544724332E-1,1.248636449E-1,-1.994549578E-1,3.465969262E-1
6.269794708E0,-2.517565477E-1,8.554860223E-2,-8.960682571E-2,2.805874300E-1
6.279793708E0,-1.070751632E-1,-1.333341682E-1,1.433111626E-1,2.231169655E-1
6.289791708E0,-1.804258523E-1,2.928002374E-3,-3.412961304E-2,1.836488276E-1
6.299789708E0,-1.400781640E-1,8.100750837E-2,-1.548991746E-1,2.240041578E-1
6.309787708E0,3.679360449E-3,9.809562153E-2,3.611708164E-2,1.045979553E-1
6.319786708E0,-1.476682153E-1,6.597791662E-2,-6.260029078E-3,1.618585038E-1
6.329784708E0,-1.021860138E-1,-3.502074698E-2,-1.177746177E-2,1.086606771E-1
6.339782708E0,-8.257613361E-2,1.160303476E-1,-7.730603814E-2,1.620434600E-1
6.349781708E0,-1.616781440E-1,1.182875281E-2,-4.952591658E-4,1.621110327E-1
6.359779708E0,-1.926145926E-1,-4.554977339E-2,3.560369611E-3,1.979591861E-1
6.369777708E0,-2.079510353E-1,1.198326731E-1,-6.948772609E-2,2.498640564E-1
6.379776708E0,-2.171134760E-1,2.287102771E-2,-9.013658345E-2,2.361904932E-1
6.389774708E0,-1.884580994E-1,-1.234462524E-1,-3.328644454E-2,2.277354163E-1
6.399772708E0,-1.503113030E-1,1.457509864E-4,-3.028156042E-2,1.533312817E-1
6.409771708E0,-6.425899968E-2,-4.639755570E-2,1.895608842E-2,8.149408262E-2
6.419769708E0,-1.520096999E-1,-6.744505612E-2,-6.802709162E-2,1.796760130E-1
6.429767708E0,-6.741854265E-2,1.389772063E-1,-1.666047156E-2,1.553624636E-1
6.439765708E0,-6.678404666E-2,4.805278368E-3,4.860731900E-2,8.273977912E-2
6.449764708E0,-1.563142738E-1,-4.527796922E-2,-6.602734387E-2,1.756241921E-1
6.459762708E0,-1.065638973E-1,1.774490166E-2,-9.125749469E-3,1.084159815E-1
6.469760708E0,-1.551484121E-1,-1.059539413E-1,2.799179077E-2,1.899494876E-1
6.479759708E0,-1.313125299E-1,1.248738410E-1,1.672063941E-1,2.465652751E-1
6.489757708E0,-1.346446388E-1,-4.375298797E-2,4.915532005E-1,5.115349955E-1
6.499755708E0,-2.004505925E-1,-6.982647174E-2,7.739754707E-1,8.025547990E-1
6.509753708E0,-2.271432050E-1,7.488216626E-2,9.924368030E-1,1.020848756E0
6.519752708E0,-3.700118065E-1,2.377286023E-3,1.143439978E0,1.201819192E0
6.529750708E0,-4.212300535E-1,2.434757209E-1,1.302788299E0,1.390673411E0
6.539748708E0,-3.735775117E-1,1.494541012E-2,1.534864873E0,1.579744821E0
6.549747708E0,-5.050544214E-1,-7.889439042E-1,2.187852681E0,2.379960463E0
6.559745708E0,-2.689776941E-1,5.327349941E-1,2.130846421E0,2.212840266E0
6.569743708E0,-4.258370016E-1,8.621426205E-2,2.356174724E0,2.395898449E0
6.579742708E0,-2.807197803E-1,3.019350866E-1,2.434576530E0,2.469236982E0
6.589740708E0,3.599165887E-1,1.991495870E-1,2.680205196E0,2.711586325E0
6.599738708E0,-1.521691827E-1,3.397261896E-1,2.256512441E0,2.287010656E0
6.609736708E0,-8.145194062E-1,-1.036780771E-2,1.828440707E0,2.001685483E0
6.619735708E0,-7.649082664E-1,1.513939332E-1,1.702903910E0,1.872935265E0
6.629733708E0,-7.926913847E-1,-1.933680063E-1,1.593773232E0,1.790492650E0
6.639731708E0,-5.073017988E-1,-1.002893872E-1,1.544347887E0,1.628626253E0
6.649730708E0,-3.487816628E-1,1.281773716E-1,1.412227710E0,1.460296269E0
6.659728708E0,-1.354286774E-1,8.424140235E-2,1.473815264E0,1.482419971E0
6.669726708E0,-7.150969326E-2,1.374857644E-2,1.450627545E0,1.452454107E0
6.679725708E0,-5.038618818E-2,1.928470560E-1,1.288714051E0,1.304037062E0
6.689723708E0,-1.735124700E-1,-2.230389530E-1,1.285031474E0,1.315735096E0
6.699721708E0,-3.021035595E-1,-1.446549715E-1,1.181836889E0,1.228385140E0
6.709719708E0,-2.780850249E-1,-3.006275761E-1,1.207389806E0,1.274950338E0
6.719718708E0,-1.979501769E-1,2.154151705E-1,1.192837256E0,1.228189190E0
6.729716708E0,-1.583516631E-1,3.921282784E-1,1.177108245E0,1.250769226E0
6.739714708E0,-3.437478679E-1,-2.899756303E-1,1.268026017E0,1.345413855E0
6.749713708E0,-4.459010643E-1,-5.400027908E-1,1.358636810E0,1.528504090E0
6.759711708E0,-1.953578869E-1,6.269413859E-2,1.258942952E0,1.275551887E0
6.769709708E0,-3.344962572E-1,8.735879970E-2,1.178458368E0,1.228121912E0
6.779708708E0,-4.563374671E-1,1.653153680E-1,9.920795381E-1,1.104443237E0
6.789706708E0,-3.315511608E-1,-3.604709047E-1,1.334910563E0,1.421918301E0
6.799704708E0,1.532927983E-1,4.374301299E-1,1.309629541E0,1.389234802E0
6.809703708E0,1.727086971E-1,5.823247185E-1,1.442365429E0,1.565039426E0
6.819701708E0,-3.165196504E-1,-4.153569639E-3,1.560835281E0,1.592610660E0
6.829699708E0,-4.658586346E-1,1.101812316E-1,1.416868061E0,1.495553166E0
6.839697708E0,-2.626153388E-1,2.992099552E-1,1.514151696E0,1.565614503E0
6.849696708E0,-5.502107137E-1,-9.281296369E-2,1.486991379E0,1.588234692E0
6.859694708E0,-5.152040184E-1,-9.307874705E-2,1.507197018E0,1.595538055E0
6.869692708E0,-4.448003990E-1,5.912683454E-2,1.400260799E0,1.470399158E0
6.879691000E0,-1.412478995E-1,6.629966880E-2,1.687231033E0,1.694430635E0
6.889689000E0,2.291732852E-1,6.026391882E-1,1.489575849E0,1.623123715E0
6.899687000E0,-5.010047130E-1,-1.057447298E-1,1.559389849E0,1.641305691E0
6.909685000E0,-4.447171493E-1,-1.934963162E-1,1.732993097E0,1.799577518E0
6.919684000E0,-4.044283716E-1,-1.202022994E-1,1.775438036E0,1.824881125E0
6.929682000E0,-7.037239520E-1,-9.790312023E-2,1.849833915E0,1.981589749E0
6.939680000E0,-3.554310434E-1,-3.111201853E-1,2.269076353E0,2.317721833E0
6.949679000E0,-5.069450455E-1,-2.598483450E-1,2.317178473E0,2.386174871E0
6.959677000E0,-6.405233715E-1,2.053134842E-1,2.127952634E0,2.231727185E0
6.969675000E0,-3.733336828E-1,-2.549318416E-1,2.368083163E0,2.410847600E0
6.979674000E0,4.766482092E-2,6.801202591E-2,2.393086442E0,2.394527153E0
6.989672000E0,-1.223404891E-1,2.263741500E-1,2.184326810E0,2.199430850E0
6.999670000E0,-2.832536712E-1,5.695339708E-2,2.146246233E0,2.165605972E0
7.009669000E0,-2.493454483E-1,1.925632833E-1,2.105198779E0,2.128641743E0
7.019667000E0,-3.219878203E-1,1.775124771E-1,2.118015876E0,2.149692556E0
7.029665000E0,-4.688264620E-1,2.184967445E-3,2.166153079E0,2.216308233E0
7.039663000E0,-4.925923238E-1,9.864024399E-3,2.051658749E0,2.109987706E0
7.049662000E0,-5.157235435E-1,1.987381257E-1,1.959875005E0,2.036314723E0
7.059660000E0,-5.277107010E-1,2.637354643E-2,1.905538584E0,1.977435572E0
7.069658000E0,-3.883705287E-1,-2.675440117E-2,1.919640314E0,1.958715498E0
7.079657000E0,-2.163721953E-1,2.585592715E-1,1.754773391E0,1.786868623E0
7.089655000E0,-2.250113833E-1,2.227055338E-1,1.699072815E0,1.728316032E0
7.099653000E0,-2.038593730E-1,3.861346814E-2,1.590853132E0,1.604326442E0
7.109651000E0,-2.628422108E-1,1.572562786E-1,1.249130740E0,1.286134973E0
7.119650000E0,-3.605381477E-1,8.839150021E-2,1.114979240E0,1.175150850E0
7.129648000E0,-4.592331545E-1,2.322109320E-2,9.800319350E-1,1.082541871E0
7.139646000E0,-3.150038329E-1,-1.482362084E-1,9.868205523E-1,1.046430213E0
7.149645000E0,-2.708732884E-1,1.253844948E-2,8.822536254E-1,9.229848377E-1
7.159643000E0,-2.124777304E-1,1.674346548E-2,9.452357394E-1,9.689673537E-1
7.169641000E0,-1.336199143E-1,7.910835100E-3,9.955200398E-1,1.004478478E0
7.179640000E0,-2.249370506E-1,-2.631209585E-2,9.609670883E-1,9.872926354E-1
7.189638000E0,-1.107433408E-1,-1.436715338E-1,9.791180152E-1,9.957799379E-1
7.199636000E0,-2.381141165E-1,1.020606550E-1,7.031253433E-1,7.493330089E-1
7.209634000E0,-2.168928167E-1,-2.191014380E-1,6.865274370E-1,7.525741530E-1
7.219633000E0,-2.077080835E-1,7.960380203E-2,4.675609052E-1,5.177766056E-1
7.229631000E0,-1.920745292E-1,-7.334384604E-2,4.159533799E-1,4.639926279E-1
7.239629000E0,-1.693208203E-1,-1.190117697E-1,2.514542466E-1,3.256725037E-1
7.249628000E0,-1.287044524E-1,1.502786682E-1,-5.359557867E-3,1.979324103E-1
7.259626000E0,-6.202521712E-2,-1.386772168E-1,-2.981378317E-2,1.548139518E-1
7.269624000E0,-6.636721328E-2,8.898560473E-2,-3.255080634E-1,3.439164785E-1
7.279623000E0,-1.032611706E-1,1.793116288E-2,-4.520336241E-1,4.640245610E-1
7.289621000E0,-1.080374687E-1,-6.421151846E-2,-5.827393591E-1,5.961378821E-1
7.299619000E0,-1.169296950E-1,9.101845320E-2,-8.278417754E-1,8.409987619E-1
7.309617000E0,-1.231045740E-1,-3.226161950E-2,-1.029237424E0,1.037075322E0
7.319616000E0,-1.331727485E-1,-3.511760976E-2,-1.361028321E0,1.367978917E0
7.329614000E0,-2.210898019E-2,-4.543875852E-2,-1.539998728E0,1.540827560E0
7.339612000E0,-1.648739398E-2,1.504173660E-1,-1.822126299E0,1.828398607E0
7.349611000E0,-1.823315330E-2,7.297625718E-2,-1.876531717E0,1.878038675E0
7.359609000E0,1.660994431E-1,-6.032218815E-2,-1.816006018E0,1.824583692E0
7.369607000E0,-2.632189907E-2,2.555419255E-1,-2.129617336E0,2.145055831E0
7.379606000E0,3.306196263E-1,-2.553157479E-2,-1.984695266E0,2.012206872E0
7.389604000E0,9.258525118E-2,1.405030373E-1,-2.248470181E0,2.254757478E0
7.399602000E0,5.523608811E-2,5.852828979E-2,-2.352390990E0,2.353767184E0
7.409600000E0,-2.550994009E-3,-1.707083646E-1,-2.439872938E0,2.445838876E0
7.419599000E0,5.224202134E-2,1.435939120E-3,-2.533408508E0,2.533947505E0
7.429597000E0,-5.936604962E-2,-9.189095828E-2,-2.523511510E0,2.525881751E0
7.439595000E0,4.119092993E-2,-2.092006584E-1,-2.366197436E0,2.375784484E0
7.449594000E0,4.825604752E-2,5.023105424E-3,-2.525638728E0,2.526104681E0
7.459592000E0,8.642279752E-2,-1.080236547E-2,-2.598144202E0,2.599603601E0
7.469590000E0,9.921877116E-2,-2.581839350E-1,-2.476532641E0,2.491930423E0
7.479589000E0,5.425090536E-2,6.522442066E-2,-2.515522460E0,2.516952648E0
7.489587000E0,1.731019954E-1,-9.079367344E-2,-2.246880323E0,2.255366706E0
7.499585000E0,4.871724665E-2,-6.268515763E-2,-2.244858940E0,2.246262331E0
7.509583000E0,9.116686285E-2,1.490324804E-1,-2.172733535E0,2.179746107E0
7.519582000E0,1.228156485E-1,-2.422524286E-1,-1.781471778E0,1.802057606E0
7.529580000E0,-2.355134211E-2,1.084568785E-1,-1.827064272E0,1.830432030E0
7.539578000E0,-4.592892878E-2,-1.490772573E-1,-1.566349790E0,1.574098205E0
7.549577000E0,1.943958007E-2,-1.015831568E-1,-1.508948843E0,1.512489222E0
7.559575000E0,1.585202090E-2,2.845020882E-1,-1.402076944E0,1.430738439E0
7.569573000E0,3.293963157E-2,-3.003481157E-1,-1.046425315E0,1.089173975E0
7.579572000E0,-8.943784118E-2,4.217999377E-1,-1.169213335E0,1.246183830E0
7.589570000E0,-8.199587055E-2,-2.362108112E-1,-8.363483047E-1,8.729245998E-1
7.599568000E0,-1.706476998E-1,2.027935901E-2,-1.050637649E0,1.064599154E0
7.609566000E0,7.642603219E-3,1.564031881E-1,-1.175538268E0,1.185921830E0
7.619565000E0,2.846431889E-2,1.238562153E-1,-1.311765529E0,1.317907198E0
7.629563000E0,2.033266917E-2,2.662072834E-3,-1.369837151E0,1.369990629E0
7.639561000E0,-2.350492984E-2,2.073052834E-1,-1.625067530E0,1.638405456E0
7.649560000E0,5.402900353E-3,-1.157424087E-1,-1.611751081E0,1.615910592E0
7.659558000E0,-1.593948794E-1,-7.013223544E-3,-1.672268593E0,1.679862542E0
7.669556000E0,-3.481227547E-2,6.145662108E-2,-1.589060376E0,1.590629337E0
7.679555000E0,-4.766050860E-2,1.542762268E-2,-1.586558937E0,1.587349614E0
7.689553000E0,-3.312403813E-2,-6.894168751E-2,-1.639748134E0,1.641531024E0
7.699551000E0,-1.180413969E-2,-8.677360305E-2,-1.611471584E0,1.613849330E0
7.709549000E0,8.351388082E-2,6.913160325E-2,-1.704993120E0,1.708436504E0
7.719548000E0,8.668577604E-2,-4.040673609E-2,-1.882313443E0,1.884741634E0
7.729546000E0,3.986704722E-2,-4.417491940E-2,-2.215622277E0,2.216421188E0
7.739544000E0,1.117745704E-1,-1.600961798E-1,-2.479346906E0,2.487023406E0
7.749543000E0,7.484048657E-2,-1.808216175E-1,-2.731974104E0,2.738974272E0
7.759541000E0,2.433933482E-1,3.268848452E-2,-3.020496774E0,3.030463599E0
7.769539000E0,2.240677889E-1,-7.567375135E-2,-3.312623668E0,3.321055323E0
7.779538000E0,1.194197318E-1,-1.656293635E-1,-3.626765329E0,3.632508900E0
7.789536000E0,2.415748642E-1,-1.100302820E-1,-3.868160611E0,3.877258257E0
7.799534000E0,2.700467844E-1,4.483813983E-2,-4.184421303E0,4.193365875E0
7.809532000E0,2.033841406E-1,-2.146383862E-1,-4.358329191E0,4.368348438E0
7.819531000E0,3.212681743E-1,-9.949492419E-2,-4.553067784E0,4.565472454E0
7.829529000E0,3.234684815E-1,-2.021321238E-2,-4.590794020E0,4.602220134E0
7.839527000E0,2.339416896E-1,-2.543857665E-2,-4.507146091E0,4.513285026E0
7.849526000E0,2.824518717E-1,-2.452819258E-2,-4.217185591E0,4.226704981E0
7.859524000E0,2.781724408E-1,9.047150100E-3,-3.995629327E0,4.005310909E0
7.869522000E0,2.035110252E-1,6.541200665E-2,-3.757757578E0,3.763832818E0
7.879521000E0,1.505930657E-1,-3.536447190E-2,-3.310030428E0,3.313643064E0
7.889519750E0,1.036986885E-1,2.406782485E-2,-2.939428638E0,2.941355707E0
7.899517750E0,6.543940634E-2,4.136106564E-2,-2.600988872E0,2.602140689E0
7.909515750E0,1.419011065E-1,6.357892281E-2,-2.258606914E0,2.263953046E0
7.919514750E0,8.542518944E-2,1.284556169E-1,-2.003795781E0,2.009725314E0
7.929512750E0,1.886838019E-2,-3.524681496E-2,-1.600328545E0,1.600827850E0
7.939510750E0,-8.619548701E-2,6.078356087E-2,-1.293868371E0,1.298160108E0
7.949509750E0,-3.622985981E-2,1.777927232E-2,-1.012835400E0,1.013639113E0
7.959507750E0,-1.180111375E-1,-4.415538604E-2,-8.027759314E-1,8.126041611E-1
7.969505750E0,-1.137094872E-1,-7.128411865E-2,-5.285163742E-1,5.452896761E-1
7.979504750E0,-1.747660399E-1,-5.974949906E-3,-3.354027218E-1,3.782510469E-1
7.989502750E0,-1.706249687E-1,-8.147255388E-2,-1.363284177E-1,2.331010391E-1
7.999500750E0,-2.064743941E-1,-4.665711726E-2,-4.251335084E-2,2.159072648E-1
8.009499750E0,-2.184078303E-1,8.952845475E-3,-3.163109779E-2,2.208679699E-1
8.019497750E0,-1.511489897E-1,-1.738358941E-2,-1.492150962E-2,1.528753012E-1
8.029495750E0,-1.738616218E-1,-2.999300033E-2,-2.517050922E-2,1.782161557E-1
8.039493750E0,-1.163647809E-1,-2.060619095E-2,6.847498834E-2,1.365803843E-1
8.049492750E0,-1.842339977E-1,-4.633523718E-2,1.440139979E-1,2.383886568E-1
8.059490750E0,-1.985942477E-1,3.460529317E-2,1.628151351E-1,2.591253939E-1
8.069488750E0,-1.570040991E-1,-3.831072855E-2,2.537785149E-1,3.008679672E-1
8.079487750E0,-1.560773154E-1,3.256972209E-2,2.399732387E-1,2.881112120E-1
8.089485750E0,-1.420762306E-1,1.427587469E-1,2.050764710E-1,2.874405575E-1
8.099483750E0,-1.777763327E-1,-2.121928979E-2,1.799129784E-1,2.538175773E-1
8.109482750E0,-2.066475447E-1,1.374824753E-2,1.255765575E-1,2.422017627E-1
8.119480750E0,-1.075669871E-1,1.645401734E-1,9.027282357E-2,2.163176092E-1
8.129478750E0,-2.029383635E-1,-6.087983893E-3,7.173481107E-2,2.153298076E-1
8.139476750E0,-1.759166989E-1,4.848935142E-2,6.457723439E-2,1.935668395E-1
8.149475750E0,-1.719795493E-1,8.918243662E-2,5.245303273E-2,2.007032462E-1
8.159473750E0,-2.287248769E-1,8.926030509E-3,5.410837948E-2,2.352072704E-1
8.169471750E0,-1.915216749E-1,1.663430527E-2,9.918281078E-2,2.163203227E-1
8.179470750E0,-2.083374631E-1,1.331598298E-2,5.876334786E-2,2.168754136E-1
8.189468750E0,-2.043281735E-1,9.347267579E-3,-2.956936955E-2,2.066681435E-1
8.199466750E0,-1.775326500E-1,2.714213552E-2,-5.279100180E-2,1.871935555E-1
8.209465750E0,-1.839892917E-1,-7.227142101E-2,-4.173567116E-2,2.020323836E-1
8.219463750E0,-1.823370878E-1,5.758009069E-3,-1.305215478E-1,2.243119317E-1
8.229461750E0,-1.614631127E-1,-1.266966465E-2,-1.407266933E-1,2.145573568E-1
8.239459750E0,-1.582384463E-1,-9.815410282E-3,-1.826424587E-1,2.418553615E-1
8.249458750E0,-8.846720338E-2,1.762974805E-2,-2.896675551E-1,3.033884417E-1
8.259456750E0,-1.309338496E-1,-7.066469751E-3,-3.339713234E-1,3.587902630E-1
8.269454750E0,-1.398337504E-1,-3.417848297E-2,-1.498366553E-1,2.077803400E-1
8.279453750E0,-1.397252114E-1,4.778810581E-2,-2.391803563E-2,1.495958228E-1
8.289451750E0,-1.398700762E-1,6.994777406E-3,-3.166676581E-2,1.435804624E-1
8.299449750E0,-1.494386061E-1,-2.434354847E-2,-1.257736087E-1,1.968337013E-1
8.309448750E0,-1.134089403E-1,3.738114003E-2,-1.688307506E-1,2.067915852E-1
8.319446750E0,-1.308304270E-1,1.419878463E-2,-2.045531452E-1,2.432286893E-1
8.329444750E0,-1.591615755E-1,-1.387062793E-2,-1.667760390E-1,2.309524813E-1
8.339442750E0,-1.402912219E-1,1.144051597E-2,-1.282493198E-1,1.904216384E-1
8.349441750E0,-1.794268555E-1,2.814751857E-2,-1.504991448E-1,2.358734234E-1
8.359439750E0,-1.629238933E-1,2.636874075E-2,-1.242568409E-1,2.065896126E-1
8.369437750E0,-1.945918286E-1,2.593326936E-2,-1.123910862E-1,2.262084668E-1
8.379436750E0,-1.718309569E-1,1.863858461E-2,-1.482812959E-1,2.277292632E-1
8.389434750E0,-1.784834804E-1,3.960355707E-2,-1.282048810E-1,2.232964084E-1
8.399432750E0,-2.010615534E-1,4.166219724E-2,-2.743981361E-2,2.071579840E-1
8.409431750E0,-1.842414529E-1,1.586481169E-2,1.044605076E-2,1.852180477E-1
8.419429750E0,-1.779909255E-1,3.281196127E-2,-4.912070453E-2,1.875372976E-1
8.429427750E0,-1.487657377E-1,9.237413015E-4,-1.263571608E-1,1.951876792E-1
8.439426750E0,-1.583312709E-1,2.471815400E-2,-2.110780531E-1,2.650164580E-1
8.449424750E0,-1.403847773E-1,-1.763141999E-2,-2.243991798E-1,2.652805017E-1
8.459422750E0,-1.500123641E-1,1.457763853E-2,-2.387716359E-1,2.823616671E-1
8.469420750E0,-1.412219524E-1,2.696538515E-2,-2.992476332E-1,3.319938521E-1
8.479419750E0,-1.072157887E-1,-3.283905946E-3,-3.757455862E-1,3.907566441E-1
8.489417750E0,-7.866427325E-2,8.924075346E-3,-4.337031877E-1,4.408697790E-1
8.499415750E0,-1.061652634E-1,1.649198039E-2,-4.482551533E-1,4.609508987E-1
8.509414750E0,-1.068523112E-1,-1.414179255E-2,-3.665426534E-1,3.820614133E-1
8.519412750E0,-1.041358410E-1,9.606838273E-3,-3.376737803E-1,3.534970249E-1
8.529410750E0,-1.293108818E-1,1.271961266E-3,-4.001185352E-1,4.204970442E-1
8.539409750E0,-9.725454524E-2,-1.979102514E-2,-3.694405335E-1,3.825394608E-1
8.549407750E0,-1.236280460E-1,-4.546155352E-3,-3.252969790E-1,3.480268464E-1
8.559405750E0,-1.437827405E-1,3.183219633E-2,-3.534577543E-1,3.829088002E-1
8.569403750E0,-1.359628205E-1,-1.628515340E-2,-3.663526189E-1,3.911078319E-1
8.579402750E0,-1.455532043E-1,9.220291637E-3,-3.186159503E-1,3.504095788E-1
8.589400750E0,-1.614845281E-1,3.799338919E-2,-2.114569527E-1,2.687653126E-1
8.599398750E0,-1.658246239E-1,-1.615646898E-2,-1.417148727E-1,2.187280104E-1
8.609397750E0,-1.847408782E-1,1.082031825E-2,-9.830865204E-2,2.095491886E-1
8.619395750E0,-1.881579910E-1,7.877633879E-3,-6.599810779E-2,1.995525919E-1
8.629393750E0,-2.029817060E-1,1.467684933E-2,-5.884988666E-2,2.118496920E-1
8.639392750E0,-1.842710544E-1,2.224555836E-2,-6.651792526E-2,1.971682549E-1
8.649390750E0,-1.808844202E-1,7.286608284E-3,-4.334599435E-2,1.861481758E-1
8.659388750E0,-1.896755628E-1,4.353084859E-2,1.126816928E-2,1.949326179E-1
8.669387750E0,-1.763388678E-1,-1.441457430E-3,8.998280168E-2,1.979757023E-1
8.679385750E0,-1.884711825E-1,5.091648496E-2,2.199722528E-2,1.964631085E-1
8.689383750E0,-1.668334148E-1,3.602649548E-2,1.988404155E-2,1.718332674E-1
8.699381750E0,-1.837088446E-1,1.358755874E-3,6.928248882E-2,1.963437014E-1
8.709380750E0,-1.659921467E-1,6.762769938E-2,7.453562737E-2,1.941197008E-1
8.719378750E0,-1.622559951E-1,1.444263180E-2,3.832206666E-2,1.673444901E-1
8.729376750E0,-1.812274325E-1,1.763964264E-2,1.373510957E-3,1.820890601E-1
8.739375750E0,-1.415443533E-1,4.588649992E-2,8.882680714E-2,1.732933250E-1
8.749373750E0,-1.586238509E-1,1.612103851E-2,6.071631789E-2,1.706103315E-1
8.759371750E0,-1.455513040E-1,9.164925814E-3,-7.642310858E-3,1.460396620E-1
8.769370750E0,-1.502048106E-1,8.771316838E-3,-5.115612030E-2,1.589193813E-1
8.779368750E0,-1.702985479E-1,-2.024426658E-2,-3.793907404E-2,1.756439554E-1
8.789366750E0,-1.526770864E-1,2.639952086E-2,-2.547222555E-2,1.570224879E-1
8.799364750E0,-1.628965576E-1,-1.339026089E-2,-4.428915024E-2,1.693402386E-1
8.809363750E0,-1.567291338E-1,-1.255841224E-2,-6.476025224E-2,1.700459508E-1
8.819361750E0,-1.721973581E-1,1.654492510E-2,-9.451673269E-2,1.971270591E-1
8.829359750E0,-1.752772328E-1,-3.856383990E-2,-5.721325099E-2,1.883683470E-1
8.839358750E0,-1.979923499E-1,-4.670162005E-3,-2.441797256E-2,1.995470331E-1
8.849356750E0,-1.793000440E-1,2.511379123E-3,1.614591658E-2,1.800430600E-1
8.859354750E0,-1.920462433E-1,-3.149578043E-2,6.254649639E-2,2.044157722E-1
8.869353750E0,-1.841693129E-1,1.076252217E-2,6.628462136E-2,1.960301475E-1
8.879351750E0,-1.925612368E-1,-5.773595553E-3,4.217538178E-2,1.972103627E-1
8.889349833E0,-1.825218599E-1,7.000451032E-3,5.638820887E-2,1.911618836E-1
8.899348833E0,-1.911861178E-1,2.762977503E-2,8.435778022E-2,2.107884513E-1
8.909346833E0,-1.724148014E-1,2.554307736E-2,1.136909223E-1,2.080983862E-1
8.919344833E0,-1.695987093E-1,3.838488769E-2,1.449630010E-1,2.263877061E-1
8.929342833E0,-1.659183986E-1,3.831610068E-2,1.311881304E-1,2.149589824E-1
8.939341833E0,-1.622932711E-1,2.956124741E-2,1.006568938E-1,1.932479844E-1
8.949339833E0,-1.769686130E-1,2.797244014E-2,7.190438032E-2,1.930559175E-1
8.959337833E0,-1.758094756E-1,2.142692076E-2,2.025943279E-2,1.782653338E-1
8.969336833E0,-1.543102869E-1,2.604126013E-2,5.599878430E-3,1.565923705E-1
8.979334833E0,-1.820692123E-1,3.816294931E-2,1.967938900E-2,1.870638584E-1
8.989332833E0,-1.597060244E-1,5.850527552E-2,7.207570374E-2,1.847262530E-1
8.999331833E0,-1.713975321E-1,2.884863627E-2,6.356566608E-2,1.850674248E-1
9.009329833E0,-1.689806586E-1,3.181227012E-2,-8.419405818E-3,1.721550751E-1
9.019327833E0,-1.797746918E-1,2.699790115E-2,-5.316814721E-2,1.894061201E-1
9.029325833E0,-1.954108042E-1,1.221698052E-2,1.329832256E-2,1.962434264E-1
9.039324833E0,-1.855298869E-1,1.292753600E-2,9.548912466E-2,2.090613140E-1
9.049322833E0,-1.931761446E-1,2.189826116E-2,1.224307555E-1,2.297517063E-1
9.059320833E0,-1.937471983E-1,-2.543904260E-4,7.213943839E-2,2.067417232E-1
9.069319833E0,-1.918646141E-1,-1.712521557E-2,4.892189920E-2,1.987426864E-1
9.079317833E0,-2.062597281E-1,-1.459491522E-2,6.417903900E-2,2.165064342E-1
9.089315833E0,-2.097110472E-1,-2.402604466E-2,1.445513570E-1,2.558340653E-1
9.099314833E0,-1.995226394E-1,2.707836432E-3,1.705878389E-1,2.625201455E-1
9.109312833E0,-1.834320521E-1,-1.102699905E-2,1.265629828E-1,2.231302334E-1
9.119310833E0,-1.713073388E-1,-1.210624888E-2,1.219121075E-1,2.106070453E-1
9.129309833E0,-1.800985544E-1,1.159268975E-2,1.639535880E-1,2.438250577E-1
9.139307833E0,-1.837188580E-1,2.882604226E-3,1.645517582E-1,2.466540275E-1
9.149305833E0,-1.696986236E-1,1.001490997E-3,1.549670023E-1,2.298116568E-1
9.159303833E0,-1.577105159E-1,2.628259482E-3,1.239826065E-1,2.006270203E-1
9.169302833E0,-1.760355435E-1,1.585277008E-2,1.199351639E-1,2.135983765E-1
9.179300833E0,-1.912689290E-1,9.399472252E-3,2.051109695E-1,2.806112313E-1
9.189298833E0,-2.106646550E-1,1.516926711E-2,3.197789615E-1,3.832339857E-1
9.199297833E0,-2.175972600E-1,2.496170880E-2,3.515334356E-1,4.141828229E-1
9.209295833E0,-1.765393542E-1,5.802478057E-2,2.737087494E-1,3.308315255E-1
9.219293833E0,-1.964521933E-1,3.724857269E-2,1.911022103E-1,2.765880967E-1
9.229292833E0,-1.863981984E-1,3.356864579E-2,2.261398959E-1,2.949752445E-1
9.239290833E0,-2.172712047E-1,3.341615223E-2,2.842243820E-1,3.593145070E-1
9.249288833E0,-2.370350128E-1,2.222225172E-2,3.632576877E-1,4.343219698E-1
9.259287833E0,-2.368066791E-1,2.202913829E-2,3.973919785E-1,4.631231702E-1
9.269285833E0,-2.419137103E-1,2.614064452E-2,4.226887876E-1,4.877206041E-1
9.279283833E0,-2.373155330E-1,2.839905848E-2,4.846564096E-1,5.403859770E-1
9.289281833E0,-2.238845517E-1,3.907134167E-2,5.449768710E-1,5.904664700E-1
9.299280833E0,-2.363424832E-1,7.545968844E-3,5.943723947E-1,6.396821512E-1
9.309278833E0,-2.503394019E-1,2.929348147E-2,6.706943464E-1,7.164906353E-1
9.319276833E0,-2.510865299E-1,3.391505677E-2,7.841461176E-1,8.240629893E-1
9.329275833E0,-2.638132140E-1,1.568490017E-2,8.923465043E-1,9.306587515E-1
9.339273833E0,-2.504567847E-1,1.667479724E-2,1.013872111E0,1.044482315E0
9.349271833E0,-2.548891204E-1,2.941916920E-2,1.148111318E0,1.176432552E0
9.359270833E0,-3.066919427E-1,6.026999261E-3,1.279814588E0,1.316062937E0
9.369268833E0,-3.041316663E-1,2.379437615E-2,1.442954829E0,1.474849443E0
9.379266833E0,-3.348895555E-1,4.852314650E-2,1.558048498E0,1.594371548E0
9.389265833E0,-3.297521187E-1,3.339635393E-2,1.666253563E0,1.698897499E0
9.399263833E0,-3.391366075E-1,2.127824617E-2,1.756795358E0,1.789356402E0
9.409261833E0,-3.609117117E-1,4.240219893E-2,1.856768712E0,1.891995048E0
9.419259833E0,-3.754106138E-1,3.754364694E-2,1.895378462E0,1.932563626E0
9.429258833E0,-3.933088678E-1,2.031887339E-2,1.922904814E0,1.962821349E0
9.439256833E0,-4.119635323E-1,2.623589932E-2,1.989795792E0,2.032163765E0
9.449254833E0,-4.104947848E-1,3.935276633E-2,2.050405691E0,2.091463149E0
9.459253833E0,-4.013376065E-1,4.269674328E-2,2.034516467E0,2.074162998E0
9.469251833E0,-4.023095600E-1,4.092250619E-2,2.031204604E0,2.071067304E0
9.479249833E0,-3.982940577E-1,5.654334281E-2,2.034182591E0,2.073580025E0
9.489248833E0,-4.019006934E-1,4.908120842E-2,2.047341750E0,2.086993381E0
9.499246833E0,-4.079647677E-1,5.188158617E-2,2.040734981E0,2.081760364E0
9.509244833E0,-3.965056137E-1,5.344887751E-2,2.053589500E0,2.092200592E0
9.519243833E0,-3.808222119E-1,5.646770359E-2,2.066159844E0,2.101720880E0
9.529241833E0,-3.711602727E-1,5.295510756E-2,2.060928340E0,2.094752924E0
9.539239833E0,-3.521457852E-1,5.154811216E-2,2.063773595E0,2.094236212E0
9.549237833E0,-3.770251762E-1,5.202610376E-2,2.026947246E0,2.062369957E0
9.559236833E0,-3.667477445E-1,6.271244768E-2,1.980699279E0,2.015342748E0
9.569234833E0,-3.616227331E-1,4.194334782E-2,1.935196831E0,1.969141189E0
9.579232833E0,-3.511659381E-1,3.427431336E-2,1.841788146E0,1.875280197E0
9.589231833E0,-3.213216763E-1,4.512891090E-2,1.777575193E0,1.806947095E0
9.599229833E0,-3.353933662E-1,2.315219656E-2,1.768592116E0,1.800261871E0
9.609227833E0,-3.505750769E-1,3.389229831E-2,1.768462892E0,1.803195101E0
9.619226833E0,-3.507813375E-1,3.375931070E-2,1.758443103E0,1.793407200E0
9.629224833E0,-3.745803823E-1,3.012067976E-2,1.735241936E0,1.775466783E0
9.639222833E0,-3.788789628E-1,2.414692671E-2,1.800799164E0,1.840383105E0
9.649221833E0,-3.813036570E-1,1.789876565E-2,1.861560506E0,1.900294809E0
9.659219833E0,-3.740189765E-1,5.506648231E-2,1.860796275E0,1.898811546E0
9.669217833E0,-3.712305855E-1,2.910986063E-2,1.864810388E0,1.901624914E0
9.679215833E0,-3.842630059E-1,2.521030683E-2,1.872283130E0,1.911475277E0
9.689214833E0,-3.951609734E-1,4.136872184E-2,1.828851181E0,1.871512813E0
9.699212833E0,-3.732576690E-1,3.179058974E-2,1.743957796E0,1.783737852E0
9.709210833E0,-3.620427825E-1,3.504436425E-2,1.700825225E0,1.739284201E0
9.719209833E0,-3.633869842E-1,3.411448337E-2,1.689727210E0,1.728696602E0
9.729207833E0,-3.482683504E-1,3.737323715E-2,1.690603707E0,1.726507602E0
9.739205833E0,-3.427914096E-1,3.662464737E-2,1.678150892E0,1.713195182E0
9.749204833E0,-3.470387540E-1,4.649159538E-2,1.668991814E0,1.705324321E0
9.759202833E0,-3.360925470E-1,4.630850444E-2,1.604153793E0,1.639637786E0
9.769200833E0,-3.152234689E-1,4.267651557E-2,1.556845141E0,1.589010357E0
9.779199833E0,-3.363382763E-1,2.670521147E-2,1.529723416E0,1.566489813E0
9.789197833E0,-3.206902501E-1,5.568720994E-2,1.494692747E0,1.529722102E0
9.799195833E0,-2.993572685E-1,2.798295599E-2,1.468642817E0,1.499102913E0
9.809193833E0,-3.302398496E-1,4.740718712E-2,1.462189829E0,1.499768281E0
9.819192833E0,-3.378658614E-1,5.374746923E-2,1.465312243E0,1.504719940E0
9.829190833E0,-3.171974158E-1,-1.417427201E-2,1.375477375E0,1.411649078E0
9.839188833E0,-2.687386892E-1,1.064469804E-1,1.210353760E0,1.244390480E0
9.849187833E0,-2.879963478E-1,1.486540376E-2,1.141778199E0,1.177633361E0
9.859185833E0,-2.769949577E-1,-4.061010042E-3,1.063324937E0,1.098818739E0
9.869183833E0,-2.744672795E-1,5.633380235E-2,1.000146942E0,1.038652824E0
9.879182833E0,-2.939292251E-1,-1.275230225E-2,1.019885972E0,1.061472754E0
9.889180208E0,-2.736330280E-1,4.867190332E-2,9.352972269E-1,9.757176286E-1
9.899178208E0,-2.562025512E-1,4.386856184E-2,8.116385561E-1,8.522448848E-1
9.909177208E0,-2.485921077E-1,-4.378602474E-2,6.908140308E-1,7.354857423E-1
9.919175208E0,-2.194188139E-1,6.883355970E-2,5.424573058E-1,5.891880883E-1
9.929173208E0,-2.346972960E-1,-4.908929402E-3,4.194014829E-1,4.806292982E-1
9.939172208E0,-2.311725213E-1,-3.852121918E-2,2.514331967E-1,3.437197570E-1
9.949170208E0,-1.785768165E-1,5.054364273E-2,1.140002400E-1,2.178081586E-1
9.959168208E0,-1.733029935E-1,-1.465621049E-2,-7.712477446E-3,1.740925454E-1
9.969166208E0,-2.007796445E-1,1.418922809E-2,-1.610019135E-1,2.577506858E-1
9.979165208E0,-1.454335557E-1,1.885593658E-2,-2.380880964E-1,2.796290527E-1
9.989163208E0,-1.585208669E-1,-2.914316235E-3,-4.026135421E-1,4.327066243E-1
9.999161208E0,-1.521383386E-1,-1.965377089E-3,-4.662330025E-1,4.904315951E-1
1.000916021E1,-9.627367482E-2,3.081721106E-2,-5.157916635E-1,5.256038062E-1
1.001915821E1,-1.514300946E-1,-2.979323569E-2,-6.315051377E-1,6.500903394E-1
1.002915621E1,-9.132853836E-2,-9.186249878E-3,-6.587344515E-1,6.650987647E-1
1.003915521E1,-8.842312999E-2,5.680157960E-2,-7.178451240E-1,7.254975475E-1
1.004915321E1,-1.316248443E-1,-5.249347902E-2,-7.256254292E-1,7.393327589E-1
1.005915121E1,-1.252474324E-1,2.656554524E-4,-7.334004718E-1,7.440183075E-1
1.006915021E1,-1.051112296E-1,-9.930298934E-3,-6.736822736E-1,6.819052627E-1
1.007914821E1,-1.259826466E-1,1.062524965E-2,-7.384928119E-1,7.492370496E-1
1.008914621E1,-7.690871984E-2,-2.283058142E-2,-8.103334576E-1,8.142950934E-1
1.009914421E1,-5.560022347E-2,4.400869402E-2,-8.859227532E-1,8.887560265E-1
1.010914321E1,-6.800845362E-2,2.766727030E-2,-9.486335564E-1,9.514705733E-1
1.011914121E1,-9.000407092E-2,-3.021751514E-2,-1.013124252E0,1.017563060E0
1.012913921E1,-6.917599641E-2,4.732899888E-2,-1.046477939E0,1.049829239E0
1.013913821E1,-6.621321224E-2,3.974621085E-2,-1.072350699E0,1.075127887E0
1.014913621E1,-1.040063252E-1,-4.666034237E-2,-1.121007135E0,1.126788134E0
1.015913421E1,-5.792990036E-2,4.284228413E-2,-1.180271589E0,1.182468756E0
1.016913321E1,-9.137809351E-2,-2.253836682E-2,-1.190150460E0,1.193866011E0
1.017913121E1,-1.028292806E-1,-9.973696237E-3,-1.228184844E0,1.232522351E0
1.018912921E1,-3.175498568E-2,1.614672057E-3,-1.164588772E0,1.165022744E0
1.019912821E1,-6.941675551E-2,4.029635162E-2,-1.228982989E0,1.231601262E0
1.020912621E1,-2.480644695E-2,-3.760012739E-2,-1.114617882E0,1.115527746E0
1.021912421E1,-7.279710397E-3,6.819105120E-2,-1.061929792E0,1.064141859E0
1.022912321E1,-6.228892654E-2,-1.097864075E-2,-1.093512942E0,1.095340584E0
1.023912121E1,-4.629255250E-2,-1.393965248E-2,-1.231827074E0,1.232775428E0
1.024911921E1,-8.091420874E-2,-5.637701693E-2,-1.261168987E0,1.265018850E0
1.025911721E1,-5.852522001E-2,-8.171538692E-3,-1.253089305E0,1.254481877E0
1.026911621E1,-8.557663232E-2,-3.525545787E-2,-1.346352979E0,1.349530530E0
1.027911421E1,-6.378749482E-2,-1.550392885E-2,-1.465968300E0,1.467437315E0
1.028911221E1,-4.326091737E-2,-5.329923447E-2,-1.562091263E0,1.563598871E0
1.029911121E1,1.865386046E-2,4.778828854E-2,-1.630366861E0,1.631173746E0
1.030910921E1,-1.985436693E-2,-2.820579886E-2,-1.736813668E0,1.737156147E0
1.031910721E1,-6.695939004E-3,-2.809372419E-2,-1.849528105E0,1.849753580E0
1.032910621E1,2.295032144E-2,-5.273432035E-2,-1.968247048E0,1.969087116E0
1.033910421E1,4.148321763E-2,3.859015237E-2,-2.139045972E0,2.139796188E0
1.034910221E1,4.491772592E-2,-7.139368085E-2,-2.340077339E0,2.341597022E0
1.035910121E1,7.296279944E-2,6.948812809E-3,-2.615950143E0,2.616976692E0
1.036909921E1,1.022532568E-1,-6.612808043E-2,-2.846925101E0,2.849528239E0
1.037909721E1,1.249610650E-1,-1.568301810E-2,-3.108857558E0,3.111407486E0
1.038909621E1,1.711224937E-1,-7.628175214E-2,-3.281134073E0,3.286478757E0
1.039909421E1,1.864041187E-1,3.847294310E-3,-3.458953164E0,3.463974348E0
1.040909221E1,2.156720643E-1,-6.061054724E-2,-3.528843763E0,3.535947734E0
1.041909021E1,1.941749952E-1,-5.132165132E-3,-3.630758393E0,3.635950601E0
1.042908921E1,2.018938315E-1,-6.339024047E-2,-3.652598328E0,3.658723000E0
1.043908721E1,1.875984125E-1,-3.360997830E-2,-3.694796514E0,3.699708647E0
1.044908521E1,1.836600935E-1,-4.034200558E-2,-3.721446953E0,3.726194565E0
1.045908421E1,1.467106607E-1,-8.006470880E-2,-3.656340546E0,3.660158544E0
1.046908221E1,1.267498744E-1,-6.383336806E-2,-3.397241650E0,3.400204561E0
1.047908021E1,1.355911569E-1,-2.558100203E-2,-3.119724609E0,3.122774565E0
1.048907921E1,1.125192864E-1,-8.335105414E-3,-2.860173723E0,2.862398258E0
1.049907721E1,1.055996914E-1,-3.596245933E-2,-2.593104486E0,2.595502932E0
1.050907521E1,1.345982996E-1,3.974577231E-2,-2.315998505E0,2.320246862E0
1.051907421E1,4.271500669E-2,-1.099508604E-2,-2.011505919E0,2.011989445E0
1.052907221E1,-2.173095770E-2,-5.429088570E-2,-1.761061487E0,1.762032149E0
1.053907021E1,-2.842631198E-2,-1.019433727E-2,-1.523941104E0,1.524240293E0
1.054906821E1,-6.025643438E-2,-3.748323790E-2,-1.235949361E0,1.237984917E0
1.055906721E1,-1.217272624E-1,-2.637672585E-2,-9.909188658E-1,9.987159039E-1
1.056906521E1,-1.367586266E-1,5.146472538E-3,-8.189347118E-1,8.302911961E-1
1.057906321E1,-1.602399483E-1,-6.929462180E-3,-6.149200952E-1,6.354931801E-1
1.058906221E1,-1.409504224E-1,-2.133649905E-2,-3.628454590E-1,3.898449626E-1
1.059906021E1,-1.847211438E-1,3.164995506E-2,-2.561097997E-1,3.173576061E-1
1.060905821E1,-1.551046311E-1,1.338934726E-2,-2.299055028E-1,2.776567331E-1
1.061905721E1,-1.653892987E-1,2.510807192E-2,-2.357421935E-1,2.890647284E-1
1.062905521E1,-1.594681889E-1,1.586283825E-2,-2.162773973E-1,2.691795785E-1
1.063905321E1,-1.782900837E-1,1.091219262E-2,-2.035415769E-1,2.708054715E-1
1.064905221E1,-1.714788815E-1,2.433241135E-2,-2.437914705E-1,2.990507551E-1
1.065905021E1,-1.537061964E-1,2.632069308E-4,-2.949546075E-1,3.326016906E-1
1.066904821E1,-1.457871661E-1,3.567452051E-2,-2.699244314E-1,3.088458643E-1
1.067904721E1,-1.708152956E-1,7.041326724E-3,-2.264860511E-1,2.837664124E-1
1.068904521E1,-1.501128631E-1,2.350318481E-2,-1.924716282E-1,2.452174525E-1
1.069904321E1,-1.689609242E-1,1.194388814E-2,-2.072586519E-1,2.676688236E-1
1.070904221E1,-1.676273936E-1,4.161591288E-3,-2.235425627E-1,2.794414774E-1
1.071904021E1,-1.596707218E-1,-1.298538689E-3,-2.663447660E-1,3.105413982E-1
1.072903821E1,-1.712474048E-1,3.954937896E-3,-2.889302212E-1,3.358898449E-1
1.073903621E1,-1.552682070E-1,-1.320293072E-2,-1.895298940E-1,2.453652669E-1
1.074903521E1,-2.036678036E-1,2.674598666E-3,-9.475763798E-2,2.246480306E-1
1.075903321E1,-1.647582380E-1,1.087270564E-2,-1.031285119E-1,1.946766105E-1
1.076903121E1,-1.930379310E-1,2.574127056E-3,-2.086461961E-1,2.842595717E-1
1.077903021E1,-1.435343800E-1,6.310525266E-3,-2.625376439E-1,2.992790595E-1
1.078902821E1,-1.449292333E-1,1.383363515E-2,-3.129979455E-1,3.452007620E-1
1.079902621E1,-1.687540059E-1,-7.713199211E-3,-2.503023452E-1,3.019746213E-1
1.080902521E1,-1.679197544E-1,-4.024008131E-3,-1.226447636E-1,2.079783032E-1
1.081902321E1,-2.073669715E-1,4.296981739E-3,-6.998356998E-2,2.189000343E-1
1.082902121E1,-1.735829289E-1,2.129342152E-2,-7.719201744E-2,1.911623670E-1
1.083902021E1,-1.694798646E-1,1.522772100E-2,-1.525152647E-1,2.285086737E-1
1.084901821E1,-1.567082300E-1,2.355166188E-2,-2.410111195E-1,2.884415189E-1
1.085901621E1,-1.595974123E-1,5.546641359E-3,-2.927051836E-1,3.334342870E-1
1.086901521E1,-1.571524722E-1,3.578413753E-3,-2.994727510E-1,3.382212784E-1
1.087901321E1,-1.528956992E-1,3.850346739E-2,-3.322838169E-1,3.677936199E-1
1.088901196E1,-1.788715162E-1,9.527709000E-3,-3.372405016E-1,3.818598598E-1
1.089900996E1,-1.483072429E-1,2.342062944E-2,-2.460882568E-1,2.882758997E-1
1.090900896E1,-1.729741607E-1,3.572447766E-2,-2.409947473E-1,2.987888331E-1
1.091900696E1,-1.444634295E-1,1.702965927E-2,-2.567050463E-1,2.950545247E-1
1.092900496E1,-1.740834506E-1,9.799184259E-3,-3.298882127E-1,3.731317524E-1
1.093900396E1,-1.422255539E-1,2.654698947E-2,-3.843643820E-1,4.106931081E-1
1.094900196E1,-1.656150743E-1,-1.219306176E-2,-4.051494795E-1,4.378619924E-1
1.095899996E1,-1.426843411E-1,1.544495420E-2,-4.216012055E-1,4.453593428E-1
1.096899896E1,-1.696833477E-1,-1.461285886E-2,-3.974954742E-1,4.324449400E-1
1.097899696E1,-1.659927314E-1,-4.233329315E-3,-3.394121575E-1,3.778519824E-1
1.098899496E1,-1.761597969E-1,-2.074756566E-3,-3.305834466E-1,3.745957739E-1
1.099899396E1,-1.883710489E-1,1.196024207E-2,-3.506516755E-1,3.982251838E-1
1.100899196E1,-1.543245395E-1,-3.960466255E-2,-3.285024226E-1,3.651005812E-1
1.101898996E1,-1.677390023E-1,-1.438987895E-2,-3.033617342E-1,3.469463694E-1
1.102898896E1,-1.616747819E-1,2.258359138E-2,-2.723820162E-1,3.175542732E-1
1.103898696E1,-1.957741356E-1,-1.951765867E-2,-2.584843540E-1,3.248424425E-1
1.104898496E1,-1.473191366E-1,1.719281486E-2,-2.197190684E-1,2.650943038E-1
1.105898396E1,-1.577945696E-1,-2.308591289E-2,-1.273734069E-1,2.040981880E-1
1.106898196E1,-1.856683197E-1,5.304159153E-2,-8.500272810E-2,2.109777219E-1
1.107897996E1,-1.546806349E-1,-1.553905782E-2,-8.545120955E-2,1.773963651E-1
1.108897796E1,-1.780250587E-1,6.730547212E-3,-1.131190646E-1,2.110311459E-1
1.109897696E1,-1.457883355E-1,4.627978913E-2,-1.324014276E-1,2.023022385E-1
1.110897496E1,-1.870427808E-1,1.335577145E-3,-1.320751530E-1,2.289773606E-1
1.111897296E1,-1.489921711E-1,2.017106675E-2,-1.238177150E-1,1.947725996E-1
1.112897196E1,-1.754625164E-1,1.992410411E-2,-1.562767786E-1,2.358102969E-1
1.113896996E1,-1.667378859E-1,1.748734094E-2,-1.891825694E-1,2.527792995E-1
1.114896796E1,-1.638148628E-1,-6.986819711E-3,-2.102717221E-1,2.666426861E-1
1.115896696E1,-1.754196855E-1,1.139339106E-3,-2.466297090E-1,3.026542211E-1
1.116896496E1,-1.713212259E-1,1.086210757E-2,-2.364350885E-1,2.921823042E-1
1.117896296E1,-1.790565806E-1,2.254732037E-3,-2.141156816E-1,2.791269747E-1
1.118896196E1,-1.804387893E-1,1.839124739E-2,-1.973294950E-1,2.680211265E-1
1.119895996E1,-1.679456283E-1,2.000088536E-2,-1.655644959E-1,2.366798931E-1
1.120895796E1,-1.843195863E-1,1.285274645E-2,-1.739289379E-1,2.537521989E-1
1.121895696E1,-1.712012118E-1,2.847444188E-2,-1.912869823E-1,2.582854203E-1
1.122895496E1,-1.776788304E-1,1.290898936E-2,-1.761590660E-1,2.505362754E-1
1.123895296E1,-1.715629352E-1,8.082423471E-3,-2.013096946E-1,2.646219179E-1
1.124895196E1,-1.744988953E-1,1.572261471E-2,-2.192805272E-1,2.806795587E-1
1.125894996E1,-1.870804223E-1,-6.724489862E-3,-1.330586547E-1,2.296713059E-1
1.126894796E1,-1.933418401E-1,-1.522254073E-2,-5.791199327E-2,2.024020549E-1
1.127894596E1,-1.927320486E-1,1.061934762E-2,-2.545117557E-2,1.946950832E-1
1.128894496E1,-2.037375317E-1,-7.359378710E-3,1.825325310E-2,2.046859143E-1
1.129894296E1,-1.841248009E-1,3.454845641E-3,1.178798676E-3,1.841609835E-1
1.130894096E1,-1.837302601E-1,3.506607204E-2,-6.288914323E-2,1.973359628E-1
1.131893996E1,-1.709953898E-1,-1.419256283E-3,-8.279598892E-2,1.899910877E-1
1.132893796E1,-1.583408457E-1,1.424983813E-2,-1.333960390E-1,2.075316471E-1
1.133893596E1,-1.647488824E-1,3.003239594E-2,-2.060044241E-1,2.654843909E-1
1.134893496E1,-1.585279566E-1,-1.056854079E-2,-2.193442619E-1,2.708407508E-1
1.135893296E1,-1.785072347E-1,2.140365067E-2,-2.355159062E-1,2.962949395E-1
1.136893096E1,-1.671487259E-1,1.617067588E-2,-1.859701091E-1,2.505694890E-1
1.137892996E1,-1.818364200E-1,2.031980529E-3,-1.946421146E-1,2.663722309E-1
1.138892796E1,-1.660004789E-1,3.575936909E-2,-1.950818253E-1,2.586345105E-1
1.139892596E1,-1.778555625E-1,1.639236758E-2,-1.555675113E-1,2.368597927E-1
1.140892496E1,-1.921702773E-1,1.507554721E-2,-1.028712344E-1,2.184929712E-1
1.141892296E1,-2.056129530E-1,2.519872203E-2,-9.164165676E-2,2.265167881E-1
1.142892096E1,-2.091632362E-1,-1.261970750E-2,-3.175973654E-2,2.119367765E-1
1.143891996E1,-2.151439145E-1,2.338849716E-3,6.329318583E-2,2.242730513E-1
1.144891796E1,-2.135023087E-1,3.902323005E-2,1.279440951E-1,2.519439219E-1
1.145891596E1,-2.237508698E-1,8.774605896E-3,1.360202694E-1,2.619980136E-1
1.146891396E1,-2.270488456E-1,2.136864047E-2,1.641623336E-1,2.809930050E-1
1.147891296E1,-2.180707383E-1,4.461178863E-3,2.255235994E-1,3.137445504E-1
1.148891096E1,-2.161247119E-1,2.704337239E-5,2.126386750E-1,3.031915202E-1
1.149890896E1,-2.078799916E-1,2.639043940E-2,2.389721954E-1,3.178336929E-1
1.150890796E1,-2.110390960E-1,7.194185732E-3,2.675492924E-1,3.408399628E-1
1.151890596E1,-2.105550197E-1,8.478645422E-4,2.566237700E-1,3.319486323E-1
1.152890396E1,-1.975224531E-1,2.800421610E-2,2.147208685E-1,2.930945358E-1
1.153890296E1,-2.061814485E-1,1.737035095E-2,1.325546247E-1,2.457300294E-1
1.154890096E1,-1.784809953E-1,-2.347382996E-3,8.526409864E-2,1.978154251E-1
1.155889896E1,-1.776834351E-1,3.702767584E-2,9.171416223E-2,2.033566803E-1
1.156889796E1,-1.946282275E-1,8.418199830E-3,1.784172606E-1,2.641661067E-1
1.157889596E1,-2.030276066E-1,1.481672569E-2,2.799401271E-1,3.461303500E-1
1.158889396E1,-2.298311701E-1,2.014732157E-2,2.920988274E-1,3.722230598E-1
1.159889296E1,-2.046097901E-1,1.738517912E-2,3.277522248E-1,3.867672834E-1
1.160889096E1,-2.273261498E-1,-5.413242616E-5,2.876473421E-1,3.666308426E-1
1.161888896E1,-2.212405139E-1,5.553182932E-3,2.904955208E-1,3.651928949E-1
1.162888796E1,-2.349735770E-1,2.261440803E-2,2.794191402E-1,3.657855236E-1
1.163888596E1,-2.301333980E-1,-7.450778000E-3,2.720867318E-1,3.564380516E-1
1.164888396E1,-2.269310973E-1,-2.295150915E-3,2.446966195E-1,3.337355633E-1
1.165888296E1,-2.356115813E-1,1.705103816E-2,1.903479195E-1,3.033741676E-1
1.166888096E1,-2.180360205E-1,-2.053140141E-3,1.744639581E-1,2.792518474E-1
1.167887896E1,-2.300218624E-1,2.468900015E-2,1.289346135E-1,2.648466319E-1
1.168887696E1,-2.181010707E-1,4.540092520E-2,1.284568959E-1,2.571585021E-1
1.169887596E1,-2.147588023E-1,1.790091268E-2,1.708018470E-1,2.749819208E-1
1.170887396E1,-1.939668343E-1,2.859875003E-2,2.257013547E-1,2.989684312E-1
1.171887196E1,-2.223107006E-1,2.695212842E-2,3.109958589E-1,3.832321608E-1
1.172887096E1,-2.064719821E-1,1.983688010E-2,4.507817352E-1,4.962140203E-1
1.173886896E1,-2.352315854E-1,3.138156787E-2,4.757557780E-1,5.316599118E-1
1.174886696E1,-2.114294708E-1,3.805562549E-2,3.760408705E-1,4.330789629E-1
1.175886596E1,-1.962516338E-1,1.240754494E-2,2.661383593E-1,3.309052391E-1
1.176886396E1,-2.014552903E-1,1.982707688E-2,2.580499059E-1,3.279742382E-1
1.177886196E1,-2.305975208E-1,2.905894417E-2,3.641599131E-1,4.320093530E-1
1.178886096E1,-2.474703924E-1,2.853951043E-2,4.966250753E-1,5.556010837E-1
1.179885896E1,-2.465305256E-1,2.393293689E-2,5.548569113E-1,6.076316956E-1
1.180885696E1,-2.540792079E-1,3.144691964E-2,5.404920566E-1,5.980608798E-1
1.181885596E1,-2.334253804E-1,1.273083201E-2,5.427479124E-1,5.909524336E-1
1.182885396E1,-2.515366924E-1,8.549478957E-3,5.494950145E-1,6.043910756E-1
1.183885196E1,-2.924399393E-1,5.984835355E-3,5.676044261E-1,6.385387388E-1
1.184885096E1,-2.866338734E-1,-1.584602751E-2,6.397526354E-1,7.012086055E-1
1.185884896E1,-3.087477507E-1,-7.293670624E-4,7.002321410E-1,7.652782218E-1
1.186884696E1,-3.076774909E-1,2.697345248E-2,7.970836669E-1,8.548306134E-1
1.187884596E1,-2.960611930E-1,2.163657085E-2,9.114388329E-1,9.585620049E-1
1.188884350E1,-2.964817540E-1,2.122611458E-2,9.235390610E-1,9.701939886E-1
1.189884150E1,-2.839836960E-1,1.789027805E-2,8.343035334E-1,8.814925908E-1
1.190884050E1,-2.714250463E-1,-4.773940947E-3,7.774054474E-1,8.234400864E-1
1.191883850E1,-2.861605413E-1,8.522088407E-3,7.747057879E-1,8.259113386E-1
1.192883650E1,-2.670345913E-1,8.077654336E-3,7.996991265E-1,8.431437685E-1
1.193883450E1,-2.959393517E-1,1.723904441E-2,8.517890471E-1,9.018990328E-1
1.194883350E1,-2.760709514E-1,1.538604350E-2,9.529868084E-1,9.922881424E-1
1.195883150E1,-2.898418021E-1,4.022513436E-2,1.066013487E0,1.105446103E0
1.196882950E1,-3.065236160E-1,5.327879663E-2,1.151663502E0,1.192947685E0
1.197882850E1,-2.942885365E-1,3.184747218E-2,1.231466301E0,1.266542244E0
1.198882650E1,-3.039056714E-1,3.635177426E-2,1.356027782E0,1.390140804E0
1.199882450E1,-3.369659018E-1,4.296747850E-2,1.500789054E0,1.538752744E0
1.200882350E1,-3.662624256E-1,2.841219644E-2,1.618896378E0,1.660054487E0
1.201882150E1,-3.769912624E-1,4.469038800E-2,1.703624287E0,1.745409796E0
1.202881950E1,-3.916009692E-1,5.449159138E-2,1.782204434E0,1.825533702E0
1.203881850E1,-3.837416536E-1,5.032061714E-2,1.803454970E0,1.844516101E0
1.204881650E1,-3.764308798E-1,3.556673074E-2,1.801657535E0,1.840906047E0
1.205881450E1,-3.888774092E-1,4.153030599E-2,1.787574517E0,1.829856021E0
1.206881350E1,-3.819525518E-1,5.291780415E-2,1.720643193E0,1.763321027E0
1.207881150E1,-4.042799985E-1,1.981480686E-2,1.692490604E0,1.740218201E0
1.208880950E1,-4.017311241E-1,3.143415626E-2,1.755487336E0,1.801141801E0
1.209880850E1,-4.013385567E-1,3.959444820E-2,1.776553100E0,1.821752254E0
1.210880650E1,-3.827354208E-1,3.503079688E-2,1.795234369E0,1.835913941E0
1.211880450E1,-3.673155823E-1,3.286887112E-2,1.837710882E0,1.874348523E0
1.212880350E1,-3.897416277E-1,3.587850611E-2,1.873751950E0,1.914192303E0
1.213880150E1,-4.026672634E-1,4.448600954E-2,1.952012839E0,1.993608300E0
1.214879950E1,-3.947290103E-1,4.857060031E-2,2.014696160E0,2.053575105E0
1.215879750E1,-4.043653679E-1,3.436462543E-2,2.013331420E0,2.053824648E0
1.216879650E1,-3.848997677E-1,5.316603673E-2,1.989519804E0,2.027107177E0
1.217879450E1,-3.881661686E-1,2.764626601E-2,1.956281306E0,1.994611200E0
1.218879250E1,-4.142986909E-1,1.275457718E-2,1.901777070E0,1.946422901E0
1.219879150E1,-3.869622999E-1,4.776955004E-2,1.881265038E0,1.921244361E0
1.220878950E1,-3.958589847E-1,2.050419359E-2,1.879154778E0,1.920507078E0
1.221878750E1,-3.960734314E-1,2.916120649E-2,1.865667005E0,1.907468981E0
1.222878650E1,-3.827465305E-1,4.086732309E-2,1.860256577E0,1.899663016E0
1.223878450E1,-3.980334911E-1,1.748035169E-2,1.896608132E0,1.938003774E0
1.224878250E1,-4.073212085E-1,4.704700777E-2,1.926972138E0,1.970113095E0
1.225878150E1,-4.236769670E-1,3.925256881E-2,1.957321526E0,2.003035320E0
1.226877950E1,-4.155833242E-1,8.271544352E-3,2.051141855E0,2.092835595E0
1.227877750E1,-4.266777581E-1,7.553181932E-2,2.055744199E0,2.100914842E0
1.228877650E1,-3.973919054E-1,4.680705266E-2,2.027127925E0,2.066242689E0
1.229877450E1,-3.890871781E-1,1.918226603E-2,1.942972459E0,1.981640423E0
1.230877250E1,-3.957465720E-1,6.195095748E-2,1.782488024E0,1.826941933E0
1.231877150E1,-3.701688042E-1,4.383325014E-2,1.753737264E0,1.792914022E0
1.232876950E1,-3.837714013E-1,5.497094429E-2,1.721531970E0,1.764645748E0
1.233876750E1,-4.037387656E-1,5.576860500E-2,1.643528359E0,1.693310543E0
1.234876650E1,-3.802105200E-1,5.045724099E-2,1.561938651E0,1.608340238E0
1.235876450E1,-3.469641289E-1,2.887439143E-2,1.509837620E0,1.549460382E0
1.236876250E1,-3.471111864E-1,5.235356611E-2,1.437087733E0,1.479340469E0
1.237876150E1,-3.294305950E-1,4.735723911E-2,1.350583439E0,1.390986287E0
1.238875950E1,-3.146973657E-1,-3.307121219E-3,1.262134362E0,1.300779965E0
1.239875750E1,-3.176735985E-1,5.692431631E-2,1.117249129E0,1.162928420E0
1.240875650E1,-2.859553041E-1,1.908314659E-2,1.028945063E0,1.068111673E0
1.241875450E1,-2.934318464E-1,-2.367427982E-3,9.118756199E-1,9.579274499E-1
1.242875250E1,-3.056991586E-1,3.772131094E-2,7.937700498E-1,8.514374697E-1
1.243875050E1,-2.823299573E-1,-1.643308796E-2,7.401738864E-1,7.923620595E-1
1.244874950E1,-2.569115261E-1,3.852289111E-2,6.210052925E-1,6.731531169E-1
1.245874750E1,-2.556654114E-1,2.711234213E-2,5.284859687E-1,5.877051138E-1
1.246874550E1,-2.439658637E-1,8.247634722E-3,4.710078388E-1,5.305051841E-1
1.247874450E1,-2.072957086E-1,1.893416137E-2,4.758078182E-1,5.193487201E-1
1.248874250E1,-2.517462420E-1,3.217704501E-4,5.011057967E-1,5.607881002E-1
1.249874050E1,-2.473571026E-1,1.923130956E-3,4.874905550E-1,5.466591954E-1
1.250873950E1,-2.151911308E-1,3.187328216E-2,4.234150118E-1,4.760287818E-1
1.251873750E1,-2.546283346E-1,-2.583338248E-2,3.800035286E-1,4.581545964E-1
1.252873550E1,-2.484273624E-1,2.058012516E-2,3.594762933E-1,4.374504559E-1
1.253873450E1,-2.237631489E-1,3.510156646E-3,3.153081805E-1,3.866542599E-1
1.254873250E1,-2.263476913E-1,1.189838036E-2,2.108248687E-1,3.095512463E-1
1.255873050E1,-1.867829452E-1,4.670475380E-2,1.856678081E-1,2.674728726E-1
1.256872950E1,-2.163442748E-1,-2.295579406E-2,1.069122452E-1,2.424088321E-1
1.257872750E1,-1.864571822E-1,3.070867212E-2,4.719872475E-2,1.947742872E-1
1.258872550E1,-1.759974635E-1,2.945102739E-2,-1.134242892E-2,1.788047004E-1
1.259872450E1,-2.254937055E-1,-3.628544491E-2,-7.647573352E-2,2.408580133E-1
1.260872250E1,-1.906665196E-1,4.587080380E-2,-1.119542992E-1,2.258132358E-1
1.261872050E1,-1.941475864E-1,2.666846537E-2,-1.076355457E-1,2.235842191E-1
1.262871950E1,-2.169091158E-1,-7.284844983E-3,-1.137938333E-1,2.450544225E-1
1.263871750E1,-1.643801424E-1,3.278719283E-2,-2.224772000E-1,2.785532907E-1
1.264871550E1,-1.655762634E-1,1.309523231E-2,-3.522631681E-1,3.894564465E-1
1.265871450E1,-1.609310161E-1,-5.932886498E-3,-4.522546488E-1,4.800710973E-1
1.266871250E1,-1.304591288E-1,3.431061178E-2,-5.914546341E-1,6.066427174E-1
1.267871050E1,-1.120694894E-1,3.000462167E-2,-6.830419117E-1,6.928247260E-1
1.268870950E1,-1.466795973E-1,-2.606034581E-2,-6.788254845E-1,6.949806359E-1
1.269870750E1,-1.713505351E-1,-2.936499109E-3,-7.268586069E-1,7.467884998E-1
1.270870550E1,-1.441989161E-1,-4.160602743E-2,-7.645871812E-1,7.791777375E-1
1.271870450E1,-1.402302647E-1,-1.011021959E-2,-8.545653051E-1,8.660534651E-1
1.272870250E1,-7.914981142E-2,-3.391129263E-3,-8.819560021E-1,8.855069633E-1
1.273870050E1,-1.078624177E-1,-1.791676411E-2,-9.276087230E-1,9.340306497E-1
1.274869850E1,-9.310587265E-2,4.922286635E-3,-9.199611497E-1,9.246736989E-1
1.275869750E1,-6.944255635E-2,6.215407513E-4,-8.900017709E-1,8.927070108E-1
1.276869550E1,-7.347457699E-2,1.379566479E-2,-9.889150250E-1,9.917367395E-1
1.277869350E1,-4.146545671E-2,2.183455392E-2,-1.033057995E0,1.034120376E0
1.278869250E1,-1.237066180E-1,-1.242125848E-2,-1.070161502E0,1.077359390E0
1.279869050E1,-1.322846295E-1,-8.121443585E-2,-1.042597142E0,1.054089090E0
1.280868850E1,-7.565244555E-2,5.071665636E-2,-1.082549998E0,1.086374691E0
1.281868750E1,-1.378130257E-1,-5.852399575E-2,-1.102435209E0,1.112556011E0
1.282868550E1,-9.056211457E-2,-2.314474136E-3,-1.087918911E0,1.091684208E0
1.283868350E1,-1.022523797E-1,-3.002834857E-2,-1.089730378E0,1.094929015E0
1.284868250E1,-7.211780369E-2,2.580275768E-3,-1.093329340E0,1.095708301E0
1.285868050E1,-9.323714264E-2,-1.163037688E-2,-1.119234259E0,1.123171295E0
1.286867850E1,-8.659353621E-2,8.520681420E-3,-1.178827912E0,1.182034808E0
1.287867750E1,-7.576478519E-2,-2.989900634E-3,-1.244722524E0,1.247029833E0
1.288867508E1,-3.553784184E-2,2.453539196E-2,-1.311196595E0,1.311907555E0
1.289867308E1,-4.275133252E-2,2.528132309E-2,-1.349829149E0,1.350742593E0
1.290867208E1,-6.185374752E-2,-3.280511820E-2,-1.392522594E0,1.394281620E0
1.291867008E1,-6.043755189E-2,2.506608160E-2,-1.453161144E0,1.454633396E0
1.292866808E1,-2.333024427E-2,-1.505025800E-2,-1.468913543E0,1.469175894E0
1.293866708E1,-2.790810250E-2,3.951647923E-2,-1.473271472E0,1.474065550E0
1.294866508E1,-4.167412922E-2,-3.144320117E-2,-1.542460406E0,1.543343614E0
1.295866308E1,-5.271849632E-2,-2.396562648E-2,-1.712837160E0,1.713815839E0
1.296866208E1,-2.358452506E-2,-6.664100002E-2,-1.812418166E0,1.813796257E0
1.297866008E1,1.821115315E-3,7.188466424E-3,-1.919296498E0,1.919310823E0
1.298865808E1,1.392814077E-2,-1.554251133E-2,-2.092336074E0,2.092440157E0
1.299865708E1,2.034341343E-2,-4.239076945E-2,-2.288116057E0,2.288599118E0
1.300865508E1,4.525116339E-2,-2.766573541E-2,-2.482545333E0,2.483111836E0
1.301865308E1,7.911209688E-2,-3.086726870E-2,-2.635352958E0,2.636720829E0
1.302865208E1,1.021749041E-1,-4.553851750E-2,-2.907764211E0,2.909915149E0
1.303865008E1,1.379589868E-1,-3.290679580E-2,-3.131080486E0,3.134291076E0
1.304864808E1,1.179337350E-1,-7.385592509E-2,-3.290926405E0,3.293866978E0
1.305864708E1,1.370437514E-1,-4.758882539E-2,-3.357073032E0,3.360206099E0
1.306864508E1,1.184879780E-1,-7.280804009E-2,-3.386241283E0,3.389095814E0
1.307864308E1,1.268687922E-1,-6.192977959E-2,-3.391620721E0,3.394557719E0
1.308864108E1,1.365319739E-1,-4.250450693E-2,-3.450141410E0,3.453103439E0
1.309864008E1,1.475816035E-1,-5.766774410E-2,-3.442221941E0,3.445866769E0
1.310863808E1,1.197286841E-1,-6.521493721E-2,-3.262294929E0,3.265142593E0
1.311863608E1,1.256386111E-1,-2.756212092E-2,-3.033426138E0,3.036151983E0
1.312863508E1,8.620557345E-2,-3.344693234E-2,-2.853654662E0,2.855152365E0
1.313863308E1,8.891656190E-2,-1.911543419E-2,-2.614600021E0,2.616181344E0
1.314863108E1,6.131434187E-2,-9.418585338E-5,-2.347248949E0,2.348049634E0
1.315863008E1,3.046253175E-2,-5.197434677E-3,-2.007456722E0,2.007694566E0
1.316862808E1,-1.332383104E-2,2.611622326E-2,-1.750886162E0,1.751131615E0
1.317862608E1,-5.032844692E-3,1.220971718E-3,-1.549253701E0,1.549262357E0
1.318862508E1,-5.353907995E-2,1.818783738E-2,-1.399557379E0,1.400699142E0
1.319862308E1,-8.742245212E-2,-9.074851284E-3,-1.166761597E0,1.170067376E0
1.320862108E1,-9.531531617E-2,4.238674035E-3,-9.206359184E-1,9.255665671E-1
1.321862008E1,-1.170464201E-1,9.921153523E-3,-8.364810365E-1,8.446885925E-1
1.322861808E1,-1.440391409E-1,-2.774925923E-2,-7.563654113E-1,7.704582603E-1
1.323861608E1,-1.613862949E-1,-1.218793631E-2,-6.335820687E-1,6.539268459E-1
1.324861508E1,-1.499120843E-1,-2.276861007E-2,-4.874659967E-1,5.105047900E-1
1.325861308E1,-2.300200351E-1,2.839908589E-2,-3.275873333E-1,4.012844198E-1
1.326861108E1,-2.111470503E-1,-1.346239178E-2,-1.343251616E-1,2.506143688E-1
1.327861008E1,-1.974837153E-1,2.051836395E-2,-1.446519291E-1,2.456521965E-1
1.328860808E1,-2.153582150E-1,3.780042194E-3,-2.205511272E-1,3.082794985E-1
1.329860608E1,-1.696569622E-1,-3.777289434E-2,-1.329797173E-1,2.188467079E-1
1.330860508E1,-2.060733481E-1,5.896277446E-3,-8.209022999E-2,2.219004208E-1
1.331860308E1,-2.194687345E-1,-3.038599717E-2,-1.054486871E-2,2.218130485E-1
1.332860108E1,-2.069547428E-1,-1.091401074E-2,-5.284128785E-3,2.073096795E-1
1.333860008E1,-1.801945949E-1,3.977313546E-2,-1.317500478E-1,2.267378871E-1
1.334859808E1,-1.582831775E-1,9.037447376E-3,-1.859233314E-1,2.443414105E-1
1.335859608E1,-1.567717454E-1,8.318815436E-3,-1.669029236E-1,2.291356994E-1
1.336859508E1,-1.719482667E-1,4.826705673E-2,-1.591161865E-1,2.391942223E-1
1.337859308E1,-1.803302503E-1,1.417884928E-2,-1.568603307E-1,2.394268203E-1
1.338859108E1,-2.142880283E-1,7.307603443E-3,-1.224067819E-1,2.468930546E-1
1.339859008E1,-1.980273601E-1,3.939926083E-2,-1.427346271E-1,2.472656687E-1
1.340858808E1,-1.815551689E-1,1.474735396E-2,-1.957010454E-1,2.673549382E-1
1.341858608E1,-1.850597707E-1,-6.158662112E-3,-2.399884415E-1,3.031163141E-1
1.342858508E1,-2.096647080E-1,8.235885473E-3,-2.703781754E-1,3.422447623E-1
1.343858308E1,-1.925865260E-1,-2.046470661E-3,-2.899961686E-1,3.481257472E-1
1.344858108E1,-1.839661221E-1,-3.516643401E-2,-3.513931024E-1,3.981925722E-1
1.345858008E1,-2.060510556E-1,1.624595879E-2,-4.407964450E-1,4.868495400E-1
1.346857808E1,-1.664841899E-1,-1.340626764E-2,-4.266046679E-1,4.581356307E-1
1.347857608E1,-1.631145857E-1,1.300514865E-2,-3.748527163E-1,4.090110767E-1
1.348857508E1,-1.446915440E-1,3.192198764E-2,-3.802888727E-1,4.081351283E-1
1.349857308E1,-1.519200913E-1,-4.059283286E-3,-3.792778891E-1,4.085925955E-1
1.350857108E1,-1.769181807E-1,-1.905500687E-2,-3.493740588E-1,3.920782689E-1
1.351857008E1,-1.829568196E-1,1.675660344E-2,-3.559983695E-1,4.006105598E-1
1.352856808E1,-1.763376253E-1,-3.067794682E-2,-3.347723919E-1,3.796164497E-1
1.353856608E1,-1.912942182E-1,2.460088078E-3,-3.316482246E-1,3.828708331E-1
1.354856508E1,-1.736305106E-1,1.949037775E-2,-2.608676791E-1,3.139735260E-1
1.355856308E1,-1.763721970E-1,2.281695924E-2,-2.370806211E-1,2.963696786E-1
1.356856108E1,-1.794571149E-1,1.076623150E-2,-2.099933946E-1,2.764380466E-1
1.357855908E1,-1.956050780E-1,2.836504413E-2,-1.861923033E-1,2.715391244E-1
1.358855808E1,-1.764733538E-1,1.545230890E-2,-2.065534776E-1,2.721138688E-1
1.359855608E1,-2.060864313E-1,-1.836994160E-3,-2.480178380E-1,3.224714556E-1
1.360855508E1,-1.958169664E-1,-1.514913077E-3,-1.990626097E-1,2.792355670E-1
1.361855308E1,-2.176762705E-1,-1.034789063E-2,-1.122431517E-1,2.451296854E-1
1.362855108E1,-2.072649376E-1,1.068667282E-2,-2.962140977E-2,2.096434765E-1
1.363854908E1,-2.103808457E-1,-2.421971541E-3,-3.801508784E-2,2.138015741E-1
1.364854808E1,-2.108566629E-1,1.237070748E-2,-7.126060188E-2,2.229162176E-1
1.365854608E1,-2.264822504E-1,7.590782270E-3,-3.444185436E-2,2.292118475E-1
1.366854408E1,-2.254436387E-1,1.618886621E-2,3.128845096E-3,2.260457991E-1
1.367854308E1,-2.133198025E-1,1.115435871E-2,-3.143813968E-2,2.159122842E-1
1.368854108E1,-2.089425769E-1,3.204420358E-3,-8.037056386E-2,2.238899200E-1
1.369853908E1,-1.952520523E-1,-8.274148190E-3,-1.168770701E-1,2.277105069E-1
1.370853808E1,-1.880930869E-1,1.451616967E-3,-1.390081966E-1,2.338897075E-1
1.371853608E1,-2.067613462E-1,-1.501032335E-2,-1.204292536E-1,2.397473028E-1
1.372853408E1,-1.975258152E-1,1.680448665E-2,-7.219732583E-2,2.109769947E-1
1.373853308E1,-2.042698476E-1,1.232544637E-2,-1.214992940E-2,2.050017269E-1
1.374853108E1,-1.900269073E-1,1.472067604E-2,2.664459229E-2,1.924496249E-1
1.375852908E1,-2.074855238E-1,1.522254987E-2,-1.658855081E-2,2.087034945E-1
1.376852808E1,-1.913453814E-1,-1.109786913E-2,-3.616619825E-2,1.950492542E-1
1.377852608E1,-2.110272554E-1,-2.769816918E-3,7.409006953E-3,2.111754432E-1
1.378852408E1,-2.119647834E-1,-4.170197658E-3,5.472935379E-2,2.189560735E-1
1.379852308E1,-2.069249951E-1,1.286476065E-2,5.896156847E-2,2.155456384E-1
1.380852108E1,-2.087384360E-1,-7.241630405E-3,2.576341689E-2,2.104469755E-1
1.381851908E1,-2.121271167E-1,1.008773522E-2,3.948040009E-3,2.124035382E-1
1.382851808E1,-2.109923914E-1,1.685955098E-2,2.328595161E-2,2.129419386E-1
1.383851608E1,-2.284321506E-1,-1.283483022E-2,3.572765708E-2,2.315652085E-1
1.384851408E1,-2.421771274E-1,3.963589034E-2,4.638186872E-2,2.497439540E-1
1.385851308E1,-2.157186958E-1,-2.906157542E-4,6.512511849E-2,2.253351310E-1
1.386851108E1,-2.253171196E-1,6.429625740E-3,1.574772120E-2,2.259582598E-1
1.387850908E1,-2.103532907E-1,1.767719273E-2,5.753367841E-2,2.187946851E-1
1.388850813E1,-2.201770516E-1,-5.193862393E-3,1.238644928E-1,2.526802779E-1
1.389850613E1,-2.371273258E-1,2.402522240E-2,1.530643183E-1,2.832583017E-1
1.390850413E1,-2.331452257E-1,8.875835817E-3,1.782342428E-1,2.936033413E-1
1.391850313E1,-2.174510796E-1,1.133254347E-2,1.385760874E-1,2.581021708E-1
1.392850113E1,-2.175446351E-1,1.532386201E-2,7.675815403E-2,2.311975415E-1
1.393849913E1,-2.014985597E-1,7.548024505E-4,8.200018287E-2,2.175460165E-1
1.394849813E1,-2.088458055E-1,2.398923461E-2,1.236142319E-1,2.438699083E-1
1.395849613E1,-2.226566365E-1,-2.382740378E-5,7.195817471E-2,2.339956351E-1
1.396849413E1,-2.254835460E-1,6.703503840E-3,9.380688071E-3,2.257781295E-1
1.397849313E1,-2.008824094E-1,6.117457515E-3,2.614290118E-2,2.026687370E-1
1.398849112E1,-2.059208089E-1,8.316650139E-3,9.228660464E-2,2.258082452E-1
1.399848912E1,-2.113145730E-1,2.563491519E-2,1.663719964E-1,2.701677975E-1
1.400848812E1,-2.134825013E-1,-5.000045467E-3,1.744376457E-1,2.757322452E-1
1.401848612E1,-2.218764717E-1,1.679902316E-2,1.229318619E-1,2.542117593E-1
1.402848412E1,-2.276566637E-1,9.521286199E-3,8.370698512E-2,2.427448676E-1
1.403848312E1,-2.108576862E-1,-7.566653369E-3,2.352451801E-2,2.123007796E-1
1.404848112E1,-2.109203976E-1,2.694951545E-2,-4.847868025E-2,2.180914325E-1
1.405847913E1,-1.986059421E-1,-3.904112801E-3,-2.078100443E-2,1.997283467E-1
1.406847813E1,-2.027731796E-1,3.302945942E-4,-1.973025978E-2,2.037310841E-1
1.407847613E1,-2.310291184E-1,1.554346151E-2,-6.463336766E-2,2.404028389E-1
1.408847413E1,-2.039535132E-1,-1.540885678E-2,-3.649188817E-2,2.077645935E-1
1.409847313E1,-2.210097682E-1,3.205224350E-3,-5.819675267E-2,2.285660804E-1
1.410847113E1,-2.084223939E-1,3.857609164E-4,-7.856611311E-2,2.227390339E-1
1.411846913E1,-2.079401448E-1,-2.161471688E-2,-4.998492301E-2,2.149530003E-1
1.412846813E1,-2.306100923E-1,1.978769040E-2,-6.031987667E-2,2.391883251E-1
1.413846613E1,-1.879136505E-1,-4.583851621E-3,-1.110865724E-1,2.183409680E-1
1.414846412E1,-2.131423395E-1,-3.187244162E-3,-1.780032778E-1,2.777138497E-1
1.415846313E1,-1.803415793E-1,8.074557139E-3,-1.844498330E-1,2.580891796E-1
1.416846112E1,-1.813250810E-1,-3.450789135E-3,-1.834090286E-1,2.579332564E-1
1.417845912E1,-1.832828019E-1,1.828694768E-2,-2.082456619E-1,2.780166427E-1
1.418845812E1,-1.869485676E-1,-1.551001361E-3,-1.768075222E-1,2.573190090E-1
1.419845612E1,-1.770195568E-1,7.171710497E-3,-1.113806874E-1,2.092678056E-1
1.420845412E1,-1.847133963E-1,5.108968131E-3,-7.841876328E-2,2.007352554E-1
1.421845312E1,-1.917614108E-1,1.589190074E-2,-7.957124949E-2,2.082224169E-1
1.422845113E1,-1.889800365E-1,2.689554747E-3,-8.640313625E-2,2.078128722E-1
1.423844913E1,-1.874456540E-1,4.531537313E-3,-7.409182370E-2,2.016085473E-1
1.424844813E1,-1.945066785E-1,2.295286132E-2,-4.442305148E-2,2.008309969E-1
1.425844613E1,-1.935139675E-1,-2.455364624E-3,-2.917760611E-3,1.935515377E-1
1.426844413E1,-2.103054897E-1,1.601780774E-3,4.171929896E-2,2.144095721E-1
1.427844313E1,-2.246742182E-1,-8.286582660E-3,2.662295759E-2,2.263977775E-1
1.428844113E1,-2.137000908E-1,-2.787488300E-2,-6.743593812E-3,2.156158945E-1
1.429843913E1,-2.183287467E-1,-1.132768298E-2,-6.915268064E-2,2.292986072E-1
1.430843813E1,-1.982364712E-1,8.909457307E-3,-1.326072496E-1,2.386666286E-1
1.431843613E1,-2.026033180E-1,-2.558324042E-2,-1.822945493E-1,2.737405878E-1
1.432843412E1,-1.955818353E-1,-2.990677217E-3,-1.849883616E-1,2.692246132E-1
1.433843312E1,-2.137660912E-1,1.017698748E-2,-1.572877622E-1,2.655917035E-1
1.434843112E1,-1.868218292E-1,3.600587491E-3,-9.142297089E-2,2.080228826E-1
1.435842912E1,-1.917252311E-1,1.761178614E-2,-3.499909401E-2,1.956876998E-1
1.436842812E1,-1.811530267E-1,1.484850165E-2,-6.314583600E-2,1.924169787E-1
1.437842612E1,-1.577518118E-1,2.715042212E-2,-1.005767870E-1,1.890462103E-1
1.438842412E1,-1.789242873E-1,1.031389455E-2,-1.477316576E-1,2.322604566E-1
1.439842312E1,-1.797751303E-1,3.771426687E-3,-1.904011291E-1,2.618891199E-1
1.440842113E1,-1.588797397E-1,9.494964592E-4,-2.275274402E-1,2.775110976E-1
1.441841913E1,-1.791292322E-1,5.369635178E-3,-2.643520349E-1,3.193714345E-1
1.442841813E1,-1.788395027E-1,-1.658937307E-3,-2.469869739E-1,3.049407894E-1
1.443841613E1,-1.727727972E-1,1.102029302E-2,-1.845708704E-1,2.530578837E-1
1.444841413E1,-2.041297337E-1,1.533611376E-2,-9.760406256E-2,2.267833715E-1
1.445841213E1,-1.998103224E-1,2.321434150E-2,-7.335390508E-2,2.141118072E-1
1.446841113E1,-1.924759405E-1,3.687912002E-2,-8.860812128E-2,2.150777913E-1
1.447840913E1,-1.755683510E-1,4.495832752E-3,-1.094043285E-1,2.069148749E-1
1.448840813E1,-1.865693756E-1,9.319566395E-3,-1.619532555E-1,2.472323668E-1
1.449840612E1,-1.968280962E-1,-1.023101941E-2,-1.526784021E-1,2.493123897E-1
1.450840412E1,-2.356413290E-1,-3.372262856E-2,-7.395499885E-2,2.492657086E-1
1.451840212E1,-2.382400509E-1,6.005702605E-3,1.599388897E-2,2.388518260E-1
1.452840112E1,-2.427663074E-1,7.596949255E-3,1.340743160E-1,2.774330836E-1
1.453839912E1,-2.240498087E-1,2.581828935E-3,2.204242426E-1,3.143116755E-1
1.454839712E1,-2.177421979E-1,4.528083801E-3,2.112856293E-1,3.034366250E-1
1.455839612E1,-2.215170141E-1,1.257982766E-3,1.494630182E-1,2.672275507E-1
1.456839413E1,-1.901778386E-1,-1.431952964E-2,7.610735893E-2,2.053411534E-1
1.457839213E1,-2.265071741E-1,5.253878580E-3,5.895162821E-3,2.266447796E-1
1.458839113E1,-2.169460995E-1,-3.696070695E-3,7.894150436E-2,2.308918191E-1
1.459838913E1,-2.334911616E-1,-2.415809124E-2,1.934603924E-1,3.041852385E-1
1.460838713E1,-2.200128910E-1,3.902275496E-2,2.755155391E-1,3.547354787E-1
1.461838613E1,-2.394108827E-1,1.776998986E-2,3.556288254E-1,4.290748242E-1
1.462838413E1,-2.295373475E-1,8.793499712E-3,3.727284229E-1,4.378255323E-1
1.463838213E1,-2.050675540E-1,4.234306896E-2,3.217102969E-1,3.838530348E-1
1.464838113E1,-2.216143703E-1,1.651770813E-2,2.522810429E-1,3.362015592E-1
1.465837913E1,-2.212435106E-1,9.751693904E-4,2.684731525E-1,3.478900337E-1
1.466837712E1,-2.497465673E-1,1.625987333E-2,3.449804610E-1,4.262032964E-1
1.467837612E1,-2.703966672E-1,1.363660226E-2,3.900706798E-1,4.748214925E-1
1.468837412E1,-2.434071623E-1,2.070995162E-2,3.703480214E-1,4.436593352E-1
1.469837312E1,-2.262751859E-1,2.740801938E-2,3.181312162E-1,3.913555033E-1
1.470837112E1,-2.436373964E-1,1.077495664E-3,2.570658195E-1,3.541795837E-1
1.471836912E1,-2.576289795E-1,-5.487959068E-3,2.438961357E-1,3.548071783E-1
1.472836713E1,-2.504035020E-1,1.121935417E-2,3.039236516E-1,3.939509788E-1
1.473836612E1,-2.718446571E-1,-9.894493874E-3,3.688844633E-1,4.583373930E-1
1.474836413E1,-2.451989684E-1,7.041555131E-3,4.336868155E-1,4.982533207E-1
1.475836213E1,-2.312139635E-1,6.688986300E-3,4.354515052E-1,4.930746929E-1
1.476836113E1,-2.317073223E-1,-1.207690316E-2,4.017464000E-1,4.639335132E-1
1.477835913E1,-2.407145926E-1,8.367557460E-3,3.876399922E-1,4.563751688E-1
1.478835713E1,-2.686785360E-1,2.735394177E-2,3.973381841E-1,4.804310839E-1
1.479835613E1,-2.412663504E-1,2.255610947E-2,4.859229165E-1,5.429910780E-1
1.480835413E1,-2.532025641E-1,2.006482101E-2,5.740457189E-1,6.277281441E-1
1.481835213E1,-2.396293493E-1,2.463430127E-2,5.901729244E-1,6.374426677E-1
1.482835113E1,-2.286324178E-1,1.382072560E-2,5.506270355E-1,5.963672754E-1
1.483834912E1,-2.723998502E-1,7.246710174E-4,4.768047684E-1,5.491311235E-1
1.484834712E1,-2.672564200E-1,3.252733891E-2,4.395036256E-1,5.154099909E-1
1.485834612E1,-2.793772595E-1,3.181281829E-2,4.447228503E-1,5.261578871E-1
1.486834412E1,-2.556548864E-1,2.679511241E-2,4.548964208E-1,5.225018207E-1
1.487834212E1,-2.507448332E-1,3.016077887E-2,4.465120983E-1,5.129870348E-1
1.488834171E1,-2.512197002E-1,3.298619002E-2,3.866348559E-1,4.622617638E-1
1.489833971E1,-2.545558291E-1,2.106313258E-2,3.062473351E-1,3.987853507E-1
1.490833771E1,-2.452271812E-1,-4.147603652E-3,1.926242405E-1,3.118616217E-1
1.491833671E1,-2.403814474E-1,1.542745823E-2,1.288474900E-1,2.731719649E-1
1.492833471E1,-2.257081521E-1,-3.594447915E-3,1.477088535E-1,2.697684107E-1
1.493833271E1,-2.402314664E-1,-1.493519576E-2,2.517278963E-1,3.482831482E-1
1.494833171E1,-2.530808689E-1,1.775269490E-3,3.439373177E-1,4.270198547E-1
1.495832971E1,-2.576689598E-1,3.831552509E-3,3.837574410E-1,4.622529039E-1
1.496832771E1,-2.302684687E-1,-6.484781429E-3,4.158019370E-1,4.753492094E-1
1.497832671E1,-2.450605356E-1,-6.341698235E-3,3.959190649E-1,4.656681105E-1
1.498832471E1,-2.353583968E-1,8.048052806E-3,3.987590575E-1,4.631059620E-1
1.499832271E1,-2.433964180E-1,-5.686161406E-3,4.074427575E-1,4.746406529E-1
1.500832171E1,-2.421683566E-1,-9.766028719E-3,4.414232665E-1,5.035825538E-1
1.501831971E1,-2.476327989E-1,-5.916441204E-3,5.286841893E-1,5.838355756E-1
1.502831771E1,-2.598677322E-1,-7.190713948E-3,5.884123278E-1,6.432822180E-1
1.503831671E1,-2.600867835E-1,1.488516552E-2,6.147639745E-1,6.676836433E-1
1.504831471E1,-2.797511890E-1,-7.581262272E-3,6.575807959E-1,7.146542565E-1
1.505831271E1,-2.907932172E-1,7.888423819E-3,7.168598682E-1,7.736349223E-1
1.506831171E1,-2.807030426E-1,3.358292579E-2,7.753817260E-1,8.253113546E-1
1.507830971E1,-2.869193637E-1,2.218814601E-2,8.152065271E-1,8.645095239E-1
1.508830771E1,-3.040533867E-1,2.851475112E-2,8.638635474E-1,9.162542123E-1
1.509830671E1,-3.205235314E-1,3.813324728E-2,9.063739747E-1,9.621347414E-1
1.510830471E1,-3.247804505E-1,2.393068023E-2,9.812142420E-1,1.033845446E0
1.511830371E1,-3.349449579E-1,3.407892499E-2,1.060527629E0,1.112685198E0
1.512830171E1,-3.518767402E-1,3.923144574E-2,1.170835353E0,1.223197355E0
1.513829971E1,-3.458218022E-1,4.116753194E-2,1.301506589E0,1.347296139E0
1.514829771E1,-3.577201552E-1,3.463642959E-2,1.405074227E0,1.450309269E0
1.515829671E1,-3.642089566E-1,4.532172284E-2,1.462848811E0,1.508187278E0
1.516829471E1,-3.492558720E-1,5.522213702E-2,1.433044968E0,1.476024061E0
1.517829371E1,-3.686259433E-1,2.257638286E-2,1.429884548E0,1.476808924E0
1.518829171E1,-3.673215026E-1,3.219618551E-2,1.519531134E0,1.563629288E0
1.519828971E1,-3.872349995E-1,3.668385956E-2,1.549005779E0,1.597095975E0
1.520828771E1,-3.790286516E-1,2.731371475E-2,1.612608283E0,1.656778268E0
1.521828671E1,-3.701502393E-1,3.812549058E-3,1.703310876E0,1.743070187E0
1.522828471E1,-3.839298608E-1,2.025921352E-2,1.753445488E0,1.795099901E0
1.523828371E1,-3.964865372E-1,1.452842142E-2,1.836214580E0,1.878589000E0
1.524828171E1,-4.131394804E-1,8.056869311E-3,1.933647904E0,1.977307098E0
1.525827971E1,-4.411938364E-1,2.017260164E-2,2.005482702E0,2.053538362E0
1.526827871E1,-4.152770032E-1,2.325601204E-2,2.103358660E0,2.144088031E0
1.527827671E1,-4.405222106E-1,1.847692737E-2,2.156616270E0,2.201225784E0
1.528827471E1,-4.500788999E-1,2.027025928E-2,2.169456171E0,2.215744114E0
1.529827271E1,-4.478051370E-1,1.527323792E-2,2.165681208E0,2.211546474E0
1.530827171E1,-4.691573413E-1,6.878472632E-3,2.254705651E0,2.303009661E0
1.531826971E1,-4.803389718E-1,2.835770770E-2,2.327263166E0,2.376485542E0
1.532826871E1,-4.572599385E-1,3.432600640E-2,2.352816083E0,2.397083321E0
1.533826671E1,-4.662879664E-1,4.468317035E-2,2.331360894E0,2.377953884E0
1.534826471E1,-4.507543994E-1,6.284687882E-2,2.379373552E0,2.422508567E0
1.535826371E1,-4.570174252E-1,5.340100343E-2,2.430982831E0,2.474145129E0
1.536826171E1,-4.691690357E-1,5.771738148E-2,2.453860647E0,2.498976382E0
1.537825971E1,-4.797943767E-1,5.391758666E-2,2.470017089E0,2.516762636E0
1.538825871E1,-4.739365630E-1,5.618468922E-2,2.485124540E0,2.530536813E0
1.539825671E1,-4.721618599E-1,5.294968061E-2,2.541546078E0,2.585574782E0
1.540825471E1,-4.874339101E-1,6.873306982E-2,2.577621644E0,2.624204526E0
1.541825371E1,-4.959983269E-1,6.790870378E-2,2.596943768E0,2.644757620E0
1.542825171E1,-4.646984739E-1,5.512839884E-2,2.580486780E0,2.622574276E0
1.543824971E1,-4.600340769E-1,3.344464827E-2,2.414029414E0,2.457699719E0
1.544824871E1,-4.451464080E-1,7.851555297E-2,2.220783615E0,2.266318574E0
1.545824671E1,-4.378082255E-1,1.678265096E-2,2.140262777E0,2.184646986E0
1.546824471E1,-4.446879863E-1,2.407035559E-2,2.036237302E0,2.084367803E0
1.547824371E1,-4.309859866E-1,4.814214558E-2,1.834164546E0,1.884735039E0
1.548824171E1,-3.946136740E-1,-1.136526961E-2,1.669833228E0,1.715864835E0
1.549823971E1,-3.649658787E-1,1.511767457E-2,1.530325679E0,1.573316663E0
1.550823871E1,-3.983919986E-1,2.739623358E-2,1.440496659E0,1.494823523E0
1.551823671E1,-3.839504723E-1,-3.249981131E-2,1.505909461E0,1.554425137E0
1.552823471E1,-3.620836399E-1,1.743653412E-2,1.519518855E0,1.562160730E0
1.553823371E1,-3.711870237E-1,5.786711589E-2,1.378041964E0,1.428330517E0
1.554823171E1,-2.976638418E-1,-3.281669386E-2,1.188824896E0,1.225963022E0
1.555822971E1,-2.785733405E-1,1.666167755E-2,9.027539635E-1,9.449049879E-1
1.556822871E1,-3.157437980E-1,3.512284485E-2,6.632216048E-1,7.353847002E-1
1.557822671E1,-2.736589750E-1,-5.244978022E-2,5.733785516E-1,6.374975902E-1
1.558822471E1,-2.757717933E-1,4.342233706E-2,4.282939285E-1,5.112448244E-1
1.559822371E1,-2.698669825E-1,1.968625948E-2,3.535706055E-1,4.452279306E-1
1.560822171E1,-1.917445269E-1,6.834782967E-3,3.343736118E-1,3.855105577E-1
1.561821971E1,-2.033079075E-1,4.173795523E-2,1.358588862E-1,2.480600716E-1
1.562821871E1,-2.232389461E-1,1.062163169E-2,2.746788025E-2,2.251731124E-1
1.563821671E1,-1.881559445E-1,-4.560334850E-3,1.920517981E-2,1.891885172E-1
1.564821471E1,-2.367563930E-1,2.402269165E-2,-2.676972270E-2,2.394729576E-1
1.565821371E1,-2.091562195E-1,4.759613441E-2,-5.432238758E-2,2.212750279E-1
1.566821171E1,-1.851019438E-1,-1.793664465E-2,-1.284311682E-1,2.260066764E-1
1.567820971E1,-2.327014221E-1,6.211679913E-3,-2.323034459E-1,3.288668846E-1
1.568820871E1,-2.129496738E-1,-7.503156262E-3,-2.884782314E-1,3.586412566E-1
1.569820671E1,-2.221651049E-1,-6.607479768E-2,-4.195008856E-1,4.792746663E-1
1.570820471E1,-1.609033880E-1,5.639977539E-2,-5.230685234E-1,5.501559007E-1
1.571820371E1,-9.945989572E-2,4.618036819E-2,-5.844350517E-1,5.946336914E-1
1.572820171E1,-1.259219818E-1,-2.077113725E-2,-6.512085003E-1,6.635964862E-1
1.573819971E1,-1.517862631E-1,1.152593100E-2,-6.218525541E-1,6.402128676E-1
1.574819871E1,-1.848414503E-1,-1.386729319E-2,-6.195949441E-1,6.467275766E-1
1.575819671E1,-2.195218711E-1,-9.913413271E-2,-6.288920170E-1,6.734408639E-1
1.576819471E1,-1.492765651E-1,5.220739486E-2,-6.044717056E-1,6.248160912E-1
1.577819371E1,-1.244131809E-1,1.774797144E-2,-6.007242250E-1,6.137289504E-1
1.578819171E1,-1.662591451E-1,-5.981730849E-2,-6.984481555E-1,7.204512750E-1
1.579818971E1,-8.848196760E-2,5.399605813E-2,-7.818072313E-1,7.886489585E-1
1.580818871E1,-1.423128967E-1,-6.079176525E-2,-8.532186913E-1,8.671393974E-1
1.581818671E1,-1.614263483E-1,-8.899354415E-2,-9.693584275E-1,9.867289789E-1
1.582818471E1,-4.999391310E-2,6.888348944E-3,-1.059293867E0,1.060495326E0
1.583818371E1,-3.659859985E-2,7.675333008E-2,-1.190707115E0,1.193739488E0
1.584818171E1,-7.319493391E-2,-4.438128043E-2,-1.194726491E0,1.197789040E0
1.585817971E1,-1.331864163E-1,-6.775240039E-2,-1.186340999E0,1.195714839E0
