"Time (s)","Linear Acceleration x (m/s^2)","Linear Acceleration y (m/s^2)","Linear Acceleration z (m/s^2)","Absolute acceleration (m/s^2)"
3.769581672E-4,1.995618157E-3,-9.737624042E-3,-2.349937499E-2,2.551518055E-2
1.037495816E-2,-6.043207012E-3,-9.472288359E-3,-2.965473890E-2,3.171195574E-2
2.037395816E-2,-1.648004841E-2,5.747118630E-3,-2.892500639E-2,3.378279685E-2
3.037195816E-2,-1.371303633E-2,2.680619471E-3,-3.432315588E-2,3.705822602E-2
4.037095816E-2,8.735374734E-4,-6.173161380E-3,-4.225314975E-2,4.271065034E-2
5.036895815E-2,7.272474468E-5,-1.593463110E-2,-1.993725121E-2,2.552276911E-2
6.036795815E-2,-4.281185120E-3,-1.972788434E-2,-1.872804701E-2,2.753647965E-2
7.036595815E-2,-1.143770199E-2,-2.492280655E-2,-2.440393925E-2,3.670857616E-2
8.036395814E-2,-2.176834334E-2,-2.151720542E-2,3.745141625E-3,3.083629334E-2
9.036295814E-2,-4.558145799E-2,-1.852476491E-2,-1.017649412E-2,5.024338026E-2
1.003609581E-1,-5.254428584E-2,-1.214877823E-2,-1.735979855E-2,5.665560337E-2
1.103599581E-1,-6.047709368E-2,-9.169292953E-3,-9.725089073E-3,6.193651710E-2
1.203579581E-1,-6.162015125E-2,3.903564624E-4,-2.020329952E-2,6.484881441E-2
1.303569581E-1,-4.318347830E-2,-1.090158541E-3,-3.143112302E-2,5.342206228E-2
1.403549581E-1,-2.156643167E-2,1.311493926E-3,-2.934249759E-2,3.643917063E-2
1.503529581E-1,7.056127489E-4,-6.064275261E-3,-2.067049205E-2,2.155324953E-2
1.603519581E-1,1.478442896E-2,-1.396766430E-2,-1.618743181E-2,2.599438275E-2
1.703499581E-1,4.044307105E-2,-3.241212135E-2,-2.142302871E-2,5.608149218E-2
1.803489581E-1,4.407426506E-2,-2.608579947E-2,-2.561314344E-2,5.726292773E-2
1.903469583E-1,3.661566641E-2,-2.819540178E-2,-4.490720093E-2,6.443868717E-2
2.003459581E-1,6.759637110E-3,-2.126191964E-2,-3.367060661E-2,4.039148017E-2
2.103439583E-1,-5.754025653E-3,-9.301476572E-3,-2.408292711E-2,2.645021088E-2
2.203429583E-1,-2.885999266E-2,1.472749170E-3,-2.571780860E-2,3.868428422E-2
2.303409583E-1,-5.093706898E-2,-3.588344883E-3,-1.388947606E-2,5.291860505E-2
2.403389583E-1,-5.265841618E-2,-7.278687134E-4,-1.447770596E-2,5.461723682E-2
2.503379583E-1,-4.484829023E-2,-1.508468349E-2,-1.507529140E-2,4.966066072E-2
2.603359583E-1,-3.901050322E-2,-1.414679009E-2,-3.229066372E-2,5.257982498E-2
2.703349583E-1,-2.337391566E-2,-1.171018224E-2,-2.900862157E-2,3.905084413E-2
2.803329583E-1,-1.848736100E-2,-1.332801545E-2,-2.303101301E-2,3.240132826E-2
2.903319583E-1,-6.085635871E-3,-1.889379730E-2,-2.528394520E-2,3.214480402E-2
3.003299583E-1,-1.146193139E-2,-2.130372724E-2,-1.930282831E-2,3.094872932E-2
3.103279583E-1,-1.197926380E-2,-2.087242199E-2,-1.706743777E-2,2.950352848E-2
3.203269583E-1,-1.248117417E-2,-1.416027524E-2,-2.051261723E-2,2.787580616E-2
3.303249583E-1,-1.082937229E-2,-1.119376346E-2,-3.593230963E-2,3.916256529E-2
3.403239583E-1,-9.171942472E-3,-9.554898553E-3,-3.533530891E-2,3.773598642E-2
3.503219583E-1,-2.121369839E-3,-1.387896935E-2,-2.889109254E-2,3.212197423E-2
3.603209583E-1,1.074268732E-2,-7.985524144E-3,-2.783742428E-2,3.088844634E-2
3.703189583E-1,1.715050478E-2,-1.067124166E-2,-8.672005534E-3,2.198224039E-2
3.803169583E-1,1.119098604E-2,-1.355433924E-2,-1.660609245E-2,2.418099641E-2
3.903159583E-1,-1.295450628E-3,-1.758250438E-2,-1.256040394E-2,2.164685658E-2
4.003139583E-1,-1.048844308E-2,-1.843285399E-2,-2.363619983E-2,3.175606220E-2
4.103129583E-1,-2.264878783E-2,-1.902831981E-2,-3.021724105E-2,4.228624128E-2
4.203109583E-1,-4.480728664E-2,-8.382897265E-3,-3.874774396E-2,5.982769897E-2
4.303099583E-1,-5.871565651E-2,-1.324156802E-2,-3.994349957E-2,7.223815197E-2
4.403079583E-1,-5.855262883E-2,-1.102178223E-2,-2.048981309E-2,6.300573360E-2
4.503059583E-1,-4.874461893E-2,-1.049059924E-2,-6.870478392E-3,5.033183903E-2
4.603049583E-1,-2.870975576E-2,-1.361752572E-2,-4.184852242E-3,3.204996210E-2
4.703029583E-1,1.850278303E-4,-1.869649032E-2,-1.032852173E-2,2.136050905E-2
4.803019583E-1,1.492224053E-2,-1.262399241E-2,-2.320701420E-2,3.034145605E-2
4.902999583E-1,3.400554243E-2,-1.184930943E-2,-3.024647713E-2,4.702799622E-2
5.002989583E-1,3.515514158E-2,-2.284159977E-2,-3.398284793E-2,5.396718089E-2
5.102969583E-1,2.698833548E-2,-1.695060309E-2,-3.218482912E-2,4.529411024E-2
5.202949583E-1,8.559446633E-3,-1.847776791E-2,-3.801801145E-2,4.312842715E-2
5.302939583E-1,-1.068838131E-2,-1.578238422E-2,-3.726664424E-2,4.185842710E-2
5.402919583E-1,-3.516668983E-2,-8.449518979E-3,-2.379173577E-2,4.329130554E-2
5.502909583E-1,-4.152758338E-2,-3.885200713E-3,-1.167162716E-2,4.331122079E-2
5.602889583E-1,-4.018791318E-2,-8.170826063E-3,-1.512265384E-2,4.370955758E-2
5.702869582E-1,-3.488204006E-2,-9.765928220E-3,-1.557405889E-2,3.942944817E-2
5.802859582E-1,-1.848151378E-2,-1.154466949E-2,-3.488682747E-2,4.113315544E-2
5.902839582E-1,6.415857375E-4,-3.634435561E-2,-2.949803352E-2,4.681300886E-2
6.002829582E-1,1.124108937E-2,-2.918570084E-2,-1.393157601E-2,3.423822475E-2
6.102809582E-1,4.289151952E-3,-2.906186778E-2,-6.150686145E-3,3.001366228E-2
6.202799582E-1,-6.848953329E-3,-3.120474441E-2,-1.438531995E-2,3.503686152E-2
6.302779582E-1,-2.976748053E-2,-8.427847736E-3,-2.486469984E-2,3.969111755E-2
6.402759582E-1,-3.096952189E-2,-3.664358687E-3,-1.722121954E-2,3.562455913E-2
6.502749582E-1,-3.039901637E-2,-1.576263160E-3,-2.349937499E-2,3.845523926E-2
6.602729582E-1,-3.486128245E-2,-3.333625551E-3,-2.334676266E-2,4.208911260E-2
6.702719582E-1,-2.101825520E-2,-3.088682033E-3,-1.466774046E-2,2.581568552E-2
6.802699582E-1,-8.382275999E-3,-1.160884269E-2,-2.096343756E-2,2.538687641E-2
6.902689582E-1,-1.084914319E-3,-1.967692221E-2,-1.947532117E-2,2.770643321E-2
7.002669582E-1,1.956112906E-2,-3.167493364E-2,-4.447801530E-2,5.800200890E-2
7.102649582E-1,2.667751942E-2,-2.768420896E-2,-6.093968153E-2,7.205380110E-2
7.202639582E-1,1.711209588E-2,-1.172141986E-2,-2.560437262E-2,3.295147047E-2
7.302619582E-1,-1.736038327E-3,-1.212639436E-3,-2.243576646E-3,3.085119064E-3
7.402609582E-1,-1.275317933E-2,3.224629797E-3,-1.211893916E-2,1.788604224E-2
7.502589582E-1,-3.056379821E-2,3.733904008E-3,-1.451220453E-2,3.403956346E-2
7.602579582E-1,-2.937005259E-2,-2.850243542E-3,-3.442138910E-2,4.533823889E-2
7.702559582E-1,-2.176344629E-2,2.236468624E-3,-5.014221311E-2,5.470732055E-2
7.802539582E-1,-2.112953503E-2,-9.351762626E-3,-2.364730954E-2,3.306218328E-2
7.902529582E-1,-1.727607373E-2,-1.554443909E-2,-2.424255610E-2,3.358264189E-2
8.002509582E-1,-1.027520243E-2,-8.969208542E-3,-8.975476027E-3,1.632745102E-2
8.102499582E-1,-3.023047037E-3,-9.850274306E-3,-6.432521939E-3,1.214677141E-2
8.202479582E-1,-3.362185545E-3,-9.787891824E-3,-1.945134759E-2,2.203320315E-2
8.302469582E-1,-1.011656016E-2,-1.140581639E-2,-5.239339113E-2,5.456651786E-2
8.402449582E-1,-1.808375694E-2,-1.172741326E-2,-4.731216073E-2,5.199033602E-2
8.502429582E-1,-2.578742702E-2,-8.091870379E-3,-2.037228405E-2,3.384523180E-2
8.602419582E-1,-2.402434532E-2,-1.574468795E-2,-6.305637360E-3,2.940791440E-2
8.702399582E-1,-2.535612177E-2,-1.104535382E-2,-2.869813442E-3,2.780590911E-2
8.802389582E-1,1.211104542E-4,-9.576588068E-3,-2.127977192E-2,2.333568940E-2
8.902365833E-1,1.128815945E-2,-5.734565388E-3,-5.167067528E-2,5.319930890E-2
9.002355833E-1,1.585604087E-2,-1.599153182E-2,-6.379078388E-2,6.764914804E-2
9.102335833E-1,2.066486411E-2,-2.159829900E-2,-3.534349501E-2,4.628915389E-2
9.202315833E-1,6.053768545E-3,-1.900608212E-2,-6.600921750E-3,2.101074580E-2
9.302305833E-1,-9.602553360E-3,-2.851135243E-2,7.613659501E-3,3.103343454E-2
9.402285833E-1,-1.475270782E-2,-2.085824249E-2,-1.213881969E-3,2.557698530E-2
9.502275833E-1,-3.044893697E-2,-2.205958949E-2,-7.806032896E-3,3.840178903E-2
9.602255833E-1,-3.907021791E-2,-1.116160378E-2,-2.756143570E-2,4.909883974E-2
9.702245833E-1,-3.658931740E-2,-5.501864478E-3,-4.971127331E-2,6.196982616E-2
9.802225833E-1,-3.107203089E-2,-6.116023120E-3,-5.135141730E-2,6.033112713E-2
9.902205833E-1,-2.582908843E-2,-1.057883738E-2,-7.035954595E-2,7.569358833E-2
1.000219583E0,-1.812918250E-2,-1.971865671E-2,-5.599352181E-2,6.207066268E-2
1.010217583E0,-1.571274754E-2,-2.149341457E-2,-4.806411266E-3,2.705473885E-2
1.020216583E0,-5.781799927E-4,-1.813349482E-2,-3.309524059E-3,1.844209521E-2
1.030214583E0,1.028126892E-2,-1.027171237E-2,-8.094885349E-3,1.663549622E-2
1.040213583E0,1.080097675E-2,-1.133391391E-2,-4.131525636E-2,4.418222619E-2
1.050211583E0,2.484452695E-2,-1.173819406E-2,-9.744326413E-2,1.012433970E-1
1.060209583E0,2.318877820E-2,1.405226620E-2,-9.355252683E-2,9.740257130E-2
1.070208583E0,-3.979541883E-3,2.487880625E-3,-6.286458492E-2,6.303952999E-2
1.080206583E0,-7.728849649E-3,2.739303589E-2,-3.936696410E-2,4.857850754E-2
1.090205583E0,-1.289680157E-2,5.493142990E-2,3.592470825E-2,6.689076278E-2
1.100203583E0,-1.463404588E-2,3.296674803E-2,6.826156497E-2,7.720494172E-2
1.110201583E0,-4.984276257E-3,4.116779689E-2,6.572036505E-2,7.770969626E-2
1.120200583E0,-7.025758512E-3,2.001679162E-2,3.728301644E-2,4.289588027E-2
1.130198583E0,-6.148529984E-3,-9.114274308E-3,5.001123548E-2,5.120544982E-2
1.140197583E0,-3.288971096E-2,-2.605882918E-2,1.115409011E-1,1.191728504E-1
1.150195583E0,-9.017119166E-2,-2.951327283E-2,8.145054460E-2,1.250442653E-1
1.160194583E0,-1.003667258E-1,-2.412849884E-2,-6.855451047E-2,1.239168471E-1
1.170192583E0,-1.193516483E-1,-1.526828606E-2,-1.663146937E-1,2.052766763E-1
1.180190583E0,-1.489091041E-1,-1.651710514E-3,-2.060067630E-1,2.541956645E-1
1.190189583E0,-1.351059476E-1,1.502853194E-2,-1.963120794E-1,2.387842256E-1
1.200187583E0,-9.628427289E-2,2.499564093E-2,-8.693289399E-2,1.321089374E-1
1.210186583E0,-3.257739656E-2,4.981643183E-2,9.249184191E-2,1.099895653E-1
1.220184583E0,6.145536941E-2,-3.485506978E-3,1.690804267E-1,1.799363829E-1
1.230183583E0,1.355200766E-1,-6.479650497E-2,1.214349747E-1,1.931598594E-1
1.240181583E0,2.064556464E-1,-7.036449781E-2,-1.451278925E-2,2.185994454E-1
1.250179583E0,2.561641423E-1,-9.877056381E-2,-1.595611596E-1,3.175459899E-1
1.260178583E0,2.213663752E-1,-1.128109985E-1,-1.926014364E-1,3.143639718E-1
1.270176583E0,1.078886571E-1,-1.023893233E-1,-1.181523478E-1,1.899566086E-1
1.280175583E0,-9.033290371E-3,-8.142844395E-2,-2.513308704E-2,8.569634696E-2
1.290173583E0,-1.112278923E-1,-5.445919415E-2,8.375083923E-2,1.495046853E-1
1.300171583E0,-2.197595238E-1,-3.578164333E-2,1.625245285E-1,2.756606549E-1
1.310170583E0,-2.619531416E-1,-2.300504772E-2,1.083565074E-1,2.844113453E-1
1.320168583E0,-2.160362362E-1,-3.314724427E-2,-3.465644717E-3,2.185918705E-1
1.330167583E0,-1.551329170E-1,-5.835981689E-2,-8.342573404E-2,1.855584632E-1
1.340165583E0,-9.339918360E-2,-5.581053137E-2,-1.129541731E-1,1.568338870E-1
1.350164583E0,-3.225506879E-3,-5.844237227E-2,-1.059661657E-1,1.210567761E-1
1.360162583E0,7.403634824E-2,-4.783660116E-2,-3.968037486E-2,9.666567860E-2
1.370160583E0,7.837220483E-2,-3.285709446E-2,5.356341898E-2,1.004531284E-1
1.380159583E0,8.950205091E-2,8.589541521E-3,8.994070172E-2,1.271759693E-1
1.390157583E0,8.023512773E-2,2.312893560E-2,5.731850088E-2,1.012819526E-1
1.400156583E0,4.650871675E-2,3.771112399E-2,-3.338000000E-2,6.855227207E-2
1.410154583E0,3.148418650E-2,3.422035452E-2,-1.165899718E-1,1.255209472E-1
1.420153583E0,1.177965447E-2,3.719550921E-2,-1.445601279E-1,1.497327510E-1
1.430151583E0,-9.540024698E-3,3.725761760E-2,-1.379586214E-1,1.432191445E-1
1.440149583E0,-5.280949362E-3,4.351200046E-2,-1.074115974E-1,1.160104903E-1
1.450148583E0,-3.306344636E-3,4.300533922E-2,-1.503962338E-2,4.567911326E-2
1.460146583E0,-4.460329190E-3,3.813859200E-2,5.967200518E-2,7.095910751E-2
1.470145583E0,-2.788464054E-3,3.083130833E-2,6.372178674E-2,7.084356859E-2
1.480143583E0,-8.949492462E-3,2.241533775E-2,2.210539877E-2,3.272903049E-2
1.490141583E0,-3.306991484E-2,-1.647818461E-4,-2.878584266E-2,4.384371287E-2
1.500140583E0,-6.579524595E-2,-1.767770436E-2,-5.243841469E-2,8.597268727E-2
1.510138583E0,-1.012142066E-1,-6.606622785E-4,-5.932585001E-2,1.173213901E-1
1.520137583E0,-1.364009962E-1,1.724201370E-2,-6.427902639E-2,1.517705902E-1
1.530135583E0,-1.335425483E-1,3.156230165E-2,-2.239308178E-2,1.390368340E-1
1.540134583E0,-1.142495506E-1,3.503547465E-2,2.547807276E-2,1.221866461E-1
1.550132583E0,-5.739115253E-2,2.766230017E-2,3.487279415E-2,7.262960148E-2
1.560130583E0,9.575290717E-3,-2.987004435E-3,1.751825809E-3,1.018220416E-2
1.570129583E0,8.287865393E-2,-4.262635742E-2,-1.744575262E-2,9.481683347E-2
1.580127583E0,1.428931232E-1,-8.126583654E-2,-2.869170249E-2,1.668705925E-1
1.590126583E0,1.569524609E-1,-1.112491250E-1,-6.102855921E-2,2.018289569E-1
1.600124583E0,1.322008316E-1,-1.101036189E-1,-6.910180986E-2,1.854047650E-1
1.610123583E0,8.731204938E-2,-8.555152584E-2,-5.471005797E-2,1.339240381E-1
1.620121583E0,2.928731449E-2,-6.716336651E-2,-5.663203776E-2,9.260589771E-2
1.630119583E0,-3.999853648E-2,-2.574233950E-2,-3.369750381E-2,5.829299037E-2
1.640118583E0,-8.843007356E-2,-2.924302183E-3,-2.529680908E-2,9.202368175E-2
1.650116583E0,-1.046977584E-1,-1.266966465E-2,-5.368913412E-3,1.055981356E-1
1.660115583E0,-1.052442173E-1,-3.804956814E-2,3.594868183E-2,1.175432798E-1
1.670113583E0,-9.332693394E-2,-5.583279647E-2,3.969031513E-2,1.157693348E-1
1.680111583E0,-5.109684415E-2,-8.048918925E-2,1.364213884E-2,9.630942332E-2
1.690110583E0,-3.069400840E-2,-7.154643022E-2,2.262404680E-2,8.107318498E-2
1.700108583E0,-5.286577307E-3,-4.882722912E-2,7.803109288E-3,4.972861066E-2
1.710107583E0,1.601866655E-2,-4.083677139E-2,-1.448706150E-2,4.619647743E-2
1.720105583E0,-1.027637187E-2,-9.878505394E-4,1.305975616E-2,1.664742919E-2
1.730104583E0,-3.460627075E-2,-2.817005776E-3,-4.815649867E-2,5.936815528E-2
1.740102583E0,-3.813217834E-2,2.500499647E-2,-1.514382076E-1,1.581544928E-1
1.750100583E0,-5.628792912E-2,4.883559795E-2,-1.367710519E-1,1.557548305E-1
1.760099583E0,-4.674213029E-2,4.977378370E-2,-4.681280851E-2,8.278704808E-2
1.770097583E0,-1.182833254E-2,4.763638884E-2,1.833686829E-3,4.911718029E-2
1.780096583E0,1.996016499E-2,4.062979823E-2,7.502211571E-2,8.762138173E-2
1.790094583E0,8.851113059E-2,4.093790995E-2,9.132356822E-2,1.336043668E-1
1.800093583E0,1.341251137E-1,3.488224106E-2,-3.815074325E-2,1.437421166E-1
1.810091583E0,1.322977126E-1,3.520718180E-3,-1.794434470E-1,2.229686769E-1
1.820089583E0,8.781067070E-2,1.681069018E-2,-1.891457319E-1,2.092114268E-1
1.830088583E0,-3.528063744E-4,1.255638398E-2,-1.142604411E-1,1.149488392E-1
1.840086583E0,-1.076105489E-1,2.554069279E-2,8.069742322E-3,1.108939942E-1
1.850085583E0,-1.872435596E-1,3.198856367E-2,9.804903567E-2,2.137686418E-1
1.860083583E0,-1.983743924E-1,4.971121849E-2,1.125606555E-1,2.334384415E-1
1.870082583E0,-1.611573764E-1,4.822619017E-2,3.020496190E-2,1.709087625E-1
1.880080583E0,-1.206585375E-1,3.989025336E-2,-6.638343930E-2,1.433752977E-1
1.890079125E0,-3.254505415E-2,3.200738439E-2,-1.108912754E-1,1.199188399E-1
1.900078125E0,4.927360922E-2,-1.644109134E-2,-1.223085487E-1,1.328818239E-1
1.910076125E0,7.988630477E-2,-6.537746239E-2,-4.659295321E-2,1.132560708E-1
1.920075125E0,8.349447537E-2,-8.946206144E-2,5.158647537E-2,1.328004228E-1
1.930073125E0,7.891277991E-2,-8.684885854E-2,6.699447334E-2,1.351229459E-1
1.940071125E0,4.891301874E-2,-6.546112326E-2,1.415435493E-2,8.293363506E-2
1.950070125E0,1.549797200E-2,-4.398928857E-2,-8.508049607E-2,9.702543717E-2
1.960068125E0,-1.059011154E-2,-1.227943609E-2,-1.323716068E-1,1.333610787E-1
1.970067125E0,-2.413694076E-2,-8.348636236E-4,-1.115578580E-1,1.141422121E-1
1.980065125E0,-4.709047817E-2,-2.873372021E-2,-4.943411529E-2,7.407342010E-2
1.990064125E0,-3.149047226E-2,-5.900709453E-2,7.390939057E-2,9.967991303E-2
2.000062125E0,-6.423568390E-3,-7.707893777E-2,1.698674619E-1,1.866477417E-1
2.010060125E0,1.061149042E-2,-9.037136743E-2,1.092482078E-1,1.421786154E-1
2.020059125E0,4.016668048E-2,-8.190117306E-2,4.322846532E-3,9.132278670E-2
2.030057125E0,2.681854695E-2,-9.100881443E-2,-8.023432374E-2,1.242553237E-1
2.040056125E0,-1.137455206E-2,-6.381132223E-2,-1.314068162E-1,1.465230925E-1
2.050054125E0,-7.348459035E-2,-3.729974496E-2,-1.174647152E-1,1.434894258E-1
2.060053125E0,-1.437709730E-1,-1.494467008E-2,-4.035631299E-2,1.500735414E-1
2.070051125E0,-1.725888657E-1,3.932197709E-3,1.049943584E-1,2.020549283E-1
2.080049125E0,-1.596911871E-1,4.054156009E-2,1.796820134E-1,2.437837551E-1
2.090048125E0,-8.786932558E-2,-3.371742088E-3,7.697859406E-2,1.168678355E-1
2.100046125E0,-1.070584986E-2,1.575588902E-2,-2.648964107E-2,3.262766226E-2
2.110045125E0,7.093889538E-2,1.472730897E-3,-1.443303323E-1,1.608282955E-1
2.120043125E0,1.281554354E-1,-5.254244031E-2,-2.799676090E-1,3.123561842E-1
2.130041125E0,8.945410375E-2,-2.337400703E-2,-8.731705606E-2,1.271717310E-1
2.140040125E0,3.880318288E-2,6.198145436E-2,2.761259884E-1,2.856447954E-1
2.150038125E0,3.200531960E-2,-4.770874813E-2,2.322783029E-1,2.392774021E-1
2.160037125E0,-2.886485316E-2,1.764934536E-2,-6.214420795E-2,7.075720261E-2
2.170035125E0,-2.557696380E-2,2.546767568E-2,-1.592980349E-1,1.633359957E-1
2.180034125E0,1.449685559E-2,-4.056348715E-2,-1.702147865E-1,1.755808329E-1
2.190032125E0,-6.034662768E-2,1.349086041E-2,-1.419218642E-1,1.548080564E-1
2.200030125E0,-7.992920872E-2,3.860481609E-2,4.155031443E-3,8.886098423E-2
2.210029125E0,2.439604551E-3,-2.878163997E-3,-2.250125527E-2,2.281538926E-2
2.220027125E0,-3.377095945E-2,3.065611113E-2,-7.774048626E-2,9.013244730E-2
2.230026125E0,-4.092345636E-2,3.998633042E-2,5.915628076E-3,5.752069677E-2
2.240024125E0,4.059400231E-2,-1.137188427E-2,-4.124625921E-2,5.897835768E-2
2.250022125E0,1.967354178E-2,-3.360778559E-3,-1.096580976E-1,1.114595956E-1
2.260021125E0,-1.113152716E-2,-4.058389759E-2,-3.167670608E-2,5.267235848E-2
2.270019125E0,3.273600228E-2,-5.168903919E-2,9.042134285E-3,6.184790061E-2
2.280018125E0,1.592299148E-2,-1.688346975E-3,4.114100933E-3,1.653233195E-2
2.290016125E0,-3.620340116E-3,-7.563428264E-3,2.021967173E-3,8.625581772E-3
2.300015125E0,4.294396173E-2,-1.329821292E-3,-5.785176694E-2,7.206094096E-2
2.310013125E0,1.404179603E-2,2.645095808E-2,-2.356837213E-2,3.810896724E-2
2.320011125E0,8.150287718E-3,-9.508066010E-3,-1.937884212E-2,2.307314523E-2
2.330010125E0,2.523391496E-2,-1.584652087E-2,-1.142727202E-1,1.180936801E-1
2.340008125E0,-9.304199181E-3,-1.387286631E-2,-7.025605023E-2,7.221452164E-2
2.350007125E0,-5.643158790E-2,-2.530351510E-2,2.165925622E-2,6.552797394E-2
2.360005125E0,-6.496808421E-2,-1.168851100E-2,1.732763886E-2,6.824749317E-2
2.370003125E0,-9.302572925E-2,3.991528675E-3,2.331986547E-2,9.598715918E-2
2.380002125E0,-9.402140044E-2,6.940169893E-3,4.321735561E-2,1.037107975E-1
2.390000125E0,-5.335675646E-2,-5.440432169E-3,-4.480253577E-2,6.988425412E-2
2.399999125E0,-4.675678488E-2,-1.169870708E-2,-6.412582934E-2,8.021956537E-2
2.409997125E0,-1.685595129E-2,-2.631727612E-2,-2.836484313E-2,4.220528926E-2
2.419996125E0,1.803058382E-2,-3.125495737E-2,-5.008315623E-2,6.172760202E-2
2.429994125E0,2.050443113E-2,-3.114344001E-2,-4.215199292E-2,5.627731389E-2
2.439992125E0,3.505555619E-2,-2.433207331E-2,2.041555345E-2,4.730472105E-2
2.449991125E0,6.634214334E-2,-1.466748465E-2,3.953302503E-3,6.805911908E-2
2.459989125E0,4.514986038E-2,-1.460071675E-2,-6.099990785E-2,7.728311316E-2
2.469988125E0,3.046249520E-2,6.081816908E-3,-5.307049870E-2,6.149333251E-2
2.479986125E0,3.127390601E-2,8.711163606E-3,-4.228413999E-2,5.330938063E-2
2.489984125E0,-4.868830293E-3,-2.674589530E-3,-5.783364058E-2,5.809981859E-2
2.499983125E0,-4.241449635E-2,-3.158300444E-3,-3.252747595E-2,5.354438397E-2
2.509981125E0,-3.784098700E-2,-1.327105992E-2,6.709679961E-3,4.065810046E-2
2.519980125E0,-5.875136107E-2,-2.440978646E-2,1.060977280E-2,6.449904946E-2
2.529978125E0,-8.121720415E-2,-3.244484749E-2,-5.258985758E-3,8.761597633E-2
2.539977125E0,-5.606741600E-2,-1.474863304E-2,6.117357016E-3,5.829664973E-2
2.549975125E0,-4.165377360E-2,-1.644779736E-2,-2.486820817E-2,5.122494188E-2
2.559973125E0,-5.297964759E-2,-1.759244464E-3,-4.747588277E-2,7.116106692E-2
2.569972125E0,-2.558792733E-2,4.527535625E-3,-2.128737330E-2,3.359155944E-2
2.579970125E0,-6.772902980E-3,-5.178074911E-3,-2.309533238E-2,2.461867284E-2
2.589969125E0,-1.015314180E-2,2.487405539E-3,-4.466220260E-2,4.586922515E-2
2.599967125E0,-1.978734322E-3,6.035916265E-3,-2.341108203E-2,2.425750268E-2
2.609966125E0,1.942130752E-2,-6.764296610E-3,1.882803440E-3,2.065158210E-2
2.619964125E0,1.513877023E-2,-1.232516315E-2,-1.937241018E-2,2.750240511E-2
2.629962125E0,1.413608238E-2,-7.347775642E-3,-2.655337572E-2,3.096611687E-2
2.639961125E0,1.932870224E-2,-1.421478225E-2,-3.433309615E-2,4.188580017E-2
2.649959125E0,1.470611282E-2,-2.137782242E-2,-4.495105505E-2,5.190258564E-2
2.659958125E0,1.295823388E-2,-2.299994968E-2,-4.075100005E-2,4.855468582E-2
2.669956125E0,-2.569010742E-3,-9.870063476E-3,-3.206145287E-2,3.364453491E-2
2.679954125E0,-1.465984672E-2,-6.538447905E-3,-1.619386375E-2,2.280139535E-2
2.689953125E0,-3.815973334E-2,-1.015220990E-2,-1.215168357E-2,4.131459824E-2
2.699951125E0,-4.764852181E-2,-1.589309759E-3,-7.355797291E-3,4.823914686E-2
2.709950125E0,-4.775190789E-2,6.623250805E-4,1.181137562E-3,4.777110495E-2
2.719948125E0,-5.073979855E-2,-1.288384633E-2,-1.977352917E-2,5.595992413E-2
2.729946125E0,-4.974120375E-2,-1.855231991E-2,-2.336664319E-2,5.800324076E-2
2.739945125E0,-4.849362720E-2,-2.427202972E-2,-1.379299700E-2,5.595542933E-2
2.749943125E0,-2.966018412E-2,-2.719859770E-2,-9.311690927E-3,4.130614757E-2
2.759942125E0,-1.660813898E-2,-1.777021827E-2,-2.668844640E-2,3.610933548E-2
2.769940125E0,-4.799175337E-3,-1.599650195E-2,-2.699484050E-2,3.174337052E-2
2.779939125E0,4.720713012E-3,-1.699330604E-2,-2.325379193E-2,2.918555157E-2
2.789937125E0,2.600282382E-2,-1.666237190E-2,-4.406461716E-2,5.380958994E-2
2.799935125E0,3.787537593E-2,-6.695902459E-3,-3.642698407E-2,5.297456352E-2
2.809934125E0,4.179257188E-2,-9.590438660E-3,-3.357412755E-2,5.445932077E-2
2.819932125E0,3.756013792E-2,-7.078876812E-3,-3.789580464E-2,5.382347506E-2
2.829931125E0,2.095009860E-2,-8.383938801E-3,-2.306258798E-2,3.226577173E-2
2.839929125E0,-8.915176615E-4,-8.571013156E-3,2.290003538E-2,2.446770710E-2
2.849927125E0,-1.432867505E-2,-5.932712909E-3,2.845489025E-2,3.240661646E-2
2.859926125E0,-2.058267418E-2,-2.773942860E-2,-3.867933154E-3,3.475749246E-2
2.869924125E0,-2.783238105E-2,-2.832608705E-2,-3.574519873E-2,5.342965352E-2
2.879923125E0,-2.327820405E-2,-2.836688966E-2,-6.059001803E-2,7.083576426E-2
2.889921125E0,-4.447593223E-2,-2.792262917E-2,-8.228494227E-2,9.761451476E-2
2.899920375E0,-4.633618735E-2,-2.914696304E-2,-9.620599329E-2,1.106895698E-1
2.909918375E0,-4.948206246E-2,-2.456225261E-2,-5.833416224E-2,8.034085662E-2
2.919916375E0,-6.392823000E-2,-2.844761778E-3,-3.987801075E-4,6.399273619E-2
2.929915375E0,-6.845364600E-2,1.869833585E-2,7.204880655E-2,1.011264552E-1
2.939913375E0,-4.233409714E-2,2.127920548E-2,9.015704870E-2,1.018492700E-1
2.949912375E0,-2.160220932E-2,1.302397851E-2,4.479142606E-2,5.140575175E-2
2.959910375E0,9.436675161E-3,-2.189416811E-3,-4.802552104E-2,4.899280616E-2
2.969908375E0,2.983267698E-2,-1.411117690E-2,-1.019269091E-1,1.071364024E-1
2.979907375E0,4.162143119E-2,-2.835426332E-2,-9.475237548E-2,1.073048016E-1
2.989905375E0,3.594352897E-2,-3.220845552E-2,-7.005607545E-2,8.507159097E-2
2.999904375E0,3.101184111E-2,-1.675965495E-2,-1.856374025E-2,3.984009005E-2
3.009902375E0,1.863854807E-2,1.790965609E-3,2.934659064E-2,3.481128285E-2
3.019901375E0,9.652985595E-3,2.268694092E-2,1.797551036E-2,3.051223348E-2
3.029899375E0,4.780281521E-3,1.336960377E-2,-1.330592394E-2,1.945880285E-2
3.039897375E0,-8.384797610E-3,3.978701346E-3,-4.862778425E-2,4.950551784E-2
3.049896375E0,-2.119374476E-2,-1.239010379E-2,-7.646871686E-2,8.031285169E-2
3.059894375E0,-4.115814898E-2,-2.727625603E-2,-6.598758280E-2,8.241570515E-2
3.069893375E0,-4.949733831E-2,-2.642172201E-2,-1.598394871E-2,5.834021349E-2
3.079891375E0,-7.079940274E-2,-2.121998414E-2,5.873528123E-3,7.414405902E-2
3.089889375E0,-7.006776989E-2,-1.407404708E-2,3.116858304E-2,7.796827397E-2
3.099888375E0,-5.561619367E-2,-9.586034976E-3,2.307252824E-2,6.097044058E-2
3.109886375E0,-3.880168453E-2,-2.262247536E-2,-1.285276473E-2,4.671766984E-2
3.119885375E0,-2.118175797E-2,-2.564968854E-2,-4.729871213E-2,5.782509458E-2
3.129883375E0,7.214294672E-3,-3.444717167E-2,-4.492064953E-2,5.706591310E-2
3.139882375E0,1.753905226E-2,-3.506588018E-2,-6.064907491E-2,7.221872745E-2
3.149880375E0,1.170305595E-2,-2.375283351E-2,-3.939210713E-2,4.746468922E-2
3.159878375E0,2.699089363E-2,-6.901760995E-3,-7.504316568E-3,2.885233805E-2
3.169877375E0,3.527972382E-2,1.174632534E-3,-1.093721688E-2,3.695485607E-2
3.179875375E0,2.534376953E-2,7.347958367E-3,-1.586408079E-2,3.078909231E-2
3.189874375E0,2.643559087E-2,2.267111689E-3,-3.291982412E-2,4.228114332E-2
3.199872375E0,1.380516652E-2,-9.234836586E-3,-5.087136090E-2,5.351411205E-2
3.209870375E0,-6.089948192E-3,-2.579873772E-2,-3.784142554E-2,4.620211926E-2
3.219869375E0,-2.880809862E-2,-3.672500934E-2,-2.720475554E-2,5.402528650E-2
3.229867375E0,-4.768791743E-2,-4.561504293E-2,-6.241317987E-3,6.628592355E-2
3.239866375E0,-5.537938144E-2,-2.822138535E-2,8.880751133E-3,6.278686344E-2
3.249864375E0,-5.937091012E-2,4.713403992E-4,8.577865362E-3,5.998922323E-2
3.259863375E0,-5.610527672E-2,4.258728158E-3,-1.433152556E-2,5.806316790E-2
3.269861375E0,-3.575703934E-2,9.506092574E-3,-3.529554784E-2,5.113420925E-2
3.279859375E0,-2.328796159E-2,1.291706583E-2,-4.772380471E-2,5.465108673E-2
3.289858375E0,-1.294178858E-2,5.662845634E-4,-5.760852277E-2,5.904703605E-2
3.299856375E0,-1.305244714E-3,-4.038818032E-3,-3.396706045E-2,3.423122712E-2
3.309855375E0,6.233680062E-3,-2.499344822E-2,-3.276662707E-2,4.167952820E-2
3.319853375E0,1.141007390E-2,-6.301325038E-3,-1.809537828E-2,2.230110308E-2
3.329851375E0,1.363472018E-2,-1.385983799E-2,-4.775421023E-3,2.002012361E-2
3.339850375E0,2.115851529E-2,-2.293097081E-2,-2.946587384E-2,4.291561385E-2
3.349848375E0,2.701830246E-2,8.512248639E-3,-4.008617163E-2,4.908511180E-2
3.359847375E0,2.534106519E-2,-1.524149850E-2,-2.915421724E-2,4.152639215E-2
3.369845375E0,1.448987547E-2,-9.401500504E-3,2.129906774E-2,2.742252704E-2
3.379844375E0,3.137433194E-3,-1.555032285E-2,1.531736612E-2,2.205170589E-2
3.389842375E0,2.791424207E-3,-3.214693185E-2,-5.263897419E-2,6.174203495E-2
3.399840375E0,-1.403419465E-2,-2.104641320E-2,-7.478881180E-2,7.895110195E-2
3.409839375E0,-2.150456082E-2,-2.189215813E-2,-4.274197698E-2,5.261738609E-2
3.419837375E0,-2.978768997E-2,-1.400660310E-2,-3.749293149E-2,4.989199651E-2
3.429836375E0,-5.213560201E-2,9.996637423E-3,1.430813670E-3,5.310462301E-2
3.439834375E0,-5.658902418E-2,-1.277967453E-2,4.648653388E-2,7.434134496E-2
3.449832375E0,-6.027331822E-2,-1.957793981E-2,2.223813057E-2,6.716176790E-2
3.459831375E0,-6.390085772E-2,-2.810564702E-2,1.909291327E-2,7.237255245E-2
3.469829375E0,-4.625863865E-2,-4.316043662E-2,-6.213251352E-3,6.357113678E-2
3.479828375E0,-4.141180851E-2,-3.564382263E-2,-5.622097850E-2,7.839782139E-2
3.489826375E0,-3.770580668E-2,-3.681068933E-2,-3.871441483E-2,6.538777120E-2
3.499824375E0,-7.691025473E-3,-8.956728391E-3,-3.183691978E-2,3.395532827E-2
3.509823375E0,1.823395729E-2,1.166669358E-2,-4.052412808E-2,4.594337704E-2
3.519821375E0,1.930385157E-2,1.412091617E-2,-9.999323487E-3,2.592345326E-2
3.529820375E0,4.851208247E-2,1.593709789E-2,-4.167895317E-3,5.123265157E-2
3.539818375E0,4.989005193E-2,8.586636186E-4,-3.021256328E-2,5.833141147E-2
3.549817375E0,4.059352722E-2,-7.459402643E-3,-2.616336644E-2,4.886715547E-2
3.559815375E0,3.744407069E-2,-2.556788234E-2,-3.529028535E-2,5.745588984E-2
3.569813375E0,1.433912694E-2,-2.186496858E-2,-5.758396447E-2,6.324239382E-2
3.579812375E0,-1.656260379E-2,-2.299444964E-2,-3.676729202E-2,4.642088238E-2
3.589810375E0,-4.302257024E-2,-1.195792146E-2,-2.791928530E-2,5.266326924E-2
3.599809375E0,-6.935024343E-2,1.260997737E-2,-1.294281185E-2,7.166578104E-2
3.609807375E0,-8.284203574E-2,2.580323277E-2,1.100562930E-2,8.746275541E-2
3.619805375E0,-6.950687572E-2,1.081115456E-2,7.257564068E-3,7.071604536E-2
3.629804375E0,-5.579055034E-2,-7.897505276E-3,-1.222126544E-2,5.765687665E-2
3.639802375E0,-4.021853797E-2,-1.782256912E-2,-1.807432830E-2,4.755897508E-2
3.649801375E0,-9.024409913E-3,-2.247527171E-2,-2.661769509E-2,3.598721307E-2
3.659799375E0,8.197577074E-3,-8.741532583E-3,-3.770284653E-2,3.956158867E-2
3.669797375E0,1.218179673E-2,3.793563880E-4,-3.277539790E-2,3.496808245E-2
3.679796375E0,2.495909583E-2,-2.918126062E-4,-2.799120605E-2,3.750398959E-2
3.689794375E0,1.920876123E-2,-2.771945670E-3,-2.649782717E-2,3.284501539E-2
3.699793375E0,9.677543901E-3,-1.642099153E-3,-2.005594969E-2,2.232918412E-2
3.709791375E0,4.504256397E-3,-1.356086254E-2,-1.406606197E-2,2.005092063E-2
3.719790375E0,-3.476206250E-3,-3.093838546E-2,-2.199430168E-2,3.811846024E-2
3.729788375E0,-1.797291566E-2,-4.175363308E-2,-2.408351183E-2,5.144324168E-2
3.739786375E0,-8.795418330E-3,-3.372864023E-2,-2.198494613E-2,4.121065896E-2
3.749785375E0,-6.376279034E-3,-1.892688889E-2,-3.829750836E-2,4.319239752E-2
3.759783375E0,-1.808079679E-2,2.009194661E-3,-4.024404645E-2,4.416486556E-2
3.769782375E0,-1.229760814E-2,2.751516961E-3,-4.143746316E-2,4.331126141E-2
3.779780375E0,-2.396291301E-2,-2.298503928E-3,-4.398217142E-2,5.013916356E-2
3.789778375E0,-4.692723121E-2,6.607536413E-4,-2.004133165E-2,5.103191745E-2
3.799777375E0,-4.760189027E-2,-1.415939815E-2,4.048027396E-3,4.982785405E-2
3.809775375E0,-6.097597081E-2,-2.324474702E-2,2.888641477E-2,7.136394214E-2
3.819774375E0,-7.230327006E-2,-3.429644141E-2,6.719444811E-2,1.044945100E-1
3.829772375E0,-4.482501101E-2,-2.857611034E-2,2.407357156E-2,5.835591266E-2
3.839771375E0,-1.333289422E-2,-9.019786958E-3,-5.257757843E-2,5.498658362E-2
3.849769375E0,1.250134706E-2,2.786052078E-3,-1.037734598E-1,1.045608757E-1
3.859767375E0,4.673858542E-2,-5.053273402E-3,-1.019853812E-1,1.122989267E-1
3.869766375E0,4.677359562E-2,-1.002201799E-2,-7.863218665E-2,9.203928982E-2
3.879764375E0,4.594446044E-2,-1.020423185E-2,4.007096887E-3,4.723427377E-2
3.889763375E0,5.587548114E-2,-2.556015305E-2,5.550820291E-2,8.280429583E-2
3.899761083E0,5.601102691E-2,-2.267994253E-2,4.338926375E-2,7.439249383E-2
3.909759083E0,3.565876957E-2,-2.877221134E-2,9.718072414E-3,4.683832751E-2
3.919758083E0,3.346635606E-2,-2.285603508E-2,-7.140502810E-2,8.210403989E-2
3.929756083E0,-1.854590625E-3,-2.159504648E-2,-1.173436779E-1,1.193286398E-1
3.939755083E0,-4.762370769E-2,-5.592021234E-3,-1.008621311E-1,1.116801582E-1
3.949753083E0,-8.187136140E-2,-4.857208952E-3,-3.483127892E-2,8.910516420E-2
3.959751083E0,-1.207862626E-1,8.405500408E-3,3.059087813E-2,1.248830473E-1
3.969750083E0,-1.294054240E-1,-7.846049778E-3,7.444733441E-2,1.494982604E-1
3.979748083E0,-9.712528523E-2,-1.532107545E-2,5.602802038E-2,1.131688802E-1
3.989747083E0,-5.890792027E-2,-2.533498043E-2,1.903853416E-2,6.689147993E-2
3.999745083E0,-2.193791259E-2,-1.330210498E-2,-3.486460805E-2,4.328693683E-2
4.009744083E0,1.815125573E-2,-8.426842745E-3,-8.411745965E-2,8.646517670E-2
4.019742083E0,4.130023632E-2,4.455943778E-4,-8.382568359E-2,9.344866668E-2
4.029740083E0,4.724056888E-2,8.240736835E-3,-5.239339113E-2,7.102568920E-2
4.039739083E0,3.536534898E-2,2.053087151E-2,-4.416285038E-2,6.018788871E-2
4.049737083E0,3.102528971E-2,3.068861799E-2,-1.437713385E-2,4.594629314E-2
4.059736083E0,1.218110237E-2,1.539533509E-2,-2.096460700E-2,2.872125248E-2
4.069734083E0,8.931621909E-4,-8.488878049E-4,-4.940254033E-2,4.941790505E-2
4.079732083E0,-9.139088430E-3,-9.025798626E-3,-9.176795661E-2,9.266253741E-2
4.089731083E0,-5.101695657E-3,1.672285404E-3,-4.207480967E-2,4.241595744E-2
4.099729083E0,-4.536251631E-2,4.169612937E-3,2.678609490E-3,4.563242823E-2
4.109728083E0,-5.733659070E-2,1.421147492E-2,-3.280697286E-2,6.757031982E-2
4.119726083E0,-2.097432800E-2,1.234833274E-2,-3.161414087E-2,3.989809092E-2
4.129724083E0,-5.613093138E-2,-6.202598456E-3,-3.776190341E-2,6.793463795E-2
4.139723083E0,-2.767691821E-2,2.444008235E-2,-9.177204967E-3,3.804668866E-2
4.149721083E0,-4.239319056E-2,-3.097211659E-2,3.991894126E-2,6.595435151E-2
4.159720083E0,-5.237460695E-2,-1.827784795E-3,9.948394239E-2,1.124432970E-1
4.169718083E0,-9.831106402E-3,-5.555920159E-2,1.340515119E-1,1.454416838E-1
4.179717083E0,2.020395733E-3,-6.242450885E-2,2.971028745E-2,6.916359219E-2
4.189715083E0,2.268522330E-2,-3.267360153E-3,-1.722408468E-1,1.737590409E-1
4.199713083E0,7.038063247E-2,-3.670682816E-2,-2.668505502E-1,2.784062513E-1
4.209712083E0,4.314627539E-2,-8.358329823E-3,-2.143127328E-1,2.187725079E-1
4.219710083E0,2.321794119E-2,4.218720412E-3,-4.321735561E-2,4.924033124E-2
4.229709083E0,-8.656875864E-3,-2.707196893E-2,2.124539030E-1,2.143466675E-1
4.239707083E0,2.179118402E-2,-4.198203080E-2,2.257896477E-1,2.306909439E-1
4.249705083E0,7.688796222E-3,-4.736786460E-2,9.572535217E-2,1.070802280E-1
4.259704083E0,2.184742693E-2,-7.487328580E-2,-5.036031425E-2,9.284115596E-2
4.269702083E0,4.716199692E-2,-7.868971777E-2,-1.533233500E-1,1.786739356E-1
4.279701083E0,-5.816444680E-3,-4.472977448E-2,-2.086842030E-1,2.135033497E-1
4.289699083E0,-3.988637958E-2,-1.968761165E-2,-1.327662939E-1,1.400193348E-1
4.299697083E0,-1.316862401E-1,8.892692244E-3,1.829126000E-2,1.332475740E-1
4.309696083E0,-1.503767553E-1,4.827431093E-2,1.370020169E-1,2.090768525E-1
4.319694083E0,-1.333848928E-1,7.063479449E-2,1.498688149E-1,2.127004126E-1
4.329693083E0,-1.285901028E-1,5.553778617E-2,6.137939215E-2,1.529290359E-1
4.339691083E0,-5.395660769E-2,1.023542126E-1,-1.321002960E-2,1.164568815E-1
4.349690083E0,7.289705481E-2,4.886003749E-2,-1.367342144E-1,1.624731647E-1
4.359688083E0,7.099024124E-2,6.501111606E-2,-1.942333943E-1,2.167779302E-1
4.369686083E0,1.107474339E-1,5.595077318E-2,-1.607136458E-1,2.030378267E-1
4.379685083E0,1.122812682E-1,-8.745351546E-3,-2.434722126E-2,1.152230513E-1
4.389683083E0,3.736111332E-2,-7.909144890E-2,9.347534359E-2,1.280193342E-1
4.399682083E0,-4.967246242E-3,-1.306619358E-1,1.217858076E-1,1.786868712E-1
4.409680083E0,-6.170402225E-2,-1.797871354E-1,1.258367586E-1,2.279598434E-1
4.419678083E0,-7.634073593E-2,-1.660490839E-1,2.631013155E-2,1.846413530E-1
4.429677083E0,-9.047897447E-2,-7.796045121E-2,-1.283206558E-1,1.753010767E-1
4.439675083E0,-5.659348268E-2,-3.663947554E-2,-1.962769961E-1,2.075329677E-1
4.449674083E0,-4.206545413E-2,7.915682808E-2,-1.329691923E-1,1.603624393E-1
4.459672083E0,2.819479879E-2,1.113828070E-1,-4.915988088E-2,1.249710777E-1
4.469670083E0,8.073480885E-2,5.923719160E-2,4.633509099E-2,1.103362809E-1
4.479669083E0,1.119080331E-1,-8.416454801E-3,1.021777546E-1,1.517713350E-1
4.489667083E0,1.213435023E-1,-1.096765072E-1,6.971050501E-2,1.777997084E-1
4.499666083E0,7.362890694E-2,-1.928516241E-1,2.378471911E-2,2.077947972E-1
4.509664083E0,5.051007606E-3,-1.875141760E-1,-3.709882915E-2,1.912155904E-1
4.519663083E0,-7.477393795E-2,-1.163214932E-1,-9.917170107E-2,1.701671469E-1
4.529661083E0,-1.350415917E-1,7.819865216E-3,-1.203877383E-1,1.810817200E-1
4.539659083E0,-1.819844276E-1,1.109209683E-1,-9.911205947E-2,2.350425354E-1
4.549658083E0,-1.875704189E-1,1.757770966E-1,-3.040786028E-2,2.588530234E-1
4.559656083E0,-1.592623669E-1,1.582756492E-1,7.420116663E-2,2.364772627E-1
4.569655083E0,-9.479834922E-2,9.821992055E-2,1.268541741E-1,1.863487625E-1
4.579653083E0,-3.567177963E-2,1.586596286E-2,7.620617688E-2,8.562468122E-2
4.589651083E0,5.304641549E-2,-7.094862551E-2,-4.090419710E-2,9.757449973E-2
4.599650083E0,1.238886856E-1,-8.258687787E-2,-1.475234967E-1,2.096000499E-1
4.609648083E0,1.208018674E-1,-4.307173253E-2,-1.909513521E-1,2.300232253E-1
4.619647083E0,9.136226948E-2,1.590808108E-3,-9.695034385E-2,1.332252383E-1
4.629645083E0,4.503112536E-2,4.966353628E-2,1.187686443E-2,6.808325048E-2
4.639643083E0,5.147742480E-3,7.830518112E-2,6.428253472E-2,1.014418302E-1
4.649642083E0,-3.141537208E-2,6.486731110E-2,6.308736384E-2,9.578470196E-2
4.659640083E0,-2.447794307E-2,3.680444011E-2,-1.295801461E-2,4.606133576E-2
4.669639083E0,-1.729986459E-2,1.880245283E-4,-8.571491897E-2,8.744351321E-2
4.679637083E0,-2.643624868E-2,-1.612549701E-2,-1.183564156E-1,1.223402960E-1
4.689636083E0,-1.481889099E-2,-1.425120858E-2,-1.110257614E-1,1.129133126E-1
4.699634083E0,-3.995914087E-3,3.578358935E-3,-4.216894984E-2,4.250873220E-2
4.709632083E0,-1.486314710E-2,1.741217681E-2,3.282919228E-2,4.002315466E-2
4.719631083E0,-5.119785480E-3,-6.443028655E-3,7.069751501E-2,7.117487935E-2
4.729629083E0,-9.969941229E-3,-7.498270182E-2,3.776775062E-2,8.454707734E-2
4.739628083E0,-1.961393673E-2,-1.146892247E-1,5.720331073E-3,1.164948366E-1
4.749626083E0,-1.480927963E-2,-1.503938949E-1,-4.997147441E-2,1.591690505E-1
4.759624083E0,-2.385861330E-2,-1.542792966E-1,-7.931163311E-2,1.751047399E-1
4.769623083E0,-3.464208495E-2,-5.759420623E-2,-5.999944925E-2,9.009495298E-2
4.779621083E0,-9.892027080E-3,-4.330840772E-3,-2.661360204E-2,2.872093653E-2
4.789620083E0,1.325052157E-3,3.352658238E-2,-1.456541419E-3,3.358435651E-2
4.799618083E0,1.464299943E-2,7.362547170E-2,4.509665072E-2,8.757188717E-2
4.809616083E0,3.965892289E-2,4.382331901E-2,3.506867588E-2,6.872499896E-2
4.819615083E0,2.792633850E-2,-1.381385512E-2,-3.032716870E-2,4.347919200E-2
4.829613083E0,-1.076282367E-2,-4.866356190E-2,-5.786872387E-2,7.637257252E-2
4.839612083E0,-2.767275207E-2,-5.724745721E-2,-7.957475781E-2,1.018586994E-1
4.849610083E0,-6.141118638E-2,-4.115760081E-2,-6.145014346E-2,9.613221129E-2
4.859609083E0,-1.013258884E-1,9.544464927E-3,-2.581896544E-2,1.049983402E-1
4.869607083E0,-1.243316488E-1,4.449128117E-2,-2.036000490E-3,1.320680820E-1
4.879605083E0,-1.077263603E-1,5.993206009E-2,2.144349396E-2,1.251265118E-1
4.889604083E0,-7.555326216E-2,3.604384527E-2,1.856958747E-2,8.574545926E-2
4.899601875E0,-3.101070821E-2,1.618368594E-2,3.117735386E-3,3.511831415E-2
4.909600875E0,4.513440181E-2,-1.323236779E-2,-2.446533501E-2,5.301662382E-2
4.919598875E0,1.065454786E-1,-5.928751420E-2,-5.742608964E-2,1.347764969E-1
4.929596875E0,1.501685213E-1,-5.981966564E-2,-5.713840663E-2,1.714461277E-1
4.939595875E0,1.566686517E-1,-2.699355229E-2,-5.578243732E-2,1.684796682E-1
4.949593875E0,1.351639081E-1,3.718153071E-3,-2.956352234E-2,1.384092070E-1
4.959592875E0,8.369521759E-2,3.803786458E-2,4.022884369E-4,9.193438109E-2
4.969590875E0,2.960372195E-3,5.887537686E-2,-1.648037732E-2,6.121010244E-2
4.979588875E0,-7.213055793E-2,5.379662239E-2,-2.182707131E-2,9.259219735E-2
4.989587875E0,-1.230030517E-1,1.543237355E-2,-4.096910119E-2,1.305617714E-1
4.999585875E0,-1.596147347E-1,-1.716562531E-2,-3.827645838E-2,1.650351766E-1
5.009584875E0,-1.569976672E-1,-6.132745243E-2,-2.930799901E-2,1.710797555E-1
5.019582875E0,-1.026800670E-1,-8.496529679E-2,-5.225656629E-3,1.333776792E-1
5.029580875E0,-5.375389203E-2,-1.004913628E-1,2.199488640E-2,1.160679540E-1
5.039579875E0,-1.108778268E-3,-1.035490729E-1,2.721411109E-2,1.070712274E-1
5.049577875E0,4.574773818E-2,-1.069393068E-1,1.507470667E-2,1.172864769E-1
5.059576875E0,7.629077878E-2,-1.306224123E-1,-1.560680330E-2,1.520725808E-1
5.069574875E0,7.655690018E-2,-1.376979361E-1,-2.831046402E-2,1.600723678E-1
5.079573875E0,7.128874160E-2,-1.198675463E-1,-2.558800042E-2,1.417923097E-1
5.089571875E0,5.379792888E-2,-1.261725076E-1,-2.899224937E-2,1.401936851E-1
5.099569875E0,-2.204107940E-3,-9.068139777E-2,-9.351451993E-3,9.118894476E-2
5.109568875E0,-2.650067769E-2,3.434782382E-3,-2.923607826E-2,3.960848293E-2
5.119566875E0,-3.947985191E-2,6.927090403E-2,-7.784515142E-2,1.114315236E-1
5.129565875E0,-7.466401029E-2,1.230554939E-1,-8.156456530E-2,1.654392557E-1
5.139563875E0,-7.286321405E-2,1.705537058E-1,-7.332057595E-2,1.994329997E-1
5.149561875E0,-5.480153035E-2,1.898948151E-1,-3.319698215E-2,2.004127944E-1
5.159560875E0,-1.333088424E-2,1.626445243E-1,3.356243312E-2,1.666054942E-1
5.169558875E0,4.080154192E-2,5.819859819E-2,6.275056422E-2,9.481284704E-2
5.179557875E0,4.523055196E-2,6.435884088E-3,3.071659327E-2,5.505208930E-2
5.189555875E0,6.382590372E-2,-7.801026218E-2,-4.876402438E-2,1.119699829E-1
5.199553875E0,6.655198529E-2,-1.074109030E-1,-6.071748734E-2,1.401887374E-1
5.209552875E0,4.234549921E-2,-6.846725905E-2,3.406997144E-2,8.741664498E-2
5.219550875E0,-3.540861838E-2,-5.928100917E-2,-3.011900783E-3,6.911642244E-2
5.229549875E0,-6.592527341E-2,3.618275318E-2,1.647043705E-2,7.698446985E-2
5.239547875E0,-6.561423808E-2,2.558880441E-2,-6.612908542E-2,9.660782106E-2
5.249546875E0,-1.335964523E-1,1.217848574E-1,-1.659697080E-1,2.454088579E-1
5.259544875E0,-8.785013940E-2,3.938103396E-2,-1.706182444E-1,1.959058400E-1
5.269542875E0,-8.753216051E-2,3.405283179E-2,-3.425942123E-2,9.997590919E-2
5.279541875E0,-7.833332084E-2,-1.379875286E-2,7.320304692E-2,1.080981073E-1
5.289539875E0,-3.037299626E-2,-4.963787248E-2,1.372505236E-1,1.490776425E-1
5.299538875E0,1.256274283E-2,-5.802131793E-2,1.228435689E-1,1.364362058E-1
5.309536875E0,9.406390239E-2,-3.080225497E-2,-1.369944155E-2,9.992232655E-2
5.319534875E0,1.124642130E-1,-5.464935657E-3,-1.011229169E-1,1.513403748E-1
5.329533875E0,1.368452019E-1,-5.852363029E-2,-1.201123345E-1,1.912553201E-1
5.339531875E0,5.966564633E-2,2.477730224E-2,-1.155936062E-1,1.324227543E-1
5.349530875E0,4.835015114E-2,-8.281173985E-3,-5.404289067E-2,7.298595063E-2
5.359528875E0,-1.226789698E-2,-9.847496878E-2,1.830178499E-3,9.925306205E-2
5.369526875E0,-1.020543418E-1,-2.971337551E-2,9.286723316E-2,1.411463651E-1
5.379525875E0,-1.028212773E-1,-8.610925885E-2,5.096725523E-2,1.434736234E-1
5.389523875E0,-9.971889082E-2,-8.493935890E-2,1.428474784E-3,1.309984443E-1
5.399522875E0,-4.850331165E-2,-6.459177934E-2,-8.343801320E-2,1.161316978E-1
5.409520875E0,-4.098726410E-2,-5.938187364E-2,-9.870860159E-2,1.222683555E-1
5.419518875E0,-2.024412040E-2,-4.181387767E-2,-7.430758595E-2,8.763470835E-2
5.429517875E0,-6.708254702E-3,-1.744712306E-2,-2.087397516E-2,2.802009320E-2
5.439515875E0,-8.821986616E-3,3.301981151E-2,3.810045719E-2,5.118378882E-2
5.449514875E0,-1.688434683E-2,7.993850945E-2,5.397096992E-2,9.791890550E-2
5.459512875E0,-2.860359225E-2,1.381808887E-1,4.902656436E-2,1.493844955E-1
5.469510875E0,-2.584557027E-2,1.724249244E-1,-2.357304990E-2,1.759375933E-1
5.479509875E0,-5.513960905E-3,1.442095325E-1,-8.898994446E-2,1.695464633E-1
5.489507875E0,1.673655845E-2,5.683491787E-2,-1.267144257E-1,1.398816141E-1
5.499506875E0,2.331379898E-2,-4.043912418E-2,-8.779594302E-2,9.943331232E-2
5.509504875E0,8.753537647E-3,-1.343326716E-1,-2.917175889E-3,1.346491775E-1
5.519502875E0,-1.682390124E-3,-2.079773112E-1,5.396746159E-2,2.148717741E-1
5.529501875E0,-7.213856131E-3,-1.620073971E-1,3.136329532E-2,1.651729177E-1
5.539499875E0,-1.086752538E-2,-5.062206851E-2,-2.820872247E-2,5.896124958E-2
5.549498875E0,-4.062426165E-3,1.935351636E-2,-2.730474293E-2,3.371366027E-2
5.559496875E0,-5.283361338E-3,1.100750224E-1,-4.781969905E-2,1.201297135E-1
5.569495875E0,4.175715968E-3,2.127463003E-1,-1.036565155E-1,2.366919899E-1
5.579493875E0,3.068878245E-2,2.127530246E-1,-8.494308650E-2,2.311297877E-1
5.589491875E0,2.744832862E-2,1.126127140E-1,-2.491323173E-2,1.185567510E-1
5.599490875E0,-5.909963585E-3,6.438405700E-3,-5.544914603E-2,5.613366666E-2
5.609488875E0,2.472787499E-3,-2.330952320E-2,-6.817385674E-2,7.209107637E-2
5.619487875E0,1.287885793E-3,-1.294749327E-1,-1.757146776E-2,1.306681803E-1
5.629485875E0,-1.582669515E-2,-2.324900817E-1,-1.127460122E-2,2.333007480E-1
5.639483875E0,-4.246452659E-2,-1.685369645E-1,-1.246041656E-2,1.742504130E-1
5.649482875E0,-2.189793225E-2,-1.216424046E-1,7.158161402E-3,1.238048195E-1
5.659480875E0,-3.956964321E-2,-9.756293105E-2,6.928716660E-2,1.260356840E-1
5.669479875E0,-8.786903322E-2,-4.629258905E-2,1.350069469E-1,1.676032414E-1
5.679477875E0,-7.186831031E-2,-6.084502973E-3,1.645020568E-1,1.796190466E-1
5.689475875E0,-2.225019045E-2,-4.397042217E-2,1.103223413E-1,1.208283410E-1
5.699474875E0,-4.222055152E-4,-8.427294077E-2,-2.394317865E-2,8.760926097E-2
5.709472875E0,4.524374474E-2,-5.365474518E-2,-1.466867602E-1,1.626125264E-1
5.719471875E0,1.125024026E-1,-7.606211610E-2,-1.890480834E-1,2.327690141E-1
5.729469875E0,1.312546059E-1,-1.123085674E-2,-2.150693625E-1,2.522077208E-1
5.739467875E0,8.397906337E-2,1.158590516E-1,-1.815063447E-1,2.311284406E-1
5.749466875E0,5.589821219E-2,1.973392890E-1,-1.153053385E-1,2.352928520E-1
5.759464875E0,7.836109512E-3,2.292707144E-1,1.256508172E-2,2.297484415E-1
5.769463875E0,-7.861548554E-2,2.352982436E-1,1.528514796E-1,2.913918888E-1
5.779461875E0,-1.422125804E-1,1.731601387E-1,9.284033597E-2,2.425452115E-1
5.789460875E0,-1.709219707E-1,8.866986422E-2,-1.567755461E-2,1.931901928E-1
5.799458875E0,-1.762275880E-1,1.093432982E-2,-3.784727275E-2,1.805772367E-1
5.809456875E0,-1.775461717E-1,-6.840546129E-2,-6.063971937E-2,1.996975858E-1
5.819455875E0,-1.777957016E-1,-9.482588595E-2,-3.943069875E-2,2.053242318E-1
5.829453875E0,-9.019823503E-2,-8.892268321E-2,4.060131133E-2,1.330091413E-1
5.839452875E0,-2.373571213E-2,2.236969292E-2,7.692713857E-2,8.355580076E-2
5.849450875E0,2.749890704E-2,3.310474232E-3,5.560994446E-2,6.212580020E-2
5.859448875E0,9.187865172E-2,6.805402536E-2,-1.389356911E-2,1.151784193E-1
5.869447875E0,1.217544519E-1,7.783913976E-2,-8.459576190E-2,1.674500557E-1
5.879445875E0,1.477386377E-1,8.384976681E-2,-1.587174064E-1,2.324837705E-1
5.889444875E0,9.185665157E-2,1.569418811E-1,-1.443642461E-1,2.321840521E-1
5.899443083E0,1.058454207E-1,1.153238851E-1,-6.054440975E-2,1.678346720E-1
5.909441083E0,8.203099038E-2,1.277608032E-1,2.087865293E-2,1.532573795E-1
5.919440083E0,7.209423210E-2,1.020351922E-1,1.443911433E-2,1.257666362E-1
5.929438083E0,5.536944117E-2,3.690923318E-2,-5.650573790E-2,8.729813816E-2
5.939437083E0,1.133881096E-2,-2.138125766E-2,-8.509102106E-2,8.846586165E-2
5.949435083E0,-1.102978561E-2,-1.264145732E-1,-8.642418623E-2,1.535299334E-1
5.959433083E0,-9.071476344E-2,-1.723576632E-1,-4.045863926E-2,1.989302236E-1
5.969432083E0,-1.446845639E-1,-1.881477401E-1,2.974712491E-2,2.392030238E-1
5.979430083E0,-1.689950573E-1,-1.572048048E-1,1.265933883E-1,2.632462080E-1
5.989429083E0,-1.815519164E-1,-1.183127808E-1,1.702919698E-1,2.756054561E-1
5.999427083E0,-1.714695625E-1,-9.079826899E-2,1.587337786E-1,2.506841618E-1
6.009426083E0,-1.337458487E-1,-5.793755656E-2,6.752540052E-2,1.606374558E-1
6.019424083E0,-6.383211639E-2,-3.545019756E-2,-4.210112214E-2,8.428380672E-2
6.029422083E0,2.215619646E-3,-5.800669989E-2,-1.174518514E-1,1.310138298E-1
6.039421083E0,6.085668761E-2,-1.111246981E-1,-1.246807641E-1,1.777569348E-1
6.049419083E0,9.950119168E-2,-1.286547968E-1,-7.770540297E-2,1.802516949E-1
6.059418083E0,1.516608038E-1,-1.469150026E-1,-2.756786764E-2,2.129436656E-1
6.069416083E0,1.618580190E-1,-1.185266061E-1,4.022884369E-3,2.006558205E-1
6.079414083E0,1.670687287E-1,-5.119878670E-2,-2.769124389E-2,1.769182886E-1
6.089413083E0,1.792898479E-1,-5.277020764E-3,-4.187834322E-2,1.841914552E-1
6.099411083E0,1.629359532E-1,2.098625997E-2,-8.029981256E-2,1.828567960E-1
6.109410083E0,1.148885417E-1,2.060396170E-2,-1.107719922E-1,1.609171666E-1
6.119408083E0,1.585768539E-2,-1.772857513E-3,-9.769060135E-2,9.898516455E-2
6.129406083E0,-9.812011588E-2,-5.272997148E-2,-4.822491109E-2,1.213822437E-1
6.139405083E0,-1.840246674E-1,-6.835994437E-2,4.209585965E-2,2.007740561E-1
6.149403083E0,-2.707599620E-1,-3.432869246E-2,1.232540435E-1,2.994678203E-1
6.159402083E0,-3.184570888E-1,7.701148465E-3,1.611235356E-1,3.569804180E-1
6.169400083E0,-2.819193731E-1,6.028271031E-2,9.732573509E-2,3.042775654E-1
6.179398083E0,-1.940929880E-1,1.406731547E-1,-1.333574474E-2,2.400809583E-1
6.189397083E0,-1.094970799E-1,1.449269493E-1,-9.392674863E-2,2.044887900E-1
6.199395083E0,-2.223659568E-3,1.111871811E-1,-1.318763477E-1,1.725076954E-1
6.209394083E0,9.815921914E-2,6.853424622E-2,-1.704141766E-1,2.082622548E-1
6.219392083E0,1.615397478E-1,6.091791892E-2,-1.270512253E-1,2.143550718E-1
6.229390083E0,1.807216118E-1,3.885860352E-2,7.789660692E-3,1.850161367E-1
6.239389083E0,1.723770869E-1,2.705269139E-3,9.999381959E-2,1.992986265E-1
6.249387083E0,1.761269063E-1,2.550593840E-2,6.901410162E-2,1.908774115E-1
6.259386083E0,1.508575791E-1,2.833772667E-2,-4.069252789E-2,1.587983556E-1
6.269384083E0,1.110756089E-1,9.750104193E-3,-1.336194026E-1,1.740316069E-1
6.279383083E0,5.163895413E-2,1.473456318E-2,-1.576853728E-1,1.665784072E-1
6.289381083E0,-3.691935617E-2,-7.722125351E-3,-9.493773222E-2,1.021559743E-1
6.299379083E0,-1.116946828E-1,-5.220902111E-2,-3.459095836E-2,1.280547479E-1
6.309378083E0,-1.634437108E-1,-7.078485779E-2,2.089210153E-3,1.781255386E-1
6.319376083E0,-2.004382037E-1,-6.989107434E-2,6.794464588E-2,2.228827285E-1
6.329375083E0,-2.071989006E-1,-6.681920305E-2,1.120887852E-1,2.448674868E-1
6.339373083E0,-1.638355108E-1,-5.767192852E-2,9.724796712E-2,1.990610284E-1
6.349371083E0,-1.094217239E-1,-4.227620970E-2,6.861707568E-2,1.358995756E-1
6.359370083E0,-5.031371925E-2,-3.941587972E-2,-1.188154221E-3,6.392568833E-2
6.369368083E0,3.044356484E-2,-4.685576728E-2,-6.859836459E-2,8.847603739E-2
6.379367083E0,6.728190053E-2,-6.470876019E-2,-9.692286193E-2,1.345664109E-1
6.389365083E0,7.103771333E-2,-7.860965660E-2,-9.125281692E-2,1.398317254E-1
6.399363083E0,7.549146440E-2,-8.089781826E-2,-8.961910486E-2,1.423903162E-1
6.409362083E0,7.662882093E-2,-6.885129321E-2,-3.318528771E-2,1.082300332E-1
6.419360083E0,6.128605597E-2,-5.159005679E-2,4.121702313E-2,9.009082979E-2
6.429359083E0,5.338215530E-2,-5.369379362E-2,4.392720759E-2,8.753443633E-2
6.439357083E0,6.110267267E-2,-8.713758308E-3,-1.323458791E-2,6.312385055E-2
6.449355083E0,4.924740639E-2,-8.419826087E-3,-7.353692293E-2,8.890376562E-2
6.459354083E0,1.695414796E-2,-1.315702094E-2,-8.608680189E-2,8.872140549E-2
6.469352083E0,-1.431504373E-2,2.146680973E-2,-7.528816402E-2,7.958675793E-2
6.479351083E0,-6.658962674E-2,3.603523890E-2,-3.889509380E-2,8.512076805E-2
6.489349083E0,-1.129897315E-1,4.414739180E-2,4.835647345E-3,1.214045102E-1
6.499347083E0,-1.550955314E-1,6.850186726E-2,3.568146408E-2,1.732636619E-1
6.509346083E0,-1.673077702E-1,7.005362693E-2,5.497727573E-2,1.895307401E-1
6.519344083E0,-1.488502300E-1,7.688012330E-2,5.120348275E-2,1.751820224E-1
6.529343083E0,-1.193157610E-1,7.591818323E-2,2.207323909E-3,1.414379498E-1
6.539341083E0,-7.850490008E-2,6.451516254E-2,-4.994633138E-2,1.132248275E-1
6.549340083E0,-1.671711646E-2,4.967083616E-2,-1.016503358E-1,1.143654000E-1
6.559338083E0,1.510200586E-2,5.515596299E-2,-1.000616473E-1,1.152500937E-1
6.569336083E0,5.342063729E-2,6.408570282E-2,-3.364312470E-2,8.995888858E-2
6.579335083E0,7.864607379E-2,3.710405510E-2,-5.164260864E-2,1.011379002E-1
6.589333083E0,7.807421610E-2,4.977546478E-2,-8.461154938E-2,1.254284433E-1
6.599332083E0,6.174773019E-2,4.084932463E-2,-3.270113826E-2,8.093709872E-2
6.609330083E0,3.687510006E-3,1.035138069E-2,3.552534342E-2,3.718600324E-2
6.619328083E0,-3.995362256E-2,-9.481534269E-3,8.249017954E-2,9.214565192E-2
6.629327083E0,-7.791484293E-2,-3.504504033E-2,7.226749241E-2,1.118993658E-1
6.639325083E0,-1.028644370E-1,-4.898189711E-2,1.459406555E-2,1.148621147E-1
6.649324083E0,-9.710697614E-2,-6.169550724E-2,-4.533755600E-2,1.236591865E-1
6.659322083E0,-8.598315999E-2,-7.161306107E-2,-7.234409094E-2,1.332486466E-1
6.669320083E0,-5.418344311E-2,-8.012594925E-2,-8.049920261E-2,1.258417056E-1
6.679319083E0,-2.695482362E-2,-6.081389330E-2,-4.658593655E-2,8.121047727E-2
6.689317083E0,-2.245659716E-3,-4.162746113E-2,2.804383099E-2,5.024285983E-2
6.699316083E0,2.578918118E-2,-4.759067092E-2,8.591021597E-2,1.015407260E-1
6.709314083E0,4.445656333E-2,-3.293086988E-2,5.412533641E-2,7.739754683E-2
6.719312083E0,7.347070321E-2,-4.682800214E-2,-2.930215180E-2,9.192073822E-2
6.729311083E0,8.421828758E-2,-6.762579904E-2,-9.190887451E-2,1.418210488E-1
6.739309083E0,7.765054878E-2,-1.017713732E-1,-7.246629775E-2,1.470999131E-1
6.749308083E0,6.492404737E-2,-9.523991450E-2,-5.421889186E-2,1.273792035E-1
6.759306083E0,5.241005570E-2,-9.037770800E-2,-4.420085728E-2,1.134401156E-1
6.769304083E0,7.051986929E-2,-8.477765598E-2,-2.803973794E-2,1.137828187E-1
6.779303083E0,7.632849332E-2,-5.387682974E-2,-4.150470614E-2,1.022320513E-1
6.789301083E0,9.072638478E-2,-1.110846721E-2,-5.630634785E-2,1.073549242E-1
6.799300083E0,8.871622168E-2,-2.508376029E-2,-6.526720583E-2,1.129582718E-1
6.809298083E0,4.369251497E-2,-2.540947761E-2,-4.877688825E-2,7.024145674E-2
6.819296083E0,-5.610366873E-3,-2.151239061E-2,-3.991309404E-3,2.258737959E-2
6.829295083E0,-6.257752318E-2,-2.226959590E-2,2.477757633E-2,7.089294462E-2
6.839293083E0,-1.055992163E-1,-3.161187507E-3,3.842205405E-2,1.124163771E-1
6.849292083E0,-1.641232304E-1,4.558878528E-2,4.875700772E-2,1.771779272E-1
6.859290083E0,-1.769475264E-1,6.589755395E-2,1.881575525E-2,1.897549667E-1
6.869288083E0,-1.523996726E-1,7.697530501E-2,-3.283737838E-2,1.738653249E-1
6.879287083E0,-1.301807282E-1,7.276773999E-2,-3.809227109E-2,1.539259143E-1
6.889285083E0,-8.897978492E-2,5.882390309E-2,-2.974303186E-2,1.107352773E-1
6.899284333E0,-2.157129217E-2,2.598774897E-2,-3.756777585E-2,5.051753680E-2
6.909282333E0,4.214863077E-2,1.964483561E-2,-4.270455480E-2,6.313561310E-2
6.919281333E0,1.111971579E-1,-1.201529726E-3,-2.912615061E-2,1.149547052E-1
6.929279333E0,1.482701862E-1,-2.251203608E-2,-4.217655122E-2,1.557873594E-1
6.939277333E0,1.542735956E-1,1.026562762E-2,-6.194130957E-2,1.665606533E-1
6.949276333E0,1.453202293E-1,3.380081680E-2,-4.666195035E-2,1.563259476E-1
6.959274333E0,1.107397594E-1,4.585677048E-2,-3.436876416E-2,1.246890118E-1
6.969273333E0,5.420968249E-2,5.679544916E-2,-2.581077933E-2,8.264749876E-2
6.979271333E0,-6.596755609E-3,5.856015712E-2,-2.294622838E-2,6.324032403E-2
6.989269333E0,-4.472582761E-2,4.351790249E-2,-3.086628199E-2,6.961993146E-2
6.999268333E0,-6.581731919E-2,3.160833020E-2,-6.243832290E-2,9.607054809E-2
7.009266333E0,-8.933730561E-2,1.335535118E-2,-3.400155902E-2,9.651748855E-2
7.019265333E0,-1.129932763E-1,-1.066111866E-3,-3.099024296E-5,1.129983100E-1
7.029263333E0,-1.078741852E-1,-2.471515730E-2,1.551734090E-2,1.117518085E-1
7.039261333E0,-9.536816038E-2,-3.458951483E-2,1.773986757E-2,1.029865207E-1
7.049260333E0,-9.719033550E-2,-4.890147049E-2,5.244075358E-2,1.207780931E-1
7.059258333E0,-6.892054617E-2,-5.741071329E-2,6.558763325E-2,1.111205171E-1
7.069257333E0,-3.362127073E-2,-5.023159328E-2,-3.756836057E-3,6.056167622E-2
7.079255333E0,-5.499489047E-3,-5.402647278E-2,-5.572747350E-2,7.781166650E-2
7.089253333E0,4.013276663E-2,-4.478343182E-2,-9.257311821E-2,1.103901125E-1
7.099252333E0,3.903937384E-2,-2.911314969E-2,-8.615346014E-2,9.896497810E-2
7.109250333E0,4.370705992E-2,-2.608086588E-2,-3.467515826E-2,6.158640477E-2
7.119249333E0,4.109554723E-2,-1.343120967E-2,1.982206106E-4,4.323517881E-2
7.129247333E0,1.820377104E-2,-4.387547800E-2,1.186867833E-2,4.896223418E-2
7.139245333E0,3.511059310E-2,-5.655172077E-2,1.085827947E-3,6.657349242E-2
7.149244333E0,3.695454910E-2,-5.649431756E-2,-3.303326011E-2,7.515612343E-2
7.159242333E0,-1.363621853E-2,-6.034647237E-2,9.938512444E-3,6.266113000E-2
7.169241333E0,-4.169576392E-2,-4.442176326E-2,3.361564279E-3,6.101745565E-2
7.179239333E0,-3.011644967E-2,-2.097822005E-2,-3.031722844E-2,4.760483796E-2
7.189237333E0,-4.600304224E-2,-1.058687730E-2,-1.565124214E-2,4.973251699E-2
7.199236333E0,-6.131569404E-2,1.935373563E-3,-3.859162331E-4,6.134744443E-2
7.209234333E0,-5.511216369E-2,1.499043368E-2,-3.752099812E-2,6.833658601E-2
7.219233333E0,-1.249093171E-2,1.651509516E-3,-5.041060030E-2,5.196132679E-2
7.229231333E0,1.706217527E-3,5.336406548E-3,-6.614545763E-2,6.638230169E-2
7.239229333E0,-2.272198766E-2,2.437917994E-2,-7.336501479E-3,3.412414676E-2
7.249228333E0,1.693021093E-2,2.722978894E-2,2.497813582E-2,4.064481168E-2
7.259226333E0,5.406755861E-2,6.275467554E-2,-1.050861597E-2,8.349779162E-2
7.269225333E0,4.218788020E-2,7.287046826E-2,-2.773275912E-2,8.865116078E-2
7.279223333E0,7.836591907E-2,7.956052350E-2,-7.624242961E-2,1.352183502E-1
7.289222333E0,8.002122927E-2,1.023528970E-1,-1.251888871E-1,1.804210911E-1
7.299220333E0,2.810434967E-2,5.656232798E-2,-6.666059732E-2,9.183020556E-2
7.309218333E0,5.658642948E-4,2.826860161E-2,-3.132762730E-2,4.220016910E-2
7.319217333E0,-2.755281106E-2,6.644903775E-3,-2.832391262E-2,4.006939193E-2
7.329215333E0,-6.449153613E-2,-5.759252516E-2,1.524076760E-2,8.779714223E-2
7.339214333E0,-8.979390007E-2,-1.023706305E-1,5.130873263E-2,1.455172723E-1
7.349212333E0,-8.771879632E-2,-9.165656716E-2,2.331226408E-2,1.289921517E-1
7.359210333E0,-9.066864353E-2,-1.093308454E-1,8.480216861E-3,1.422882664E-1
7.369209333E0,-7.942777343E-2,-1.136926764E-1,2.357597351E-2,1.406791470E-1
7.379207333E0,-4.465069089E-2,-8.955406372E-2,-3.033418536E-2,1.045647040E-1
7.389206333E0,1.734313399E-2,-6.605063223E-2,-8.184757054E-2,1.065950051E-1
7.399204333E0,4.896096591E-2,-6.742268139E-2,-5.475800514E-2,9.970673636E-2
7.409202333E0,6.440561861E-2,-3.888455054E-2,-2.017698705E-2,7.789225112E-2
7.419201333E0,8.801744286E-2,-4.826088974E-2,-2.058219910E-3,1.004012948E-1
7.429199333E0,9.944107499E-2,-5.448576244E-2,-7.573313713E-3,1.136423371E-1
7.439198333E0,7.536801506E-2,-4.733743167E-2,-1.038874805E-2,8.960522427E-2
7.449196333E0,6.068609510E-2,-4.419141037E-2,-4.666078091E-3,7.521605662E-2
7.459194333E0,2.144605212E-2,-3.166788043E-2,-2.693169057E-2,4.677717135E-2
7.469193333E0,-1.525264475E-2,-1.905826852E-4,-6.955438435E-2,7.120738639E-2
7.479191333E0,-1.721493378E-2,7.322267164E-3,-8.553424001E-2,8.755612917E-2
7.489190333E0,-6.152560908E-2,3.104570014E-2,-3.340572774E-2,7.658445480E-2
7.499188333E0,-7.692966018E-2,4.725695936E-2,3.083587646E-2,9.540568170E-2
7.509186333E0,-5.152964775E-2,3.964558393E-2,4.612459123E-2,7.971546172E-2
7.519185333E0,-4.734633040E-2,3.890567360E-2,2.248956084E-2,6.527715364E-2
7.529183333E0,-4.465715937E-2,5.812530700E-2,-1.731886804E-2,7.531770302E-2
7.539182333E0,-1.225170750E-2,6.956346581E-2,-7.673827350E-2,1.042973764E-1
7.549180333E0,-5.919099860E-3,8.089186141E-2,-1.189411372E-1,1.439636173E-1
7.559178333E0,-2.443277333E-2,9.480627950E-2,-6.429598331E-2,1.171288373E-1
7.569177333E0,-8.196115270E-3,9.522398997E-2,-2.461210012E-2,9.869417432E-2
7.579175333E0,-4.103247039E-3,8.416113105E-2,1.446951985E-2,8.549444204E-2
7.589174333E0,-4.024185374E-2,6.726468779E-2,5.608824670E-2,9.638379757E-2
7.599172333E0,-3.468418490E-2,6.345677996E-2,6.027134478E-2,9.414027091E-2
7.609170333E0,-2.356435217E-2,5.230095031E-2,-5.750151873E-3,5.765181994E-2
7.619169333E0,-4.262766391E-2,4.925332669E-2,-4.753377020E-2,8.063787714E-2
7.629167333E0,-6.618097946E-3,4.090310074E-2,-1.098259127E-1,1.173822558E-1
7.639166333E0,3.948438350E-2,3.553630695E-2,-1.146375865E-1,1.263472275E-1
7.649164333E0,6.482570451E-2,1.368084010E-2,-7.094309807E-2,9.706935930E-2
7.659162333E0,1.097885636E-1,-3.175873155E-2,-3.098264158E-2,1.184148209E-1
7.669161333E0,1.324074576E-1,-8.166647131E-2,-2.872795522E-2,1.581974803E-1
7.679159333E0,1.095897217E-1,-1.202714884E-1,-1.522673428E-2,1.634227385E-1
7.689158333E0,4.774065200E-2,-1.461458562E-1,2.073188782E-2,1.551373337E-1
7.699156333E0,-1.231197037E-2,-1.577501673E-1,2.181479216E-2,1.597265947E-1
7.709154333E0,-9.879890453E-2,-1.095771502E-1,1.212654054E-2,1.480386043E-1
7.719153333E0,-2.081169500E-1,-4.936027592E-2,7.960984111E-3,2.140384989E-1
7.729151333E0,-2.862209504E-1,-8.254751880E-3,-7.451691628E-3,2.864369059E-1
7.739150333E0,-2.936664293E-1,3.330674535E-2,-3.321335435E-2,2.974095458E-1
7.749148333E0,-2.681196152E-1,2.635415012E-2,4.256772995E-4,2.694120460E-1
7.759146333E0,-2.220069012E-1,-2.803014485E-2,3.884012997E-2,2.271151886E-1
7.769145333E0,-1.457507306E-1,-5.944984753E-2,3.981135249E-2,1.623653400E-1
7.779143333E0,-5.757468201E-2,-7.722379340E-2,3.629191339E-2,1.029342569E-1
7.789142333E0,3.567981955E-2,-5.533563696E-2,2.929455042E-4,6.584199312E-2
7.799140333E0,1.142395738E-1,-3.172030438E-2,-4.527323663E-2,1.269114805E-1
7.809139333E0,2.005025962E-1,-1.127324905E-2,-7.270837247E-2,2.135764141E-1
7.819137333E0,2.763879802E-1,1.610312227E-2,-9.248599470E-2,2.918960180E-1
7.829135333E0,3.258853185E-1,4.235735809E-2,-1.037021238E-1,3.446005181E-1
7.839134333E0,2.955020165E-1,6.398602607E-2,-9.514004588E-2,3.169657420E-1
7.849132333E0,2.046996910E-1,5.795915471E-2,-5.363417029E-2,2.194033986E-1
7.859131333E0,1.030495745E-1,4.795153549E-2,-3.247485101E-2,1.182082083E-1
7.869129333E0,9.613955431E-3,3.370249221E-2,-1.878885806E-2,3.976565487E-2
7.879127333E0,-8.502034284E-2,-1.700094396E-2,5.960066915E-3,8.690807322E-2
7.889126333E0,-1.224181840E-1,-5.920802861E-2,1.054252982E-3,1.359886535E-1
7.899123958E0,-1.473053225E-1,-2.795065926E-2,-2.571546972E-2,1.521229200E-1
7.909122958E0,-1.732001921E-1,-7.299901564E-3,-3.379164398E-2,1.766167328E-1
7.919120958E0,-1.857103831E-1,2.713765875E-3,-2.067575455E-3,1.857417179E-1
7.929118958E0,-1.857833637E-1,2.860457897E-2,-3.728184700E-3,1.880095197E-1
7.939117958E0,-1.709499277E-1,1.436162045E-2,4.265660763E-2,1.767759036E-1
7.949115958E0,-1.476331320E-1,-2.302487344E-2,8.424200535E-2,1.715295949E-1
7.959114958E0,-8.748812366E-2,-2.493972693E-2,4.677597106E-2,1.022944438E-1
7.969112958E0,-3.013618402E-3,-2.614701251E-2,-3.559843361E-2,4.427184923E-2
7.979110958E0,8.770922150E-2,-1.104243021E-2,-1.374206775E-1,1.633991598E-1
7.989109958E0,9.737317063E-2,6.564844429E-2,-1.283153933E-1,1.739427859E-1
7.999107958E0,1.233998949E-1,7.706862291E-2,-6.950468302E-2,1.612389769E-1
8.009106958E0,1.698067971E-1,3.876097329E-2,-1.890580237E-2,1.751975763E-1
8.019104958E0,1.656246857E-1,2.493366044E-2,2.377185524E-2,1.691695157E-1
8.029102958E0,1.637017557E-1,-2.436218647E-2,2.124995112E-2,1.668632416E-1
8.039101958E0,1.577611308E-1,-8.138553087E-2,-3.185972393E-2,1.803530456E-1
8.049099958E0,9.098676860E-2,-6.516429484E-2,-7.897015572E-2,1.369717594E-1
8.059098958E0,8.633304276E-3,-3.817484474E-2,-5.018138945E-2,6.363980327E-2
8.069096958E0,-4.851383664E-2,-2.058064593E-2,-5.357569814E-2,7.514992191E-2
8.079094958E0,-1.029671653E-1,2.880089924E-2,-2.449515581E-2,1.096892957E-1
8.089093958E0,-1.245090752E-1,4.385875862E-2,2.313801706E-2,1.340204027E-1
8.099091958E0,-1.288294367E-1,3.014542993E-2,1.252298176E-2,1.329006989E-1
8.109090958E0,-1.301864292E-1,1.410364861E-2,-2.534358680E-2,1.333780966E-1
8.119088958E0,-1.351213331E-1,-2.904354041E-2,-1.742060959E-2,1.393010392E-1
8.129086958E0,-1.429994329E-1,-7.233831681E-2,-1.264343441E-2,1.607529979E-1
8.139085958E0,-1.267683662E-1,-8.068733677E-2,-1.430755198E-2,1.509482396E-1
8.149083958E0,-9.979245611E-2,-9.554460011E-2,1.231949866E-2,1.387049925E-1
8.159082958E0,-6.001816034E-2,-6.963739654E-2,4.148541033E-2,1.008592377E-1
8.169080958E0,-8.037107550E-3,-2.680880768E-2,1.167045772E-2,3.032337136E-2
8.179078958E0,2.725058310E-2,7.302258722E-4,-3.341099024E-2,4.312101318E-2
8.189077958E0,4.086699419E-2,1.942667965E-2,-5.273837686E-2,6.948988048E-2
8.199075958E0,3.941078167E-2,3.486769611E-2,-3.658544362E-2,6.408947362E-2
8.209074958E0,4.791504521E-2,8.467462622E-3,-2.491440117E-2,5.466513392E-2
8.219072958E0,4.617535237E-2,-8.259045929E-3,-1.847369313E-2,5.041480283E-2
8.229070958E0,5.465396125E-2,-2.350940662E-2,-6.201556921E-3,5.981811588E-2
8.239069958E0,5.097902276E-2,-1.618489193E-2,-2.609846234E-2,5.951421027E-2
8.249067958E0,3.859776288E-2,4.679709412E-3,-2.504713297E-2,4.624982000E-2
8.259066958E0,4.261377677E-3,2.504218111E-2,-2.055003941E-2,3.267375543E-2
8.269064958E0,-4.220936872E-2,5.522766447E-2,-2.143940091E-2,7.274182869E-2
8.279062958E0,-5.372418087E-2,3.508788032E-2,-1.605762362E-2,6.614600693E-2
8.289061958E0,-6.107435022E-2,3.057160059E-2,-1.651604533E-2,7.026719555E-2
8.299059958E0,-8.417088859E-2,1.995524967E-2,-9.195331335E-3,8.699140528E-2
8.309058958E0,-6.640733980E-2,1.708278671E-2,-9.813382030E-3,6.926802182E-2
8.319056958E0,-5.995311007E-2,3.221450374E-2,-6.850013137E-3,6.840374506E-2
8.329054958E0,-4.046554629E-2,4.756677043E-2,8.543951511E-3,6.303219172E-2
8.339053958E0,-1.655079972E-2,7.003743745E-2,-2.486528456E-2,7.614101387E-2
8.349051958E0,3.491416320E-2,2.963255603E-2,-6.919419587E-2,8.297544161E-2
8.359050958E0,6.495905757E-2,1.503351121E-2,-6.756223798E-2,9.492281928E-2
8.369048958E0,7.563176103E-2,1.164239109E-2,-6.862467706E-2,1.027864527E-1
8.379047958E0,7.473520014E-2,-2.705116563E-2,-6.413518488E-2,1.021295141E-1
8.389045958E0,6.083742835E-2,-4.733883865E-2,-3.434128225E-2,8.438887367E-2
8.399043958E0,3.085206594E-2,-4.489014351E-2,-2.100963056E-2,5.838132864E-2
8.409042958E0,6.454741359E-3,-4.327220980E-2,-3.781979084E-3,4.391413432E-2
8.419040958E0,-2.526691519E-2,-4.909661218E-2,1.553020477E-2,5.735923283E-2
8.429039958E0,-2.751582742E-2,-3.673765395E-2,-7.968585491E-3,4.658620322E-2
8.439037958E0,-3.642658208E-2,-4.472195383E-2,-2.473430693E-2,6.275934174E-2
8.449035958E0,-4.074266776E-2,-3.769117950E-2,-3.536746860E-2,6.581373583E-2
8.459034958E0,-2.271983150E-2,-3.193721781E-2,-3.147380769E-2,5.026705875E-2
8.469032958E0,-7.435319424E-3,-3.884298049E-2,-2.847477078E-2,4.873267569E-2
8.479031958E0,1.218362398E-2,-4.146538362E-2,-2.806663513E-5,4.321827761E-2
8.489029958E0,2.141294226E-2,-4.068277949E-2,-3.175038099E-4,4.597503074E-2
8.499027958E0,1.704529144E-2,-3.518981374E-2,-1.902216196E-2,4.348226761E-2
8.509026958E0,4.877312411E-2,-3.176393009E-2,-5.867447019E-2,8.264658699E-2
8.519024958E0,5.455452204E-3,-1.442069560E-4,-4.383014381E-2,4.416858907E-2
8.529023958E0,-6.948721446E-2,3.210316909E-2,1.964138210E-2,7.902449196E-2
8.539021958E0,-3.545831971E-2,4.195612033E-2,-4.895873666E-3,5.515050361E-2
8.549019958E0,-5.185555693E-2,3.593788275E-2,-4.350562334E-2,7.663725898E-2
8.559018958E0,-1.179956059E-1,2.389250888E-2,2.804090738E-2,1.236127318E-1
8.569016958E0,-7.630057286E-2,2.200270705E-3,-9.989383221E-3,7.698315652E-2
8.579015958E0,-4.853971057E-2,-1.217984157E-2,-3.664625466E-2,6.202741348E-2
8.589013958E0,-8.402299058E-2,-3.887365096E-2,4.971127331E-2,1.050820364E-1
8.599011958E0,-4.177111991E-2,-1.501437072E-2,3.980901361E-2,5.962394947E-2
8.609010958E0,2.807094745E-2,-3.878531232E-4,-2.217965841E-2,3.577800677E-2
8.619008958E0,7.523648925E-3,4.201041721E-4,-2.084824741E-2,2.216824758E-2
8.629007958E0,4.555072356E-2,1.756493532E-2,-4.151289225E-2,6.408366088E-2
8.639005958E0,7.155643445E-2,1.763849147E-2,-1.012410307E-1,1.252245423E-1
8.649003958E0,6.334332570E-2,-1.634857742E-2,-4.465167761E-2,7.920495697E-2
8.659002958E0,6.219072986E-2,-1.287157631E-2,-4.105096221E-2,7.562106754E-2
8.669000958E0,6.791679852E-2,-1.947951472E-2,-5.480946064E-2,8.942158571E-2
8.678999958E0,2.762601089E-2,-4.073386040E-2,-3.368522465E-2,5.964174897E-2
8.688997958E0,-2.172818027E-2,-2.306901991E-2,-4.478382468E-3,3.200545902E-2
8.698995958E0,-5.378956005E-2,-1.397868264E-2,2.113300681E-2,5.945859329E-2
8.708994958E0,-7.741877977E-2,-1.287090023E-2,-1.149270236E-2,7.931840733E-2
8.718992958E0,-1.026619772E-1,-5.713533685E-3,-4.487036347E-2,1.121850059E-1
8.728991958E0,-1.038169119E-1,-6.958378488E-3,-5.431361675E-2,1.173726510E-1
8.738989958E0,-1.022581173E-1,2.270638291E-4,-1.151550651E-2,1.029047181E-1
8.748987958E0,-1.019136798E-1,-4.299265807E-3,8.007469475E-2,1.296797538E-1
8.758986958E0,-5.302806985E-2,1.775279540E-2,5.549416959E-2,7.878287120E-2
8.768984958E0,2.749156147E-2,1.974452150E-2,-4.213035822E-2,5.404256808E-2
8.778983958E0,7.037770886E-2,-1.285291091E-4,-7.718090773E-2,1.044506148E-1
8.788981958E0,9.949801225E-2,1.407068493E-2,-7.839595914E-2,1.274510299E-1
8.798979958E0,1.405130141E-1,1.533203898E-2,-9.756196260E-2,1.717478241E-1
8.808978958E0,1.110181965E-1,4.251848543E-3,-4.455519855E-2,1.197008099E-1
8.818976958E0,6.525383033E-2,1.569198078E-2,1.728670835E-2,6.930462408E-2
8.828975958E0,5.273421071E-2,4.788730748E-2,-3.053416014E-3,7.129806832E-2
8.838973958E0,2.336456012E-2,6.056471055E-2,-1.665696323E-2,6.701821587E-2
8.848971958E0,-2.091541730E-2,7.152540766E-2,-3.924417257E-2,8.422258428E-2
8.858970958E0,-5.918957334E-2,5.348315681E-2,-7.126995742E-2,1.069731765E-1
8.868968958E0,-6.046298727E-2,3.697607417E-2,-7.201079965E-2,1.010374097E-1
8.878967958E0,-9.428865474E-2,-1.942542798E-2,-2.245974004E-2,9.885412276E-2
8.888965958E0,-1.399442262E-1,-1.051442207E-1,7.633189201E-2,1.909613870E-1
8.898963833E0,-1.264603276E-1,-1.615609074E-1,8.634992659E-2,2.225993061E-1
8.908962833E0,-6.847367272E-2,-1.691336546E-1,2.166861176E-2,1.837508251E-1
8.918960833E0,-3.536761478E-2,-1.460675126E-1,-2.640427172E-2,1.525902093E-1
8.928959833E0,-2.070608698E-3,-9.283656268E-2,-3.750579536E-2,1.001478880E-1
8.938957833E0,5.102024563E-2,1.827236619E-3,-6.431352496E-2,8.211354182E-2
8.948955833E0,7.972177874E-2,5.171781845E-2,-5.967551351E-2,1.122116824E-1
8.958954833E0,8.428425148E-2,9.266247097E-2,-1.896661341E-2,1.266882039E-1
8.968952833E0,9.205552999E-2,8.983307641E-2,-2.135578573E-2,1.303850904E-1
8.978951833E0,8.558847293E-2,5.741450485E-2,-2.193992257E-2,1.053715914E-1
8.988949833E0,6.188404340E-2,1.735610750E-2,-1.219144464E-2,6.541789218E-2
8.998947833E0,1.875165515E-2,8.875835817E-3,-4.988668978E-2,5.402857438E-2
9.008946833E0,-2.030960921E-2,-1.434166683E-3,-5.404756844E-2,5.775531763E-2
9.018944833E0,-7.185405772E-2,8.836723426E-3,-7.471572161E-3,7.277992637E-2
9.028943833E0,-8.224565629E-2,2.995566037E-2,-2.964538336E-3,8.758126543E-2
9.038941833E0,-8.650261201E-2,2.648632460E-2,-5.647825599E-3,9.064284423E-2
9.048939833E0,-7.683288876E-2,1.768805576E-2,-4.902890325E-3,7.899492670E-2
9.058938833E0,-6.116582260E-2,1.840744601E-2,-8.508283496E-3,6.443976110E-2
9.068936833E0,-3.962979645E-2,2.467267362E-2,-2.483546376E-2,5.287780111E-2
9.078935833E0,-3.852796175E-2,3.446940023E-2,-1.303519785E-2,5.331472378E-2
9.088933833E0,-1.540763251E-2,3.477220377E-2,-3.087154448E-2,4.898523812E-2
9.098931833E0,1.712265741E-2,4.243764767E-2,-6.651558638E-2,8.073699628E-2
9.108930833E0,3.704649657E-2,2.412580364E-2,-5.200922906E-2,6.826021695E-2
9.118928833E0,2.229229040E-2,2.744529538E-2,-3.510083556E-2,4.982227521E-2
9.128927833E0,3.432279043E-3,1.068181233E-2,-5.315119028E-3,1.241499675E-2
9.138925833E0,-2.708909031E-2,-2.594407758E-2,2.597216249E-2,4.562309941E-2
9.148923833E0,-9.331176773E-2,-5.332771224E-2,6.877611995E-2,1.275973572E-1
9.158922833E0,-1.265634579E-1,-8.725449085E-2,6.172613204E-2,1.656555777E-1
9.168920833E0,-1.260634113E-1,-1.040412805E-1,-5.956558585E-3,1.635605463E-1
9.178919833E0,-9.271520555E-2,-1.018869379E-1,-6.121567011E-2,1.507461964E-1
9.188917833E0,-3.794448271E-2,-9.736160411E-2,-4.777759910E-2,1.148989325E-1
9.198915833E0,2.439641096E-2,-4.652178163E-2,-4.841143727E-2,7.143618335E-2
9.208914833E0,1.158391893E-1,-6.887435317E-3,-7.568752885E-2,1.385451427E-1
9.218912833E0,1.810631623E-1,1.666470165E-2,-6.971576750E-2,1.947353826E-1
9.228911833E0,1.983924822E-1,1.542758614E-2,-5.174084187E-2,2.056081276E-1
9.238909833E0,2.186876927E-1,-8.469216786E-3,-5.530238092E-2,2.257307863E-1
9.248907833E0,1.814233508E-1,-5.420352465E-2,-1.783927023E-2,1.901859455E-1
9.258906833E0,9.477602016E-2,-7.588677272E-2,1.754223168E-2,1.226744723E-1
9.268904833E0,-2.331007138E-2,-6.361319298E-2,-3.202520013E-3,6.782517146E-2
9.278903833E0,-1.341096186E-1,-6.883263694E-2,1.780886471E-2,1.517909002E-1
9.288901833E0,-1.948545878E-1,-5.040529213E-2,-2.975823462E-2,2.034565221E-1
9.298900833E0,-2.158583712E-1,-3.228642449E-2,-5.683902919E-2,2.255391870E-1
9.308898833E0,-1.935436055E-1,-4.814035487E-2,-3.857875943E-2,2.031377407E-1
9.318896833E0,-1.435835698E-1,-5.860919151E-2,-2.963368893E-3,1.551130568E-1
9.328895833E0,-8.113417368E-2,-5.938942021E-2,1.602020144E-2,1.018160313E-1
9.338893833E0,1.125033528E-2,-5.336838693E-2,1.404618144E-2,5.632095508E-2
9.348891833E0,9.208973620E-2,-1.084452024E-2,1.750071645E-3,9.274257859E-2
9.358890833E0,1.501405277E-1,1.629265429E-2,-4.179999053E-2,1.566999294E-1
9.368888833E0,1.358329758E-1,3.182414727E-2,-4.731099129E-2,1.473149807E-1
9.378887833E0,1.113090224E-1,5.384834284E-2,-5.087194562E-2,1.337060109E-1
9.388885833E0,9.379884079E-2,5.352683734E-2,-5.876334786E-2,1.229490785E-1
9.398883833E0,1.506593585E-2,4.371398522E-2,-2.472962916E-2,5.243519319E-2
9.408882833E0,-8.910403825E-2,5.048337073E-2,1.584595442E-4,1.024115495E-1
9.418880833E0,-1.436054968E-1,5.233259836E-2,-2.976057351E-2,1.557142617E-1
9.428879833E0,-1.534504538E-1,4.223968288E-2,-7.660846531E-2,1.766354708E-1
9.438877833E0,-1.558464235E-1,3.297347233E-2,-3.486285388E-2,1.630667844E-1
9.448876833E0,-1.454409378E-1,2.615258563E-2,8.442619264E-2,1.701904995E-1
9.458874833E0,-8.491377734E-2,2.033466088E-2,1.586431468E-1,1.810842236E-1
9.468872833E0,1.992610496E-2,3.824368657E-2,8.975008249E-2,9.957261937E-2
9.478871833E0,1.056950010E-1,4.686250071E-2,-1.835499465E-2,1.170659346E-1
9.488869833E0,1.411878193E-1,5.866430151E-2,-1.095253658E-1,1.880726093E-1
9.498867833E0,1.513151968E-1,1.122833970E-1,-1.696943843E-1,2.535745139E-1
9.508866833E0,1.466272282E-1,1.112333010E-1,-1.612966132E-1,2.447222686E-1
9.518864833E0,1.412977835E-1,6.977941079E-2,-1.040897942E-1,1.888621588E-1
9.528863833E0,9.980086148E-2,4.906149234E-2,-6.273419201E-2,1.276825001E-1
9.538861833E0,-8.830026537E-3,5.651676538E-2,1.947999895E-2,6.042834184E-2
9.548859833E0,-9.687776528E-2,-9.910993986E-3,4.689759314E-2,1.080875268E-1
9.558858833E0,-1.633344775E-1,-1.181005543E-1,6.008540332E-2,2.103239125E-1
9.568856833E0,-2.226750186E-1,-1.560062718E-1,4.212041795E-2,2.751295156E-1
9.578855833E0,-2.601370330E-1,-1.663310293E-1,4.031128943E-2,3.113876801E-1
9.588853833E0,-2.390581860E-1,-1.797996703E-1,3.115279555E-2,3.007444670E-1
9.598851833E0,-1.690253167E-1,-1.291489596E-1,-2.846950829E-2,2.146148279E-1
9.608850833E0,-8.393959466E-2,-4.979093249E-2,-3.557095170E-2,1.038762972E-1
9.618848833E0,2.420973860E-2,-4.894192591E-3,3.878458142E-3,2.500213994E-2
9.628847833E0,1.555379098E-1,6.027088797E-2,-5.170283496E-2,1.746362060E-1
9.638845833E0,2.189255282E-1,3.407327877E-2,-9.004361272E-2,2.391594184E-1
9.648843833E0,2.666227280E-1,-4.004853018E-2,-1.166882050E-1,2.937817235E-1
9.658842833E0,2.862513559E-1,-7.630589018E-2,-9.989967942E-2,3.126377674E-1
9.668840833E0,1.762856947E-1,-5.281073615E-2,-4.323840559E-2,1.890375088E-1
9.678839833E0,1.706101314E-1,-5.202917355E-2,-4.132344246E-2,1.830914491E-1
9.688837833E0,1.418412822E-1,-4.279743416E-2,-1.156403840E-2,1.486078622E-1
9.698835833E0,3.851615768E-2,-1.799387427E-2,5.784650445E-3,4.290380047E-2
9.708834833E0,-1.122624109E-1,3.471798912E-2,7.657162786E-2,1.402547749E-1
9.718832833E0,-1.975639318E-1,4.806043074E-2,6.909830153E-2,2.147460999E-1
9.728831833E0,-2.598035590E-1,-2.156031037E-2,3.372907877E-2,2.628695246E-1
9.738829833E0,-2.962263403E-1,-6.270677405E-2,4.970834970E-2,3.068437783E-1
9.748827833E0,-1.207193851E-1,4.958027741E-3,4.396462977E-2,1.285715390E-1
9.758826833E0,-2.288196748E-1,-1.341662635E-1,1.035068268E-1,2.847326694E-1
9.768824833E0,-1.191722849E-1,-1.689505454E-2,8.190779686E-2,1.455897096E-1
9.778823833E0,-1.058017127E-1,-5.191667860E-2,6.723596334E-2,1.356835241E-1
9.788821833E0,7.705753148E-3,-2.606956431E-2,3.111011088E-2,4.131391792E-2
9.798819833E0,8.275944382E-2,-7.946144974E-2,1.250894845E-2,1.154110971E-1
9.808818833E0,1.731535240E-1,-6.798999835E-2,-5.202033877E-2,1.931602920E-1
9.818816833E0,1.456629858E-1,-1.502818476E-2,-3.978270113E-2,1.517439128E-1
9.828815833E0,1.539497329E-1,5.504669314E-2,6.006201446E-2,1.741783691E-1
9.838813833E0,1.881213728E-1,1.001668698E-1,1.474164927E-1,2.591421908E-1
9.848812833E0,9.989617109E-2,1.900095849E-1,2.073334962E-1,2.984460856E-1
9.858810833E0,-2.487120487E-1,-6.601047831E-2,7.629388511E-2,2.683949018E-1
9.868808833E0,-2.971174926E-2,1.709868383E-1,7.953207314E-2,1.909047866E-1
9.878807833E0,5.127905801E-2,3.070966066E-1,4.887687564E-3,3.113868287E-1
9.888805833E0,-8.372569621E-2,3.505309305E-1,6.223250091E-2,3.657250464E-1
9.898805583E0,-6.980157539E-2,3.497946198E-1,1.663544548E-1,3.935763466E-1
9.908803583E0,-2.181216091E-2,3.855189148E-1,-1.180804271E-1,4.037865665E-1
9.918801583E0,8.520115337E-1,4.927341188E-1,-8.737085044E-1,1.316084008E0
9.928800583E0,4.096699619E-1,-9.775296921E-1,-8.138178134E-1,1.336298324E0
9.938798583E0,-2.998386405E-1,-5.230196992E-1,3.269441396E-1,6.858172399E-1
9.948797583E0,-1.086468217E-1,-3.859436419E-1,1.574737036E-1,4.307604832E-1
9.958795583E0,2.842585883E-1,4.321920845E-1,-2.990090668E-2,5.181573189E-1
9.968793583E0,3.054893897E-1,-1.960705712E-2,8.506529331E-3,3.062361262E-1
9.978792583E0,-2.770127186E-1,-9.753254380E-2,1.275160789E-1,3.201702575E-1
9.988790583E0,2.375538070E-1,3.176803228E-2,-1.067982244E-1,2.623868897E-1
9.998789583E0,1.693906215E-1,-1.270351820E-1,-1.149761403E-1,2.409369896E-1
1.000878758E1,9.868799016E-2,1.718251828E-2,8.570848703E-3,1.005386383E-1
1.001878558E1,1.319741423E-1,7.779789861E-2,-7.113254786E-2,1.689068579E-1
1.002878458E1,1.295759068E-1,2.612115685E-2,-9.545170248E-2,1.630437303E-1
1.003878258E1,4.687683553E-2,2.083686361E-2,2.095174313E-2,5.541288780E-2
1.004878158E1,3.214214444E-2,-3.094653502E-2,9.750524461E-2,1.072290922E-1
1.005877958E1,3.443191409E-2,-8.320585133E-2,1.040658206E-1,1.376170971E-1
1.006877758E1,6.781308353E-3,-7.716358535E-2,-9.953130484E-3,7.809782233E-2
1.007877658E1,1.257282928E-2,-3.873070481E-2,-5.794883072E-2,7.082521100E-2
1.008877458E1,4.663929239E-2,7.278321683E-4,-6.511342406E-2,8.009688713E-2
1.009877358E1,8.621865660E-3,1.098710094E-2,-8.520211816E-2,8.633917936E-2
1.010877158E1,-8.938623950E-2,6.177728604E-2,-1.184055322E-1,1.607053296E-1
1.011876958E1,-1.565283550E-1,9.938760951E-2,-7.431577206E-2,1.997544914E-1
1.012876858E1,-1.387427330E-1,5.487515959E-2,1.749954700E-2,1.502233778E-1
1.013876658E1,-1.570619135E-1,1.213626154E-2,5.811606109E-2,1.679083383E-1
1.014876558E1,-1.454774098E-1,1.165376575E-2,3.241170108E-2,1.494991819E-1
1.015876358E1,-7.244115472E-2,-3.261702058E-2,8.187856078E-3,7.986633781E-2
1.016876158E1,-7.787526459E-2,-2.994530898E-2,-3.232106924E-2,8.947586200E-2
1.017876058E1,-9.757541120E-2,1.612100196E-2,-4.317233205E-2,1.079106011E-1
1.018875858E1,3.835568815E-2,6.545015973E-2,-6.986779511E-2,1.031328804E-1
1.019875658E1,1.565549599E-1,7.024543388E-2,-6.115076602E-2,1.821628190E-1
1.020875558E1,1.464385459E-1,7.246927617E-2,-2.175632000E-2,1.648313719E-1
1.021875358E1,9.034284398E-2,5.287094420E-2,1.733056247E-2,1.061014354E-1
1.022875258E1,7.499024838E-2,2.215658932E-2,1.547816455E-2,7.971214074E-2
1.023875058E1,1.874539863E-1,5.525746699E-3,-2.797541857E-2,1.896105347E-1
1.024874858E1,3.189955808E-1,-2.567769122E-2,-2.600724578E-2,3.210823901E-1
1.025874758E1,2.683269721E-1,-1.586282912E-2,-8.162713051E-3,2.689193619E-1
1.026874558E1,2.051252952E-1,8.225314803E-3,1.809654772E-2,2.060862140E-1
1.027874458E1,9.613231838E-2,-3.160462087E-2,-1.910636187E-2,1.029821721E-1
1.028874258E1,1.377764806E-2,-6.260985645E-2,-3.204274178E-2,7.166976358E-2
1.029874158E1,2.766025364E-3,-1.138266233E-1,-5.462527335E-2,1.262856744E-1
1.030873958E1,-1.371888354E-2,-4.092910258E-2,-4.323782086E-2,6.109753151E-2
1.031873758E1,-2.576926410E-2,5.369925711E-2,1.850000560E-2,6.236918626E-2
1.032873658E1,-1.522049238E-1,-7.678652217E-2,1.794568956E-2,1.714192422E-1
1.033873458E1,-1.373160124E-1,-6.256113270E-2,-1.066122830E-2,1.512720872E-1
1.034873358E1,-9.159429431E-2,-3.675972719E-2,-4.259404242E-2,1.074943940E-1
1.035873158E1,-4.221090361E-2,-3.632488620E-2,-2.963719726E-2,6.308423894E-2
1.036872958E1,-1.990976930E-2,1.249765601E-2,1.737090826E-2,2.922907410E-2
1.037872858E1,-8.986439556E-2,-9.516051114E-3,4.775304079E-2,1.022082077E-1
1.038872658E1,-8.391909286E-2,-5.479088659E-2,-4.673094749E-3,1.003309185E-1
1.039872458E1,6.925880760E-3,1.185616164E-2,-3.194567800E-2,3.477157942E-2
1.040872358E1,1.417233512E-2,9.971541904E-2,-1.291357577E-2,1.015420126E-1
1.041872158E1,-1.328750521E-2,7.955582745E-2,-9.261989594E-3,8.118788042E-2
1.042872058E1,-1.152369261E-2,4.102607500E-2,-4.755072713E-2,6.385143672E-2
1.043871858E1,4.456002250E-2,4.048422083E-2,-6.286107659E-2,8.704069561E-2
1.044871758E1,8.205894738E-2,5.666851890E-2,-2.672937691E-2,1.032446196E-1
1.045871558E1,3.461800173E-2,-6.838483158E-3,1.005779564E-2,3.669237181E-2
1.046871358E1,1.879719034E-2,-9.228374499E-2,8.348069787E-3,9.454794669E-2
1.047871258E1,8.598155200E-2,-9.775844732E-2,9.883548617E-3,1.305650253E-1
1.048871058E1,1.330908144E-1,-4.715116130E-2,-1.449173927E-2,1.419380407E-1
1.049870858E1,1.100051299E-1,-8.238729595E-2,-2.337716818E-2,1.394104986E-1
1.050870758E1,8.927923545E-2,-1.058922806E-1,-3.361856639E-2,1.425277692E-1
1.051870558E1,1.251827475E-1,-1.782958578E-2,-4.262035489E-3,1.265179013E-1
1.052870458E1,1.057299381E-1,4.398264650E-2,4.308579326E-2,1.223506379E-1
1.053870258E1,1.731477499E-2,4.203581605E-2,7.218387723E-2,8.530722945E-2
1.054870058E1,-1.637834340E-2,1.045756064E-1,4.236541629E-2,1.140137539E-1
1.055869958E1,3.183151111E-2,1.382039669E-1,4.869561195E-2,1.499494721E-1
1.056869758E1,-3.416981265E-2,1.143260852E-1,1.320143420E-1,1.779489150E-1
1.057869658E1,-1.074555977E-1,6.690417954E-2,3.188615334E-1,3.430678536E-1
1.058869458E1,-1.030773488E-1,7.879835721E-2,5.299968892E-1,5.456471603E-1
1.059869258E1,-1.588242643E-1,8.213266798E-2,7.388261032E-1,7.601545454E-1
1.060869158E1,-2.449101891E-1,-1.780986970E-2,9.071820599E-1,9.398284322E-1
1.061868958E1,-2.638430348E-1,-4.668226029E-2,1.053267142E0,1.086813715E0
1.062868858E1,-2.313275456E-1,1.944211082E-2,1.131646729E0,1.155211992E0
1.063868658E1,-2.204343291E-1,7.335100888E-2,1.215167187E0,1.237175395E0
1.064868458E1,-3.111201122E-1,1.046608296E-1,1.300977416E0,1.341749548E0
1.065868358E1,-3.788295539E-1,1.682224392E-1,1.407392063E0,1.467161559E0
1.066868158E1,-4.625023328E-1,1.855502059E-1,1.548210558E0,1.626435740E0
1.067868058E1,-4.929167712E-1,1.635837151E-1,1.660740223E0,1.740053063E0
1.068867858E1,-4.097073841E-1,1.269381182E-1,1.739476490E0,1.791578043E0
1.069867658E1,-3.773309125E-1,3.912711862E-2,1.847934739E0,1.886470871E0
1.070867558E1,-3.787009151E-1,-1.123385983E-1,1.989382979E0,2.028220644E0
1.071867358E1,-4.058056833E-1,-2.136121998E-1,1.989344972E0,2.041519493E0
1.072867258E1,-3.957758081E-1,-1.915008808E-1,1.823883972E0,1.876130011E0
1.073867058E1,-2.899420819E-1,-1.285431241E-1,1.711571823E0,1.740709008E0
1.074866858E1,-3.803719032E-1,-1.698077107E-1,1.667179177E0,1.718430636E0
1.075866758E1,-3.329099075E-1,-1.323052135E-1,1.579349905E0,1.619468986E0
1.076866558E1,-4.527595559E-1,-1.236006372E-1,1.485223766E0,1.557612907E0
1.077866458E1,-5.029336363E-1,-3.497859221E-2,1.402766916E0,1.490610869E0
1.078866258E1,-4.330292961E-1,1.122416899E-2,1.275569510E0,1.347114668E0
1.079866058E1,-3.144929324E-1,8.776487969E-3,1.178605133E0,1.219874129E0
1.080865958E1,-1.991035402E-1,4.041849447E-2,1.131279523E0,1.149377760E0
1.081865758E1,-1.799879690E-1,7.214185037E-3,1.097030627E0,1.111721148E0
1.082865658E1,-8.027481571E-2,1.053578725E-2,1.067334373E0,1.070400725E0
1.083865458E1,-9.631402060E-2,7.831066288E-4,1.155216270E0,1.159224583E0
1.084865258E1,-1.815781192E-1,-2.253967331E-2,1.192544895E0,1.206499887E0
1.085865158E1,-3.265070602E-1,-6.717629434E-2,1.112163806E0,1.161046014E0
1.086864958E1,-1.544872382E-1,-3.604388181E-3,1.163957857E0,1.174170853E0
1.087864858E1,-2.781831850E-1,2.013389673E-1,1.285225017E0,1.330310719E0
1.088864658E1,-3.657945022E-1,1.967279261E-1,1.330053281E0,1.393394856E0
1.089864358E1,-7.198571509E-1,1.558806845E-1,1.657768668E0,1.814025926E0
1.090864258E1,-4.276852334E-1,5.421905631E-2,1.679967037E0,1.734400073E0
1.091864058E1,2.288185054E-1,1.576796535E-1,1.195168540E0,1.227048745E0
1.092863958E1,3.627701761E-1,1.087349776E-1,1.121050404E0,1.183291809E0
1.093863758E1,2.064666465E-2,1.048555693E-1,1.170619006E0,1.175487061E0
1.094863558E1,-5.483964689E-1,-1.003348036E-1,1.147328961E0,1.275605544E0
1.095863458E1,-3.160906841E-1,2.460723232E-1,1.221693265E0,1.285690220E0
1.096863258E1,-5.904553449E-1,9.844796196E-2,1.189609008E0,1.331727865E0
1.097863158E1,-5.508775887E-1,3.342880597E-2,1.036411373E0,1.174194250E0
1.098862958E1,-3.138031071E-1,-4.958850919E-2,8.207584584E-1,8.800999132E-1
1.099862758E1,-8.219562605E-2,-7.377672273E-2,6.174788368E-1,6.272792358E-1
1.100862658E1,5.678596571E-2,8.803321207E-3,3.140422583E-1,3.192564554E-1
1.101862458E1,7.830181897E-2,7.977571931E-2,1.334498334E-1,1.740810107E-1
1.102862358E1,7.600327849E-2,1.276732960E-1,5.839497328E-2,1.596463020E-1
1.103862158E1,1.155146688E-2,5.283648217E-2,1.548401177E-2,5.625730935E-2
1.104861958E1,-6.445575848E-2,-6.792321218E-2,-4.273905337E-2,1.029307254E-1
1.105861858E1,2.822304815E-3,-1.144787980E-1,-1.596284026E-1,1.964550521E-1
1.106861658E1,5.682294935E-2,-1.170197878E-1,-3.448383737E-1,3.685593334E-1
1.107861558E1,9.930750266E-2,-1.046674808E-1,-4.309906644E-1,4.544999608E-1
1.108861358E1,1.725435863E-1,-8.859480972E-2,-5.584395003E-1,5.911641101E-1
1.109861158E1,2.914997801E-1,-7.220707423E-2,-7.191513920E-1,7.793360687E-1
1.110861058E1,3.854693596E-1,-6.351386340E-2,-6.989592022E-1,8.007275469E-1
1.111860858E1,2.340924016E-1,-7.811693732E-2,-5.991899157E-1,6.480201103E-1
1.112860758E1,9.135894388E-2,-1.068318459E-1,-2.800997561E-1,3.133933205E-1
1.113860558E1,3.252567793E-1,-4.702498935E-2,-1.268687922E-1,3.522768976E-1
1.114860358E1,1.126245363E-1,-4.057917413E-2,-2.950809073E-1,3.184394722E-1
1.115860258E1,8.142934844E-2,-6.202186410E-2,-4.398959738E-1,4.516480025E-1
1.116860058E1,2.407756229E-1,1.223953798E-2,-3.232042605E-1,4.032166922E-1
1.117859958E1,4.783095494E-2,-7.592096066E-2,-2.616319102E-1,2.765918454E-1
1.118859758E1,1.758023858E-2,-6.175607161E-2,-2.738461590E-1,2.812731696E-1
1.119859558E1,-1.166844043E-1,1.822666654E-2,-2.685029733E-1,2.933279875E-1
1.120859458E1,-1.674484688E-1,6.881158696E-2,-2.739397144E-1,3.283549777E-1
1.121859258E1,-1.005215308E-1,1.225140966E-1,-9.623990715E-2,1.854087424E-1
1.122859158E1,-1.274163839E-1,1.610393723E-1,-6.557593882E-2,2.155662730E-1
1.123858958E1,-9.853362367E-2,8.078566136E-2,-2.423700124E-1,2.738218782E-1
1.124858758E1,1.146772014E-1,1.997279863E-1,-3.671139264E-1,4.333760076E-1
1.125858658E1,1.330802894E-1,1.036152926E-1,-3.069852537E-1,3.502662391E-1
1.126858458E1,1.436941552E-1,-7.963807220E-3,-4.383569866E-1,4.613765059E-1
1.127858358E1,1.905782998E-1,-3.889838286E-2,-4.915455991E-1,5.286305407E-1
1.128858158E1,2.181445594E-1,-3.448966448E-2,-4.088513517E-1,4.646891580E-1
1.129857958E1,2.039830416E-1,-8.610593325E-2,-3.630378324E-1,4.252290921E-1
1.130857858E1,1.844701521E-1,4.272933237E-2,-1.907730120E-1,2.687924385E-1
1.131857658E1,1.012591571E-3,-7.122551858E-2,-7.561970115E-2,1.038866644E-1
1.132857558E1,8.103714645E-2,3.184909844E-2,-1.088149291E-1,1.393630976E-1
1.133857358E1,-1.322379979E-1,3.757759734E-2,-2.756511945E-1,3.080301039E-1
1.134857158E1,2.512300059E-2,3.470238436E-2,-4.248429018E-1,4.269975549E-1
1.135857058E1,7.312805638E-2,7.405388075E-2,-5.928620589E-1,6.019278285E-1
1.136856858E1,-6.327052787E-2,-8.618116133E-2,-7.677651429E-1,7.751733141E-1
1.137856758E1,7.208944470E-2,-4.829206271E-3,-8.504950583E-1,8.535584652E-1
1.138856558E1,4.518289715E-3,6.526680384E-3,-9.666453195E-1,9.666779123E-1
1.139856358E1,2.033502267E-1,2.291151968E-2,-1.433311016E0,1.447845545E0
1.140856258E1,8.339471456E-1,1.042305476E-1,-3.847865510E0,3.938578529E0
1.141856058E1,6.124418990E-1,-2.572421313E-1,-1.983551551E0,2.091825841E0
1.142855958E1,6.604820381E-1,-1.519780061E-1,-2.397801636E0,2.491743672E0
1.143855758E1,4.245287602E-1,-2.279887672E-1,-2.213109144E0,2.264962611E0
1.144855558E1,5.562750073E-1,-1.716296300E-1,-1.764694946E0,1.858237570E0
1.145855458E1,4.423740238E-1,-2.317868079E-1,-1.312656645E0,1.404452693E0
1.146855258E1,3.351159158E-1,-1.686857762E-1,-9.743256372E-1,1.044063224E0
1.147855158E1,4.980376165E-1,-7.922807274E-2,-1.071152020E0,1.183927872E0
1.148854958E1,7.726652558E-1,-3.011991232E-2,-1.367575448E0,1.571044688E0
1.149854758E1,4.160823110E-1,-2.323506622E-1,-1.435286790E0,1.512335773E0
1.150854658E1,5.570561953E-1,-1.901583235E-1,-1.490331309E0,1.602360510E0
1.151854458E1,4.578651984E-1,1.149898812E-2,-1.480745968E0,1.549961738E0
1.152854258E1,4.739022106E-3,-1.038470251E-1,-1.446804636E0,1.450534493E0
1.153854158E1,-1.124951667E-1,3.839170335E-2,-1.442468340E0,1.447357592E0
1.154853958E1,-1.515105669E-1,1.561542246E-1,-1.357161557E0,1.374491574E0
1.155853858E1,2.252040491E-1,2.295528609E-1,-1.244112074E0,1.285000480E0
1.156853658E1,2.334354669E-1,1.973742992E-1,-1.192212188E0,1.230779685E0
1.157853458E1,3.065268320E-1,6.288344219E-2,-1.082052400E0,1.126388220E0
1.158853358E1,3.689179386E-1,-1.125890510E-2,-7.005812198E-1,7.918593650E-1
1.159853158E1,1.878111050E-1,2.498423886E-3,-7.160050052E-1,7.402313292E-1
1.160853058E1,1.531011558E-1,2.406350339E-1,-7.585090005E-1,8.103586165E-1
1.161852858E1,1.038756399E-1,2.417278785E-1,-7.881081909E-1,8.308652336E-1
1.162852658E1,3.093565920E-1,-3.626751588E-1,-6.576573944E-1,8.122487429E-1
1.163852558E1,2.493643056E-1,1.932891786E-1,-7.957341295E-1,8.560000399E-1
1.164852358E1,2.079761052E-1,9.752669659E-2,-9.086590666E-1,9.372442671E-1
1.165852258E1,3.149795669E-1,9.452037807E-2,-9.190074688E-1,9.760742580E-1
1.166852058E1,2.779751703E-1,-2.488022237E-2,-9.692256957E-1,1.008606797E0
1.167851858E1,2.581310360E-1,9.107476920E-3,-9.715622431E-1,1.005309788E0
1.168851758E1,1.681122740E-1,5.764310357E-2,-1.013376852E0,1.028842606E0
1.169851558E1,3.109008417E-2,-3.681918606E-3,-9.979407871E-1,9.984317525E-1
1.170851458E1,1.330112922E-1,-4.792403530E-2,-9.751430780E-1,9.853388958E-1
1.171851258E1,9.667640179E-2,-1.479400743E-1,-9.172065264E-1,9.340773010E-1
1.172851058E1,2.447787729E-1,-1.593818694E-1,-8.759474033E-1,9.233650856E-1
1.173850958E1,2.098603705E-1,-1.814696169E-1,-7.927269065E-1,8.398741247E-1
1.174850758E1,2.341656379E-1,-2.070995345E-1,-7.087380856E-1,7.746182526E-1
1.175850658E1,1.821797977E-1,-1.451750539E-1,-5.262640268E-1,5.755163776E-1
1.176850458E1,9.791177228E-2,-2.264046103E-1,-2.192010051E-1,3.299921868E-1
1.177850258E1,1.422745974E-1,-1.630020633E-1,-2.122954434E-1,3.031189354E-1
1.178850158E1,3.247280449E-2,-1.091824175E-1,-2.220018214E-1,2.495197227E-1
1.179849958E1,6.849896193E-2,4.957041023E-3,-1.734757787E-1,1.865757911E-1
1.180849858E1,-1.224158451E-2,5.646797768E-2,-1.306420004E-1,1.428489453E-1
1.181849658E1,1.085754856E-2,3.011547209E-2,-7.797086656E-2,8.428691507E-2
1.182849458E1,2.089941055E-3,6.520392800E-2,-7.758144200E-2,1.013646892E-1
1.183849358E1,-3.882127270E-2,4.912642384E-2,-6.198048592E-2,8.810265244E-2
1.184849158E1,3.465103850E-2,1.044362508E-1,-4.963467479E-2,1.207113329E-1
1.185849058E1,-4.969855562E-2,8.308522509E-2,-5.458375812E-2,1.111417460E-1
1.186848858E1,4.458662733E-2,9.637690558E-2,-6.147119343E-2,1.226995635E-1
1.187848658E1,3.078339770E-2,6.542762968E-2,-8.363038659E-2,1.105551168E-1
1.188848558E1,5.688346803E-2,3.310578385E-2,-1.129898411E-1,1.307609500E-1
1.189848358E1,9.133277759E-2,3.345385764E-2,-1.610358274E-1,1.881312695E-1
1.190848358E1,1.185435265E-2,-1.687175704E-2,-1.972932422E-1,1.983678535E-1
1.191848158E1,5.026003450E-2,1.450079332E-2,-2.505964601E-1,2.559979099E-1
1.192847958E1,-1.685547620E-2,1.368928201E-2,-3.220009035E-1,3.227322193E-1
1.193847858E1,4.979635030E-2,2.841406024E-2,-3.859998482E-1,3.902344400E-1
1.194847658E1,7.067675740E-2,3.501234161E-2,-4.614037871E-1,4.680967025E-1
1.195847558E1,7.870001435E-2,3.778164689E-2,-5.451826930E-1,5.521279868E-1
1.196847358E1,1.609111355E-1,9.792429811E-2,-6.268104082E-1,6.545019859E-1
1.197847158E1,9.723992720E-2,5.803268345E-2,-6.692781508E-1,6.787905707E-1
1.198847058E1,1.456389391E-1,3.943731342E-2,-6.988171148E-1,7.149205286E-1
1.199846858E1,1.541102390E-1,-9.453147864E-3,-7.324678409E-1,7.485642696E-1
1.200846758E1,1.562704928E-1,-7.631878146E-2,-7.618202788E-1,7.814186845E-1
1.201846558E1,2.339335035E-1,-6.772379472E-2,-7.943506783E-1,8.308455913E-1
1.202846358E1,1.926770116E-1,-1.291067226E-1,-8.308191776E-1,8.625853480E-1
1.203846258E1,2.216058187E-1,-1.213075785E-1,-8.739277750E-1,9.097111758E-1
1.204846058E1,1.937194240E-1,-1.141525508E-1,-8.869688201E-1,9.150255231E-1
1.205845958E1,1.654088138E-1,-9.033508728E-2,-8.801632458E-1,9.001154609E-1
1.206845758E1,2.019819783E-1,-4.052273937E-2,-8.511166173E-1,8.756930445E-1
1.207845558E1,1.569334209E-1,-2.177213489E-2,-7.919562435E-1,8.076489436E-1
1.208845458E1,2.152114499E-1,2.205828301E-2,-7.717365718E-1,8.014860400E-1
1.209845258E1,2.883639184E-1,7.023338313E-2,-8.267278808E-1,8.783879931E-1
1.210845158E1,3.292726471E-1,5.737190240E-2,-9.221181875E-1,9.808231049E-1
1.211844958E1,4.114039537E-1,3.991003339E-2,-1.022600834E0,1.102977103E0
1.212844758E1,3.826605034E-1,-7.272712011E-3,-1.079985994E0,1.145797408E0
1.213844658E1,3.082260329E-1,-4.512350223E-2,-1.096334808E0,1.139732175E0
1.214844458E1,2.672718421E-1,-6.977222054E-2,-1.077656463E0,1.112495327E0
1.215844358E1,2.005112574E-1,-7.800872728E-2,-1.034600490E0,1.056734735E0
1.216844158E1,1.491769432E-1,-6.684587183E-2,-1.055538200E0,1.068121259E0
1.217843958E1,1.711863014E-1,-4.223595528E-2,-1.116411808E0,1.130249508E0
1.218843858E1,2.844237721E-1,-2.495989982E-2,-1.132137895E0,1.167585582E0
1.219843658E1,3.396890232E-1,9.617664758E-4,-1.081416222E0,1.133512507E0
1.220843458E1,3.096871059E-1,1.943396126E-2,-1.046739895E0,1.091763798E0
1.221843358E1,2.985822201E-1,2.245598503E-2,-1.050976202E0,1.092797599E0
1.222843158E1,3.202810912E-1,9.682958971E-2,-1.118348991E0,1.167330464E0
1.223843058E1,2.772811058E-1,1.564732268E-2,-1.257737841E0,1.288034987E0
1.224842858E1,2.928826466E-1,9.708525008E-3,-1.202119710E0,1.237322229E0
1.225842658E1,2.321496642E-1,-1.023295630E-2,-9.493527639E-1,9.773785604E-1
1.226842558E1,1.478911404E-1,-6.864072036E-2,-5.904015505E-1,6.125008806E-1
1.227842358E1,2.140659803E-1,-4.017071871E-2,-5.986800385E-1,6.370680647E-1
1.228842258E1,1.693814121E-1,-2.371553924E-2,-6.520352966E-1,6.740938492E-1
1.229842058E1,1.691277891E-1,-4.472589157E-2,-8.140429312E-1,8.326286737E-1
1.230841858E1,7.012521878E-2,-4.947753087E-2,-6.799265152E-1,6.853215584E-1
1.231841758E1,-7.198419482E-2,-1.252019611E-1,-5.047848648E-1,5.250381082E-1
1.232841558E1,-5.620270595E-2,-1.235575688E-1,-3.576466995E-1,3.825393818E-1
1.233841458E1,-3.521339446E-2,-7.610094527E-2,-2.829292238E-1,2.950936846E-1
1.234841258E1,-2.822787210E-2,-5.021214215E-2,-1.601271701E-1,1.701728021E-1
1.235841058E1,3.212884203E-2,5.076939094E-2,-3.529028535E-2,6.967924932E-2
1.236840958E1,6.286531582E-2,9.093525829E-2,7.691953719E-2,1.346769629E-1
1.237840758E1,6.054133996E-2,8.059982040E-2,2.048671407E-1,2.283246159E-1
1.238840658E1,7.315407649E-2,9.800416742E-2,3.551955467E-1,3.756597026E-1
1.239840458E1,-8.641015291E-3,-2.314885268E-2,4.703500271E-1,4.709986035E-1
1.240840258E1,2.722858295E-2,-4.050677829E-2,4.563453609E-1,4.589480180E-1
1.241840158E1,-3.262293175E-2,-1.289922725E-1,2.809715760E-1,3.108830786E-1
1.242839958E1,4.364303291E-2,-1.174010811E-1,-5.121634662E-2,1.353175610E-1
1.243839858E1,4.303565338E-2,-1.235700763E-1,-2.542369366E-1,2.859336481E-1
1.244839658E1,-4.926264569E-2,-7.382064993E-2,-2.985857284E-1,3.114959612E-1
1.245839458E1,-2.122701542E-1,-3.641776557E-2,-3.343934923E-1,3.977485132E-1
1.246839358E1,-1.544445536E-1,9.343093215E-2,-3.110215867E-1,3.596065719E-1
1.247839158E1,-9.708205238E-2,1.479030450E-1,-2.101039070E-1,2.746705069E-1
1.248839058E1,1.386827990E-1,2.018481867E-1,-1.109398073E-1,2.688554445E-1
1.249838858E1,2.713501288E-1,2.338739350E-1,-6.135541856E-2,3.634451778E-1
1.250838658E1,4.111136395E-1,2.233021143E-1,-6.991983533E-2,4.730402120E-1
1.251838558E1,5.204149108E-1,2.017029564E-1,-8.508400440E-2,5.645839617E-1
1.252838358E1,4.414185888E-1,1.866331103E-1,2.948166132E-3,4.792608685E-1
1.253838258E1,1.364732824E-1,1.528774632E-1,7.131030321E-2,2.169830291E-1
1.254838058E1,-1.192994253E-1,-3.768492116E-2,5.425982237E-2,1.363694779E-1
1.255837858E1,-4.650002633E-1,-2.216290249E-1,-3.209770560E-2,5.161152315E-1
1.256837758E1,-2.394930361E-1,-1.707148514E-2,-1.206502783E-1,2.687095823E-1
1.257837558E1,-3.448211244E-1,-1.179190622E-1,-2.134233713E-1,4.223222093E-1
1.258837458E1,-1.439202963E-1,2.795796828E-2,-2.701571506E-1,3.073753173E-1
1.259837258E1,-7.243559986E-2,-8.702749098E-3,-4.273191977E-1,4.335024229E-1
1.260837058E1,-2.268865854E-2,6.705731263E-2,-4.495801324E-1,4.551194940E-1
1.261836958E1,-4.024726242E-2,9.108245281E-2,-4.986944050E-1,5.085390495E-1
1.262836758E1,-1.726390421E-3,-1.167798601E-1,-6.107288110E-1,6.217959446E-1
1.263836658E1,1.075852597E-1,-2.188422053E-1,-5.916680574E-1,6.399512397E-1
1.264836458E1,2.949380891E-1,-2.171378151E-2,-5.141170210E-1,5.931073056E-1
1.265836258E1,4.212107576E-1,-2.300175135E-1,-4.200078392E-1,6.377563358E-1
1.266836158E1,4.567551045E-1,-3.712866457E-1,-2.762394243E-1,6.502208996E-1
1.267835958E1,3.118603697E-1,-4.117677967E-1,-2.985506451E-1,5.966088303E-1
1.268835758E1,3.066933315E-1,-1.987635611E-1,-4.763481009E-1,6.003959244E-1
1.269835658E1,3.312276636E-1,2.189598623E-2,-2.745793998E-1,4.307958289E-1
1.270835458E1,-1.685799050E-1,-4.281049903E-2,-1.752761364E-2,1.748117286E-1
1.271835358E1,-5.995939583E-2,-5.018509878E-3,2.466864270E-1,2.539183094E-1
1.272835158E1,-7.270122425E-1,6.350410586E-2,1.322058383E0,1.510105274E0
1.273835058E1,-8.059620792E-1,-1.068428095E-1,5.946612471E-1,1.007279632E0
1.274834858E1,1.072971089E0,2.557335497E-2,2.880747736E-1,1.111264158E0
1.275834658E1,6.622287476E-1,6.143055528E-2,4.002781641E-1,7.762365851E-1
1.276834558E1,-1.777854690E-1,1.271781647E-1,3.078646749E-1,3.775746504E-1
1.277834358E1,-1.715238319E-1,2.371246945E-1,3.840340143E-1,4.828360693E-1
1.278834158E1,-3.626545474E-1,5.647127587E-1,3.585664666E-1,7.609130907E-1
1.279834058E1,-3.206687616E-1,3.110146431E-1,5.472414976E-1,7.064218425E-1
1.280833858E1,-2.526250054E-1,3.406514018E-1,4.446363115E-1,6.144625460E-1
1.281833758E1,-1.388748801E-1,1.994627419E-1,3.686558372E-1,4.415639750E-1
1.282833558E1,-1.449697253E-1,-1.954052676E-1,5.764003927E-1,6.256491449E-1
1.283833358E1,-3.183113104E-1,-5.993398967E-1,6.680724549E-1,9.522873554E-1
1.284833258E1,-8.915118143E-2,1.872077454E-3,9.449521494E-1,9.491501475E-1
1.285833058E1,-3.471342829E-1,-1.910176084E-1,9.504222196E-1,1.029704974E0
1.286832958E1,-4.214062008E-1,1.684402845E-1,1.112391847E0,1.201403736E0
1.287832758E1,-4.761026640E-1,4.163977683E-1,1.252816824E0,1.403428247E0
1.288832558E1,-2.904148293E-1,2.977692744E-1,1.410499274E0,1.470549392E0
1.289832458E1,-2.049348222E-1,2.131234822E-1,1.448457643E0,1.478326569E0
1.290832262E1,-1.379084815E-1,9.484761201E-2,1.482116556E0,1.491537563E0
1.291832162E1,1.234771147E-2,6.926605267E-2,1.504219031E0,1.505863588E0
1.292831962E1,-2.055072646E-1,-2.470046617E-3,1.505045827E0,1.519013587E0
1.293831762E1,-3.696140496E-1,-4.287886578E-2,1.446868370E0,1.493948200E0
1.294831662E1,-3.675197232E-1,-8.525311684E-2,1.410710358E0,1.460288518E0
1.295831462E1,-4.727897778E-1,-1.411740235E-1,1.337025501E0,1.425165769E0
1.296831362E1,-4.252868517E-1,-2.173831971E-1,1.166734700E0,1.260711792E0
1.297831162E1,-1.374778341E-1,-1.848412310E-1,1.069276233E0,1.093808986E0
1.298830962E1,-1.285853885E-1,-1.455220222E-1,1.033696511E0,1.051779130E0
1.299830862E1,-1.823547757E-1,-9.185350869E-2,9.571716607E-1,9.787072694E-1
1.300830662E1,-7.064123556E-2,-1.577704864E-2,9.075282151E-1,9.104101057E-1
1.301830562E1,-1.747003318E-1,-1.395348480E-2,8.122443277E-1,8.309366724E-1
1.302830362E1,-1.282838184E-1,-4.087292363E-2,6.741541439E-1,6.874671946E-1
1.303830162E1,1.235896736E-2,-4.622430453E-2,5.375982696E-1,5.397233827E-1
1.304830062E1,-1.145703435E-2,-6.228190988E-2,3.771606123E-1,3.824400965E-1
1.305829862E1,-1.220669125E-1,-6.543445447E-2,2.072984129E-1,2.493083050E-1
1.306829762E1,-1.378714979E-1,-3.026765501E-3,2.887764394E-2,1.408958110E-1
1.307829562E1,-1.539096795E-1,3.649267389E-2,-8.792984426E-2,1.809739269E-1
1.308829362E1,-1.777655885E-1,4.219433955E-2,-1.548564899E-1,2.395026079E-1
1.309829262E1,-1.273171274E-1,7.572860554E-2,-2.262930930E-1,2.704681803E-1
1.310829062E1,-2.784341767E-2,2.155243490E-1,-2.392973006E-1,3.232478909E-1
1.311828962E1,1.731638297E-2,1.756899000E-1,-6.779027939E-2,1.891092807E-1
1.312828762E1,1.805313215E-2,5.477287900E-2,3.380684674E-2,6.684973254E-2
1.313828562E1,2.075887272E-1,-4.671870489E-2,4.602752745E-2,2.177022056E-1
1.314828462E1,3.639957525E-1,-2.096199403E-2,4.714142203E-2,3.676338215E-1
1.315828262E1,-3.165024742E-2,-2.564790697E-2,5.156144929E-1,5.172212859E-1
1.316828162E1,1.350560635E-2,-1.814373110E-1,4.441527468E-1,4.799724593E-1
1.317827962E1,7.794718534E-1,-8.708649304E-2,-1.436795372E-1,7.973733359E-1
1.318827763E1,5.850817537E-1,-8.300757590E-2,-1.700867325E-1,6.149312261E-1
1.319827663E1,3.363844693E-2,-1.962116352E-2,-1.061585391E-1,1.130759505E-1
1.320827463E1,-2.611924919E-1,1.396815766E-1,-2.283641768E-1,3.740089008E-1
1.321827363E1,-2.671022728E-2,1.526551228E-1,-4.897890955E-1,5.137220852E-1
1.322827163E1,-9.731959552E-2,1.309749811E-1,-5.086849576E-1,5.342152520E-1
1.323826962E1,-2.047251995E-1,3.395255204E-2,-5.010251051E-1,5.423018892E-1
1.324826863E1,-1.761432785E-1,2.073528651E-2,-4.671685570E-1,4.997027790E-1
1.325826662E1,-2.455326252E-1,2.801291384E-3,-4.242932636E-1,4.902233070E-1
1.326826462E1,-2.526172578E-2,2.786728162E-2,-3.018227470E-1,3.041573783E-1
1.327826362E1,1.716320054E-1,-5.568504464E-3,-1.940211403E-1,2.590998966E-1
1.328826162E1,3.000589344E-1,-3.845520046E-2,-1.420160043E-1,3.341896348E-1
1.329826062E1,3.231599678E-1,-4.903668735E-2,-6.299497783E-2,3.328743438E-1
1.330825862E1,2.781970721E-1,-6.519089053E-2,-3.923598647E-2,2.884145034E-1
1.331825662E1,1.920735790E-1,-1.552640408E-2,-8.013433635E-2,2.086979656E-1
1.332825562E1,-6.311923116E-3,8.458633326E-2,-1.072812045E-1,1.367623668E-1
1.333825362E1,-1.914935352E-1,1.765067560E-1,-1.716315669E-1,3.119003105E-1
1.334825262E1,-2.768324782E-1,2.437189651E-1,-1.401238453E-1,3.945501830E-1
1.335825062E1,-3.251885131E-1,8.330741015E-2,3.312032515E-1,4.715753253E-1
1.336824862E1,-3.876383843E-1,2.427044000E-2,1.325587177E-1,4.103954006E-1
1.337824762E1,3.408784930E-1,1.463840937E-1,-1.660796356E-1,4.064589712E-1
1.338824562E1,2.919630258E-1,1.094507407E-2,-7.646170020E-2,3.020076070E-1
1.339824462E1,6.883532301E-2,-4.202773045E-2,7.462801337E-3,8.099583461E-2
1.340824262E1,1.561060399E-1,-7.897966658E-2,6.512453377E-2,1.866764268E-1
1.341824062E1,-3.263754979E-2,-1.794031012E-1,3.591786700E-1,4.028150933E-1
1.342823962E1,-3.449050319E-1,-2.901686980E-1,6.234622926E-1,7.693260587E-1
1.343823762E1,5.895539966E-1,-8.934291529E-2,-6.584491074E-2,5.999096796E-1
1.344823662E1,5.824426129E-1,-1.406411138E-1,5.049129188E-2,6.013058214E-1
1.345823462E1,1.466812053E-1,-1.041430038E-1,1.167536938E-1,2.144587752E-1
1.346823262E1,-2.501526564E-1,4.012302736E-2,1.826588309E-1,3.123306859E-1
1.347823162E1,-1.798721941E-1,1.557537817E-1,3.262617695E-1,4.038068709E-1
1.348822962E1,-2.424170825E-1,1.061431627E-1,4.245984882E-1,5.003161891E-1
1.349822862E1,-3.149029684E-1,7.487185140E-2,4.473997056E-1,5.522102591E-1
1.350822662E1,-3.682528178E-1,3.006791778E-2,4.226782626E-1,5.614010431E-1
1.351822462E1,-2.808384056E-1,-2.506134901E-2,3.455932492E-1,4.460190301E-1
1.352822362E1,-2.230227453E-1,-4.082220817E-2,2.814276588E-1,3.613960773E-1
1.353822162E1,-1.866505788E-1,4.037453072E-2,3.186299837E-1,3.714749087E-1
1.354822062E1,-2.454456478E-1,-5.174273307E-2,3.193065065E-1,4.060511317E-1
1.355821862E1,-2.591111755E-1,-7.692828974E-2,3.813647604E-1,4.674351757E-1
1.356821662E1,-1.044863816E-1,-1.028450864E-1,3.567783880E-1,3.857270199E-1
1.357821562E1,8.433132157E-2,-5.142699257E-2,2.868106055E-1,3.033427613E-1
1.358821362E1,1.224411343E-1,3.798687503E-2,3.401108998E-1,3.634697487E-1
1.359821262E1,1.357910585E-1,1.075420999E-1,4.147968006E-1,4.495118470E-1
1.360821062E1,2.628055926E-1,1.054517751E-1,4.023229355E-1,4.919863827E-1
1.361820862E1,2.908861148E-1,3.652495234E-2,4.267654663E-1,5.177620759E-1
1.362820762E1,1.224323635E-1,3.014564920E-2,4.977635282E-1,5.134851252E-1
1.363820562E1,-1.521036208E-2,6.904534768E-2,5.058139747E-1,5.107312328E-1
1.364820462E1,-1.280565079E-1,3.196256183E-2,4.953012657E-1,5.125850353E-1
1.365820262E1,-1.895051895E-1,2.747007295E-2,4.752283591E-1,5.123561408E-1
1.366820062E1,-2.020736334E-1,5.452387897E-2,4.512524360E-1,4.974287564E-1
1.367819962E1,-2.297887047E-1,8.802508992E-2,4.310485518E-1,4.963407290E-1
1.368819762E1,-2.507758234E-1,1.218652567E-1,3.837141716E-1,4.743165820E-1
1.369819562E1,-2.364317264E-1,1.306345635E-1,2.925233352E-1,3.981648554E-1
1.370819462E1,-1.849165870E-1,8.890864989E-2,1.661287522E-1,2.640031335E-1
1.371819262E1,-1.180232705E-1,9.706907887E-3,2.287606180E-2,1.206110718E-1
1.372819162E1,-2.991932541E-2,-5.667400980E-2,-1.227131760E-1,1.384399978E-1
1.373818962E1,1.111234099E-2,-1.253033920E-1,-2.189659470E-1,2.525282363E-1
1.374818762E1,3.970829532E-2,-1.500600189E-1,-2.739397144E-1,3.148614380E-1
1.375818662E1,6.224361062E-2,-1.698873059E-1,-2.450667483E-1,3.046205424E-1
1.376818462E1,7.923313424E-2,-1.656850217E-1,-2.539679646E-1,3.134152884E-1
1.377818362E1,1.979690342E-1,-6.596947471E-2,-3.573981929E-1,4.138564707E-1
1.378818162E1,3.180715746E-1,3.009918211E-3,-4.278243971E-1,5.331156543E-1
1.379817962E1,3.293175244E-1,3.059883582E-2,-4.553460717E-1,5.627844753E-1
1.380817862E1,2.897445922E-1,3.895371214E-2,-4.310719407E-1,5.208573110E-1
1.381817662E1,2.090296273E-1,-1.303636730E-3,-4.115147585E-1,4.615620012E-1
1.382817562E1,1.357125597E-1,-5.963978154E-2,-3.783885276E-1,4.063898132E-1
1.383817362E1,1.052525130E-1,-5.714693078E-2,-3.288193417E-1,3.499514575E-1
1.384817162E1,9.370089993E-2,-8.837543864E-2,-3.006100345E-1,3.270419998E-1
1.385817062E1,8.971046761E-2,-8.892943491E-2,-2.491790950E-1,2.793682763E-1
1.386816862E1,9.968026266E-2,-2.773242108E-2,-2.162645334E-1,2.397406731E-1
1.387816762E1,4.579203084E-2,1.573092872E-2,-1.536642426E-1,1.611119849E-1
1.388816562E1,-2.197982982E-2,5.403951938E-2,-8.004721284E-2,9.905018353E-2
1.389816362E1,-5.751949891E-2,9.186027867E-2,-4.240985513E-2,1.163847042E-1
1.390816258E1,-5.771172613E-2,1.323183332E-1,-1.109099865E-2,1.447818873E-1
1.391816058E1,-5.886830539E-2,1.446058001E-1,2.308773100E-2,1.578269879E-1
1.392815958E1,-8.638398662E-2,1.225412953E-1,9.411619842E-2,1.770209620E-1
1.393815758E1,-8.551640600E-2,8.631674364E-2,1.624327272E-1,2.028497641E-1
1.394815558E1,-5.852551237E-2,4.050552662E-2,2.506064004E-1,2.605177560E-1
1.395815458E1,-6.008496478E-2,-3.240901502E-3,3.231878883E-1,3.287417186E-1
1.396815258E1,-6.255351305E-2,-2.554919866E-2,3.792691183E-1,3.852411811E-1
1.397815158E1,-6.140146539E-2,-3.898805539E-2,4.365911275E-1,4.426082026E-1
1.398814958E1,-9.083605662E-2,-2.265177540E-2,4.931202543E-1,5.019281595E-1
1.399814758E1,-9.934740990E-2,1.284141747E-2,5.563801110E-1,5.653261340E-1
1.400814658E1,-1.076818849E-1,3.184963748E-2,6.325500351E-1,6.424401409E-1
1.401814458E1,-1.127138525E-1,4.799286800E-2,7.033662486E-1,7.139550459E-1
1.402814358E1,-1.112926868E-1,5.160277449E-2,7.646368825E-1,7.744149215E-1
1.403814158E1,-1.182286540E-1,2.947681909E-2,8.028607160E-1,8.120543250E-1
1.404813958E1,-7.595752403E-2,-3.063255781E-3,6.382130635E-1,6.427245471E-1
1.405813858E1,3.455017403E-2,1.904672027E-2,1.498536122E-1,1.549599857E-1
1.406813658E1,-2.109309956E-2,2.588936043E-2,1.857023066E-1,1.886810126E-1
1.407813558E1,-5.024322376E-2,-8.331642766E-4,2.245108616E-1,2.300656486E-1
1.408813358E1,-9.721200675E-2,-3.572479743E-2,2.160955489E-1,2.396324720E-1
1.409813158E1,-1.099734087E-1,-4.130251125E-2,2.162335432E-1,2.460833055E-1
1.410813058E1,-7.802626893E-2,4.901611246E-3,2.523541331E-1,2.641869280E-1
1.411812858E1,-7.100010842E-2,4.680495132E-3,3.177154791E-1,3.255857001E-1
1.412812658E1,-6.855436429E-2,4.100122433E-3,4.422880697E-1,4.475882578E-1
1.413812558E1,-7.316971779E-2,-2.050969362E-2,5.699965221E-1,5.750395554E-1
1.414812358E1,-6.815324530E-2,-3.624698119E-3,6.836827666E-1,6.870808748E-1
1.415812258E1,-7.982984260E-2,2.692308420E-2,7.877380621E-1,7.922303395E-1
1.416812058E1,-8.155301705E-2,4.986229593E-2,8.668467969E-1,8.721012054E-1
1.417811858E1,-7.265223920E-2,5.518225718E-2,9.328162533E-1,9.372670867E-1
1.418811758E1,-9.237738267E-2,6.251523206E-2,1.001953146E0,1.008142769E0
1.419811558E1,-1.252109604E-1,7.715295073E-2,1.092806599E0,1.102658888E0
1.420811458E1,-1.911921112E-1,8.076589046E-2,1.171254598E0,1.189501949E0
1.421811258E1,-2.693125203E-1,7.262621909E-2,1.264366245E0,1.294768629E0
1.422811058E1,-3.487489915E-1,5.703783453E-2,1.339005952E0,1.384852380E0
1.423810958E1,-3.973305827E-1,5.060916809E-2,1.413732784E0,1.469378530E0
1.424810758E1,-4.032519118E-1,5.349662368E-2,1.449993122E0,1.505972791E0
1.425810658E1,-4.591021769E-1,3.769802257E-2,1.464500064E0,1.535238219E0
1.426810458E1,-4.759912746E-1,3.063348971E-2,1.456460143E0,1.532573734E0
1.427810258E1,-4.483514862E-1,1.425287138E-2,1.446538002E0,1.514494765E0
1.428810158E1,-4.212388243E-1,-7.826178381E-3,1.413279040E0,1.474741008E0
1.429809958E1,-3.621755143E-1,-1.172010424E-2,1.400692323E0,1.446805947E0
1.430809858E1,-3.342994983E-1,-4.911464718E-2,1.421508411E0,1.461114152E0
1.431809658E1,-3.068389271E-1,-5.891604242E-2,1.440640501E0,1.474132382E0
1.432809458E1,-2.860675706E-1,-2.317366680E-2,1.432570174E0,1.461036952E0
1.433809358E1,-1.869474712E-1,3.059687153E-2,1.478642725E0,1.490727954E0
1.434809158E1,-2.308363795E-1,-2.536723148E-3,1.579951583E0,1.596727552E0
1.435809058E1,-3.582040854E-1,-3.523774263E-2,1.760059859E0,1.796486173E0
1.436808858E1,-3.395694476E-1,1.751129625E-2,1.922001420E0,1.951846181E0
1.437808658E1,-4.314575645E-1,2.880472734E-2,1.930731313E0,1.978562292E0
1.438808558E1,-3.851318291E-1,3.598095115E-2,1.968707224E0,2.006347250E0
1.439808358E1,-4.850260998E-1,-3.831863143E-3,2.093782091E0,2.149229733E0
1.440808258E1,-7.962823060E-1,-1.906893969E-2,2.630285177E0,2.748241119E0
1.441808058E1,-3.500135981E-1,-1.055494145E-1,2.341038036E0,2.369411168E0
1.442807858E1,1.440919121E-1,-2.480792703E-2,2.090631611E0,2.095738162E0
1.443807758E1,-2.138215667E-1,1.244721190E-1,2.104138679E0,2.118634596E0
1.444807558E1,-4.043152280E-1,2.120086192E-1,2.066025358E0,2.115863710E0
1.445807358E1,-5.851153752E-1,1.186560123E-1,1.986421364E0,2.074200831E0
1.446807258E1,-6.763831025E-1,8.195287524E-2,1.991065223E0,2.104412292E0
1.447807058E1,-5.765151443E-1,3.148694566E-2,1.912887365E0,1.998123922E0
1.448806958E1,-5.899850826E-1,-8.975443136E-2,1.819009148E0,1.914401352E0
1.449806758E1,-5.488588375E-1,-5.717996755E-2,1.624088706E0,1.715278315E0
1.450806558E1,-3.417786719E-1,1.441542671E-1,1.308002846E0,1.359582494E0
1.451806458E1,-3.380849858E-1,4.379171664E-2,9.979589134E-1,1.054581038E0
1.452806258E1,-1.677956472E-1,-2.444355413E-3,7.461737144E-1,7.648114579E-1
1.453806158E1,2.490972340E-2,8.368624577E-2,5.404482025E-1,5.474560636E-1
1.454805958E1,-6.341963187E-2,4.021640922E-2,4.021422565E-1,4.090938813E-1
1.455805758E1,-2.061244382E-1,-2.882892019E-2,2.810160148E-1,3.496975711E-1
1.456805658E1,-7.737357348E-2,2.266225470E-3,4.459320545E-2,8.933285859E-2
1.457805458E1,-5.783203259E-2,6.333805407E-2,-2.461402971E-1,2.606555177E-1
1.458805358E1,-7.323009029E-2,8.237238555E-2,-4.920671707E-1,5.042598106E-1
1.459805158E1,1.267628114E-1,9.204540700E-2,-7.041018283E-1,7.213186203E-1
1.460804958E1,3.055200876E-1,5.592717418E-2,-9.250932509E-1,9.758421468E-1
1.461804858E1,3.657217044E-1,-7.088773225E-2,-9.701530641E-1,1.039218169E0
1.462804658E1,4.211449765E-1,-1.100330869E-1,-8.674970073E-1,9.705778840E-1
1.463804558E1,3.317534745E-1,-9.472677564E-2,-6.487795669E-1,7.348118509E-1
1.464804358E1,4.890817286E-1,-3.422706055E-2,-7.480506706E-1,8.944004890E-1
1.465804158E1,3.928022066E-1,-8.332238451E-2,-9.234209472E-1,1.006947088E0
1.466804058E1,1.874542786E-1,-1.544931220E-1,-9.351522160E-1,9.661867823E-1
1.467803858E1,4.009348065E-1,8.596046548E-3,-8.008586293E-1,8.956545960E-1
1.468803758E1,2.514292498E-1,1.536447275E-2,-8.133143681E-1,8.514299713E-1
1.469803558E1,5.850022316E-2,-2.691325357E-2,-8.669830370E-1,8.693711439E-1
1.470803358E1,2.556738898E-2,4.529140868E-2,-8.430591542E-1,8.446619090E-1
1.471803258E1,2.515910715E-2,5.389740463E-2,-7.531558746E-1,7.555009480E-1
1.472803058E1,-2.115054846E-2,3.330522873E-2,-7.981899601E-1,7.991644364E-1
1.473802958E1,1.064267801E-1,5.336367262E-2,-9.507841623E-1,9.582091965E-1
1.474802758E1,3.665306666E-1,1.023718913E-1,-9.474225980E-1,1.020996725E0
1.475802558E1,2.286177997E-1,2.074069519E-2,-1.017628362E0,1.043198811E0
1.476802458E1,3.731004520E-1,2.114482001E-2,-1.018499013E0,1.084892294E0
1.477802258E1,3.784774053E-1,-2.424522389E-2,-9.632229441E-1,1.035196318E0
1.478802058E1,1.893728963E-1,-1.049938468E-1,-9.821293312E-1,1.005715579E0
1.479801958E1,4.674809445E-1,-7.028755210E-3,-8.667906636E-1,9.848420642E-1
1.480801758E1,2.626452327E-1,3.821146293E-3,-7.259014177E-1,7.719650171E-1
1.481801658E1,1.635051066E-1,-2.342697001E-2,-6.524679905E-1,6.730506827E-1
1.482801458E1,2.628029613E-1,-8.745031776E-3,-6.664779192E-1,7.164737880E-1
1.483801258E1,1.481013478E-1,9.160924125E-3,-7.018535739E-1,7.173676679E-1
1.484801158E1,1.149702930E-1,5.374624497E-2,-7.494241816E-1,7.600943567E-1
1.485800958E1,1.159789377E-1,6.397350937E-2,-8.773507351E-1,8.872925314E-1
1.486800858E1,3.751061931E-2,-4.632356102E-3,-9.415736282E-1,9.423318962E-1
1.487800658E1,1.287923799E-1,-3.359656624E-2,-9.600104839E-1,9.691936522E-1
1.488800458E1,9.174880698E-2,-4.979470577E-2,-1.020434441E0,1.025760111E0
1.489800358E1,1.909218237E-1,-6.112693861E-2,-1.105070549E0,1.123106657E0
1.490800133E1,3.928522003E-1,-2.608643901E-3,-2.332511042E0,2.365364119E0
1.491800033E1,4.674192564E-1,-1.023969521E-1,-2.275249259E0,2.325021524E0
1.492799833E1,4.059182422E-1,-1.821716299E-1,-1.906730831E0,1.957952651E0
1.493799633E1,2.993047898E-1,-2.258308888E-1,-2.138356585E0,2.170979464E0
1.494799533E1,4.581663300E-1,-9.902599577E-2,-1.957063664E0,2.012416636E0
1.495799333E1,3.740987179E-1,-1.083866663E-1,-1.697325082E0,1.741439047E0
1.496799233E1,3.049803896E-1,-7.540720054E-2,-1.344245642E0,1.380469352E0
1.497799033E1,5.759880178E-1,-4.675854818E-2,-1.112877751E0,1.253971869E0
1.498798833E1,6.600221546E-1,-2.143946487E-2,-8.893977535E-1,1.107753248E0
1.499798733E1,4.355077846E-1,-1.621627686E-1,-1.029399977E0,1.129437075E0
1.500798533E1,6.404276964E-1,4.692288235E-2,-1.193490390E0,1.355274401E0
1.501798433E1,2.538397644E-1,-5.764965428E-2,-1.232862616E0,1.260042991E0
1.502798233E1,1.313897131E-1,8.471509991E-3,-1.115846382E0,1.123587189E0
1.503798033E1,-5.114588767E-2,1.500715306E-3,-1.246518204E0,1.247567948E0
1.504797933E1,-1.744939251E-1,6.917653545E-2,-1.343020066E0,1.356073899E0
1.505797733E1,-2.455260471E-2,9.271424624E-2,-1.362506497E0,1.365878002E0
1.506797633E1,4.202730104E-2,1.383620884E-1,-1.411831854E0,1.419217934E0
1.507797433E1,2.100701393E-1,5.655200399E-2,-1.380795418E0,1.397828165E0
1.508797233E1,4.593014207E-1,4.109172827E-2,-1.250375612E0,1.332698576E0
1.509797133E1,3.950234176E-1,-1.012131102E-2,-1.212637097E0,1.275395888E0
1.510796933E1,4.276324622E-1,2.238605051E-1,-1.222287342E0,1.314142076E0
1.511796833E1,4.800068499E-1,-1.972032865E-2,-1.301048752E0,1.386911433E0
1.512796633E1,4.900941740E-1,-9.736497539E-2,-1.297068552E0,1.389985276E0
1.513796433E1,5.153658400E-1,-8.071895742E-2,-1.308572364E0,1.408715419E0
1.514796333E1,4.115475029E-1,-2.114602783E-1,-1.296627672E0,1.376709888E0
1.515796133E1,3.947800273E-1,-2.237350092E-1,-1.262359480E0,1.341439556E0
1.516795933E1,2.195689411E-1,-1.753292912E-1,-1.204853284E0,1.237183218E0
1.517795833E1,1.328366067E-1,-1.099440813E-1,-8.726092279E-1,8.894830688E-1
1.518795633E1,5.145842135E-2,-7.787999718E-2,-5.235158354E-1,5.317725952E-1
1.519795533E1,1.223350073E-1,5.480671976E-2,-5.461580086E-1,5.623683854E-1
1.520795333E1,2.471366626E-1,1.158104648E-1,-5.175411505E-1,5.850960914E-1
1.521795133E1,1.780025469E-1,1.381726295E-2,-4.476102054E-1,4.819032262E-1
1.522795033E1,1.973316877E-1,-4.687805065E-2,-3.762665731E-1,4.274504423E-1
1.523794833E1,1.380273262E-1,-6.077932164E-2,-3.384806961E-1,3.705601845E-1
1.524794733E1,2.488414183E-2,-1.486196852E-1,-2.596964818E-1,3.002487203E-1
1.525794533E1,-2.583489910E-2,-5.708300427E-2,-1.989006418E-1,2.085362719E-1
1.526794333E1,-8.315164581E-2,1.028686032E-2,-1.584870261E-1,1.792711721E-1
1.527794233E1,-1.883227363E-2,1.155927383E-1,-1.744429082E-1,2.101110751E-1
1.528794033E1,1.961857796E-2,1.843698906E-1,-1.920845425E-1,2.669711907E-1
1.529793933E1,3.195503354E-3,1.751208928E-1,-2.147296393E-1,2.771035120E-1
1.530793733E1,5.298980713E-2,1.689537431E-1,-2.148518461E-1,2.784144442E-1
1.531793533E1,-4.509811252E-3,8.366068248E-2,-2.478968006E-1,2.616720695E-1
1.532793433E1,1.198942333E-2,2.644616154E-2,-2.856516874E-1,2.871237229E-1
1.533793233E1,5.162652880E-3,-1.261502059E-2,-3.004182458E-1,3.007273086E-1
1.534793133E1,7.825474888E-3,-8.048167010E-2,-3.217845565E-1,3.317888456E-1
1.535792933E1,9.718072414E-2,-6.452834618E-2,-4.127894515E-1,4.289558624E-1
1.536792733E1,1.320254517E-1,-5.929462222E-2,-5.527852428E-1,5.714176203E-1
1.537792633E1,1.937279025E-1,-1.937834876E-2,-6.486924434E-1,6.772797846E-1
1.538792433E1,1.239484003E-1,-1.862233118E-2,-7.285256481E-1,7.392290695E-1
1.539792333E1,5.035125107E-2,-3.819675352E-3,-7.860698515E-1,7.876900722E-1
1.540792133E1,2.130184516E-2,4.284912720E-3,-7.779802287E-1,7.782836021E-1
1.541791933E1,3.293444216E-4,-7.168001169E-3,-7.561391240E-1,7.561731704E-1
1.542791833E1,1.338939294E-1,1.037598467E-2,-7.579693025E-1,7.697744533E-1
1.543791633E1,2.947470313E-1,1.696889391E-2,-7.945325267E-1,8.476117577E-1
1.544791533E1,3.863790402E-1,-8.292521238E-3,-8.679969442E-1,9.501453698E-1
1.545791333E1,4.819637668E-1,5.289628822E-3,-9.582112956E-1,1.072607076E0
1.546791133E1,3.897496676E-1,-1.634692376E-2,-9.931753063E-1,1.067037588E0
1.547791033E1,2.544288714E-1,-6.633961259E-2,-1.007878130E0,1.041610925E0
1.548790833E1,2.301352984E-1,-8.439498313E-2,-1.014469112E0,1.043662947E0
1.549790633E1,5.245317891E-2,-1.497465259E-1,-1.060735790E0,1.072537074E0
1.550790533E1,1.313632545E-1,-8.284384472E-2,-1.100217944E0,1.111125075E0
1.551790333E1,1.380681105E-1,-8.757417823E-2,-1.220245494E0,1.231150318E0
1.552790233E1,2.184857444E-1,-7.305122945E-2,-1.446560222E0,1.464789739E0
1.553790033E1,4.934006283E-1,-8.143572556E-3,-1.661513810E0,1.733245117E0
1.554789833E1,5.185601740E-1,-1.121749037E-2,-1.644496073E0,1.724354320E0
1.555789733E1,4.775450259E-1,-3.575570544E-2,-1.417469155E0,1.496177305E0
1.556789533E1,4.838816535E-1,-5.843351922E-2,-1.400414581E0,1.482807111E0
1.557789433E1,5.225481212E-1,-5.797732676E-2,-1.414661906E0,1.509200523E0
1.558789233E1,5.638297561E-1,-6.825449349E-2,-1.419711562E0,1.529098947E0
1.559789033E1,5.169919507E-1,-4.179323883E-2,-1.394901826E0,1.488213175E0
1.560788933E1,4.533347757E-1,-6.572471391E-2,-1.407379199E0,1.480050123E0
1.561788733E1,4.485673946E-1,-3.447908468E-2,-1.298241504E0,1.373984176E0
1.562788633E1,2.530731945E-1,-4.095732453E-2,-1.180114299E0,1.207639558E0
1.563788433E1,1.889472190E-1,-3.627026042E-2,-1.095650100E0,1.112414367E0
1.564788233E1,2.097060040E-1,-9.227006799E-3,-1.064542328E0,1.085040143E0
1.565788133E1,7.198156357E-2,-2.914407598E-3,-1.013487364E0,1.016044525E0
1.566787933E1,4.473470807E-2,1.003466260E-2,-9.072335154E-1,9.083911823E-1
1.567787833E1,9.517205939E-2,1.044619055E-1,-7.450972420E-1,7.583797931E-1
1.568787633E1,5.947641581E-3,1.256971746E-1,-5.889233744E-1,6.022174815E-1
1.569787433E1,2.456956163E-2,4.636383371E-2,-4.879051226E-1,4.907185315E-1
1.570787333E1,2.449632525E-1,1.436187901E-1,-4.615920675E-1,5.419414994E-1
1.571787133E1,1.903673615E-1,7.511857649E-2,-5.723319000E-1,6.078209741E-1
1.572787033E1,2.817822924E-1,7.771020865E-2,-8.375335354E-1,8.870752841E-1
1.573786833E1,2.712520418E-1,5.842556152E-2,-8.462844783E-1,8.906113825E-1
1.574786633E1,9.177073404E-2,-5.176486113E-2,-7.926064539E-1,7.995789262E-1
1.575786533E1,1.335499670E-1,-3.576082176E-2,-6.961700803E-1,7.097656027E-1
1.576786333E1,-6.705294549E-3,-9.049452441E-2,-5.184872299E-1,5.263679583E-1
1.577786233E1,2.515399083E-2,-6.357031644E-2,-3.824459106E-1,3.885084078E-1
1.578786033E1,1.656767625E-1,5.248625223E-3,-3.337391889E-1,3.726367989E-1
1.579785833E1,1.274909359E-1,-5.283297384E-2,-3.625314635E-1,3.879102008E-1
1.580785733E1,2.457118423E-1,-1.671818540E-2,-2.585007262E-1,3.570384190E-1
1.581785533E1,2.606777908E-1,-2.734144335E-2,-2.620768833E-1,3.706544994E-1
1.582785333E1,1.471729562E-2,-2.509281434E-2,-3.998840618E-1,4.009407824E-1
1.583785233E1,9.291649595E-2,-4.996186305E-2,-4.385581309E-1,4.510686169E-1
