"Time (s)","Linear Acceleration x (m/s^2)","Linear Acceleration y (m/s^2)","Linear Acceleration z (m/s^2)","Absolute acceleration (m/s^2)"
4.302999994E-3,-3.894671375E-2,-1.409242926E-2,-1.367254436E-2,4.361629906E-2
1.430200000E-2,-4.475319989E-2,-6.672180123E-3,-9.926233292E-3,4.632382751E-2
2.429999999E-2,-4.638782557E-2,5.609686221E-3,-2.459221959E-2,5.280223674E-2
3.429899999E-2,-4.021488346E-2,-7.081622262E-3,-2.473839998E-2,4.774279694E-2
4.429699999E-2,-4.094066910E-2,-2.005553399E-2,-2.817714751E-2,5.359397794E-2
5.429599999E-2,-4.695264833E-2,-1.639952129E-2,-2.682644069E-2,5.650799416E-2
6.429399998E-2,-4.651922347E-2,-2.008847939E-2,-2.847360134E-2,5.812341292E-2
7.429299998E-2,-4.610416252E-2,-1.310633746E-2,-3.131242454E-2,5.725240444E-2
8.429099998E-2,-4.877062077E-2,-1.813964810E-2,-2.187794209E-2,5.644700730E-2
9.428900000E-2,-4.076220112E-2,-2.405116485E-2,-5.411013365E-3,4.763711406E-2
1.042880000E-1,-4.230529960E-2,-1.996007819E-2,-1.988053322E-5,4.677759604E-2
1.142860000E-1,-4.477088772E-2,-2.831311811E-2,-1.708205581E-2,5.565843759E-2
1.242850000E-1,-3.147437414E-2,-2.427008826E-2,-2.216854870E-2,4.550953706E-2
1.342830000E-1,-4.385581674E-2,-1.957168603E-2,-2.770586193E-2,5.544365014E-2
1.442820000E-1,-3.845220376E-2,-1.738111348E-2,-2.186449349E-2,4.752611025E-2
1.542800000E-1,-4.914670637E-2,-1.337144473E-2,-4.199470282E-3,5.110606453E-2
1.642790000E-1,-4.131876469E-2,-8.827148611E-3,-3.058093786E-4,4.225224713E-2
1.742770000E-1,-4.678465052E-2,-6.158808293E-3,-1.318079352E-2,4.899456869E-2
1.842760000E-1,-5.004359616E-2,2.568800608E-3,-2.620312750E-2,5.654700827E-2
1.942740000E-1,-5.896812832E-2,-8.724278728E-3,-1.677215338E-2,6.192461809E-2
2.042730000E-1,-5.101757783E-2,2.133658128E-3,-1.737090826E-2,5.393601949E-2
2.142710000E-1,-3.822069056E-2,4.395155576E-3,-1.557288945E-2,4.150486074E-2
2.242700000E-1,-4.524228293E-2,1.932212412E-3,-2.455421269E-2,5.151220215E-2
2.342680000E-1,-4.027224099E-2,1.173662719E-2,-3.008918703E-2,5.162326015E-2
2.442670000E-1,-3.338392859E-2,9.627171052E-3,-6.435445547E-3,3.533530911E-2
2.542650000E-1,-3.838923655E-2,9.262428135E-3,-1.361582637E-2,4.177220111E-2
2.642640000E-1,-3.946139663E-2,-3.022357249E-3,-3.306951284E-2,5.157450094E-2
2.742620000E-1,-4.548041079E-2,-9.163537100E-3,-1.914612293E-2,5.018976192E-2
2.842610000E-1,-4.193336187E-2,-1.101907333E-2,-1.060860336E-2,4.463596397E-2
2.942590000E-1,-4.650466025E-2,-1.391912784E-2,-7.168101668E-3,4.906941233E-2
3.042580000E-1,-5.207469961E-2,-1.897267076E-2,-3.171529770E-2,6.385606223E-2
3.142560000E-1,-4.677207900E-2,-1.997129297E-2,-3.081541121E-2,5.946485925E-2
3.242550000E-1,-5.225320414E-2,-2.170778811E-2,-1.734167218E-2,5.918073167E-2
3.342530000E-1,-4.336737324E-2,-2.085984134E-2,-2.407649517E-2,5.381021893E-2
3.442520000E-1,-5.064545738E-2,-2.459485084E-2,-2.033310771E-2,5.986070756E-2
3.542500000E-1,-4.424430940E-2,-2.288299623E-2,-4.014698267E-3,4.997307508E-2
3.642490000E-1,-4.627809891E-2,-1.794746200E-2,-1.164356053E-2,5.098378500E-2
3.742470000E-1,-3.949690020E-2,-2.509944728E-2,-1.628274143E-2,4.954911752E-2
3.842460000E-1,-3.670238793E-2,-2.326321600E-2,-3.289877415E-2,5.450295257E-2
3.942440000E-1,-4.059350895E-2,-1.556603267E-2,-2.900628269E-2,5.226374247E-2
4.042430000E-1,-4.985617463E-2,-6.202580184E-3,-3.678951144E-2,6.227020396E-2
4.142410000E-1,-3.697008077E-2,-7.193436557E-3,-5.370316744E-2,6.559392193E-2
4.242400000E-1,-4.730711751E-2,-7.811555774E-3,-4.891078949E-2,6.849269376E-2
4.342380000E-1,-4.220644511E-2,4.632858597E-3,-3.034587979E-2,5.218926909E-2
4.442370000E-1,-4.727345947E-2,1.406402458E-2,-3.273739100E-2,5.919724256E-2
4.542350000E-1,-4.624318007E-2,1.043240117E-2,-3.498096764E-2,5.891463990E-2
4.642340000E-1,-4.496786579E-2,1.321327755E-2,-4.261450768E-2,6.334584376E-2
4.742320000E-1,-4.524368992E-2,1.135191694E-2,-7.973497152E-2,9.237707064E-2
4.842310000E-1,-4.110504895E-2,4.596605860E-3,-1.072794503E-1,1.149766685E-1
4.942290000E-1,-4.532277351E-2,1.576697133E-3,-9.694917440E-2,1.070316878E-1
5.042280000E-1,-4.924669376E-2,-8.526309365E-3,-8.647271812E-2,9.987725355E-2
5.142260000E-1,-4.650624996E-2,-1.182728644E-2,-1.149135751E-1,1.245305012E-1
5.242250000E-1,-3.840241106E-2,-2.085987789E-2,-1.244959921E-1,1.319436687E-1
5.342230000E-1,-4.922257399E-2,-1.538366350E-2,-1.250959164E-1,1.353089324E-1
5.442220000E-1,-4.429814033E-2,-2.047567927E-2,-1.158140463E-1,1.256760597E-1
5.542200000E-1,-4.042450614E-2,-1.696500186E-2,-8.677384973E-2,9.721961212E-2
5.642190000E-1,-4.179626293E-2,-3.026867827E-2,-9.006524742E-2,1.038020678E-1
5.742170000E-1,-3.553614249E-2,-2.338343109E-2,-1.388626009E-1,1.452323112E-1
5.842160000E-1,-3.739714678E-3,-1.933066654E-2,2.122170907E-1,2.131284911E-1
5.942140000E-1,-1.118269578E-1,4.389537681E-2,4.484106892E-1,4.642243195E-1
6.042120000E-1,9.042492427E-2,-4.950641977E-2,-5.341302860E-1,5.439877893E-1
6.142110000E-1,9.621099997E-2,3.124240185E-2,2.837080729E-1,3.012024482E-1
6.242090000E-1,-2.613081389E-1,-8.520226891E-3,-2.270567393E-1,3.462792235E-1
6.342080000E-1,-1.722858338E-1,-6.119812389E-3,7.495253384E-2,1.879833582E-1
6.442060000E-1,-6.668820715E-2,-3.015771639E-1,2.830414903E-1,4.189374512E-1
6.542050000E-1,-2.006333362E-1,2.881409933E-1,5.223843992E-2,3.549758051E-1
6.642030000E-1,3.153735962E-1,1.704303112E-1,1.315834022E-1,3.818654054E-1
6.742020000E-1,-1.529547196E-1,-2.435931403E-1,-7.455726206E-2,2.971389398E-1
6.842000000E-1,7.235392157E-2,-8.971980488E-2,-4.253966331E-2,1.228590913E-1
6.941990000E-1,-1.809191380E-1,1.111476484E-1,1.314085704E-1,2.497073219E-1
7.041970000E-1,2.421987986E-2,3.254326572E-2,-1.019450355E-1,1.097199024E-1
7.141960000E-1,8.002060801E-3,7.310117746E-2,4.294721425E-2,8.516030962E-2
7.241940000E-1,-1.163625516E-1,-5.127147033E-2,-5.735475361E-2,1.394939958E-1
7.341930000E-1,2.113366462E-3,-6.925144376E-2,-1.364447773E-2,7.061445003E-2
7.441910000E-1,-5.882428681E-2,2.165999626E-2,-9.643169582E-2,1.150153212E-1
7.541900000E-1,-1.494252305E-2,1.150312046E-1,2.557630599E-2,1.187838560E-1
7.641880000E-1,-1.041890872E-1,-9.159014644E-3,-1.125840443E-1,1.536698424E-1
7.741870000E-1,-3.279783659E-2,-6.433867713E-2,3.307769895E-2,7.943108728E-2
7.841850000E-1,-9.414179826E-2,-5.087655944E-2,-9.475939214E-2,1.429351072E-1
7.941840000E-1,-7.820714889E-2,-3.433341592E-2,3.367353022E-2,9.180984818E-2
8.041820000E-1,-4.970453074E-2,-5.035487360E-3,-5.778686285E-2,7.638859880E-2
8.141810000E-1,-1.040062521E-2,-5.784080341E-2,1.825266838E-2,6.153772377E-2
8.241790000E-1,-4.625514859E-2,-1.486266060E-2,1.077057123E-2,4.976386898E-2
8.341780000E-1,-3.012942318E-2,-5.909349171E-3,-7.641141415E-3,3.163999986E-2
8.441760000E-1,-3.765537445E-2,-2.391222039E-2,-7.335332036E-3,4.520540459E-2
8.541750000E-1,-3.710226439E-2,-2.529475798E-2,-5.538307250E-2,7.129998263E-2
8.641730000E-1,-6.283085380E-2,-4.654677847E-2,-3.487103999E-2,8.561721909E-2
8.741720000E-1,-5.998497739E-2,-1.882428396E-2,-6.575778723E-3,6.321227765E-2
8.841700000E-1,-4.463276552E-2,-6.900913606E-3,8.096054792E-3,4.588303030E-2
8.941690000E-1,-5.063175296E-2,-6.709458407E-3,-1.944725454E-2,5.465150455E-2
9.041670000E-1,-4.215917403E-2,7.743547631E-3,-3.082067370E-2,5.279462484E-2
9.141660000E-1,-4.385746127E-2,-4.538512859E-4,-2.527985215E-2,5.062364877E-2
9.241640000E-1,-4.519579757E-2,1.150630171E-2,-2.737140119E-2,5.407632292E-2
9.341630000E-1,-4.422965482E-2,4.377782950E-4,-4.907451153E-2,6.606634315E-2
9.441610000E-1,-5.259172138E-2,9.623984776E-3,-6.412641406E-3,5.384823312E-2
9.541600000E-1,-4.855113091E-2,9.993503680E-3,-6.558237076E-3,5.000092901E-2
9.641580000E-1,-5.763454288E-2,-3.652054409E-3,-2.586691260E-2,6.327855247E-2
9.741570000E-1,-5.204577416E-2,5.864122328E-3,-3.275142431E-2,6.177221328E-2
9.841550000E-1,-4.650827821E-2,9.688333841E-4,-1.867776096E-2,5.012800949E-2
9.941540000E-1,-5.229080904E-2,4.628258483E-3,-5.353710651E-3,5.276752510E-2
1.004152000E0,-2.642828185E-2,-1.895047418E-2,-3.289351165E-2,4.625535280E-2
1.014151000E0,-2.843981540E-2,-2.532368800E-2,-4.127374113E-2,5.615722554E-2
1.024149000E0,-5.215460546E-2,-1.893350584E-2,-2.450626552E-2,6.065589472E-2
1.034148000E0,-5.513778180E-2,-3.230069763E-2,3.222634435E-2,7.156847993E-2
1.044146000E0,-5.086319307E-2,-1.781202815E-2,9.254329741E-2,1.070915246E-1
1.054145000E0,-4.830125380E-2,-2.359341237E-2,1.375791371E-1,1.477080878E-1
1.064143000E0,-6.905141417E-2,-3.261668254E-2,1.215326232E-1,1.435344010E-1
1.074142000E0,-7.370517656E-2,-5.780709056E-2,1.184979182E-1,1.510492284E-1
1.084140000E0,-7.206470367E-2,-4.390205543E-2,1.358109391E-1,1.598915981E-1
1.094139000E0,-5.860053945E-2,-1.918979889E-2,1.399431664E-1,1.529259998E-1
1.104137000E0,-2.172235133E-2,9.885409676E-2,9.751460016E-2,1.405456874E-1
1.114136000E0,-4.852810750E-2,-2.944185914E-2,1.464066786E-1,1.570245707E-1
1.124134000E0,-8.464120572E-2,-2.395119117E-2,2.331928074E-1,2.492321783E-1
1.134133000E0,-6.009342497E-2,4.166875252E-2,3.182043064E-1,3.264988289E-1
1.144131000E0,-8.512029368E-2,-4.688384305E-3,3.780821335E-1,3.875739220E-1
1.154130000E0,-2.520416725E-2,8.888355254E-2,4.119228941E-1,4.221563770E-1
1.164128125E0,-9.807719367E-2,1.036800231E-1,4.687069595E-2,1.502183253E-1
1.174127125E0,-1.394820586E-1,-8.099862792E-2,-2.508660167E0,2.513840062E0
1.184125125E0,4.226431428E-1,3.175864018E-1,-6.876968801E-2,5.331206418E-1
1.194124125E0,3.927101860E-1,1.515744203E-1,-1.486327136E-1,4.464165976E-1
1.204122125E0,-1.323593825E-1,-4.210385389E-2,2.565115035E-2,1.412434854E-1
1.214120125E0,-5.967318924E-1,-5.276883354E-1,1.078618330E-1,8.038520422E-1
1.224119125E0,8.195859455E-3,-2.212163850E-2,-1.710205328E-1,1.726399770E-1
1.234117125E0,-7.691635776E-2,-4.686241848E-2,-1.005469662E-1,1.349885357E-1
1.244116125E0,-1.079486276E-1,-2.558447016E-1,2.890512586E-2,2.791861813E-1
1.254114125E0,-8.582409745E-2,1.769239092E-2,-7.939349413E-3,8.798766771E-2
1.264113125E0,1.115672501E-2,2.295393026E-2,-1.365909576E-3,2.555819118E-2
1.274111125E0,-4.887376931E-2,8.486143562E-2,-5.630927145E-2,1.129638997E-1
1.284110125E0,1.169512566E-2,1.256494924E-2,4.787875593E-2,5.086284678E-2
1.294108125E0,-1.184115987E-2,7.164456752E-2,-2.246675670E-2,7.601257974E-2
1.304107125E0,-1.062605182E-1,-2.757094199E-2,-7.051449716E-2,1.304750891E-1
1.314105125E0,5.053200312E-3,-9.591633685E-2,1.121846795E-2,9.670228814E-2
1.324104125E0,-9.297803789E-4,1.379975602E-1,-1.408126473E-2,1.387172416E-1
1.334102125E0,-7.375984803E-2,-5.238002019E-2,1.601727784E-2,9.187347216E-2
1.344101125E0,-8.461894976E-2,-1.307183340E-1,-5.568303466E-2,1.653730627E-1
1.354099125E0,-2.988976043E-2,6.304061809E-2,-8.831751466E-2,1.125499920E-1
1.364098125E0,-3.091132382E-2,-5.614843648E-2,4.924758911E-2,8.082995665E-2
1.374096125E0,-1.145770678E-1,-3.989278867E-2,4.043934345E-3,1.213906605E-1
1.384095125E0,-2.987125034E-2,8.193107609E-2,-2.454836547E-2,9.059588883E-2
1.394093125E0,-5.655458042E-2,-4.100668326E-2,-3.278358400E-2,7.716691013E-2
1.404092125E0,-8.428463520E-2,9.485494844E-3,-5.763775885E-2,1.025474797E-1
1.414090125E0,-3.351538131E-2,1.627121602E-2,-4.117667735E-2,5.552973989E-2
1.424089125E0,-3.328249767E-2,-2.975376698E-2,-1.947298229E-2,4.870532148E-2
1.434087125E0,-3.979742881E-2,7.889300901E-3,-1.887948990E-2,4.474943069E-2
1.444086125E0,-2.548574723E-2,-3.583731065E-3,-1.468879044E-2,2.963320781E-2
1.454084125E0,-3.794366045E-2,-6.592922942E-2,1.255981922E-2,7.709820827E-2
1.464083125E0,-6.292179627E-2,-8.616473431E-2,-2.740473032E-2,1.101568569E-1
1.474081125E0,-5.389036970E-2,-1.062646477E-2,-2.306551158E-2,5.957442005E-2
1.484080125E0,-5.760653106E-2,7.073273992E-2,-1.468703628E-2,9.239773781E-2
1.494078125E0,-6.101728505E-2,4.632842608E-2,-9.002957940E-3,7.713938935E-2
1.504077125E0,-5.957273042E-2,-5.329565762E-2,-3.325486958E-2,8.657495990E-2
1.514075125E0,-6.936230332E-2,-7.007302324E-2,-2.696560442E-2,1.022179120E-1
1.524074125E0,-4.598553713E-2,3.884010256E-2,4.619300365E-3,6.037020067E-2
1.534072125E0,-2.974440230E-2,5.589478609E-2,2.677206159E-2,6.874372598E-2
1.544071125E0,-2.270358721E-2,-2.428873083E-2,-1.378773451E-2,3.599301238E-2
1.554069125E0,-3.713126292E-2,-4.904480036E-2,-3.907986581E-2,7.287907135E-2
1.564068125E0,-5.006225243E-2,-3.655824493E-2,-1.197626710E-2,6.313608607E-2
1.574066125E0,-4.964499878E-2,-2.992726027E-3,9.732105732E-3,5.067836022E-2
1.584065125E0,-4.192683857E-2,4.630763649E-2,2.769942999E-2,6.833385260E-2
1.594063125E0,-4.165963909E-2,-1.865988127E-3,7.785216808E-2,8.831742476E-2
1.604062125E0,-4.391799822E-2,1.605596311E-2,1.182804018E-1,1.271881990E-1
1.614060125E0,-4.418254819E-2,6.576188941E-2,1.890884292E-1,2.050150183E-1
1.624059125E0,-6.082090996E-2,1.048537512E-1,2.994166178E-1,3.230229144E-1
1.634057125E0,-2.661943281E-1,-5.954920999E-1,2.768323320E-1,7.085946665E-1
1.644056125E0,-1.512955721E-1,-1.336248113E0,9.352124423E-1,1.638008450E0
1.654054125E0,3.923545657E-2,1.947307822E-2,9.035088390E-1,9.045699774E-1
1.664053125E0,2.945643607E-1,2.318021349E0,1.173010517E0,2.614563981E0
1.674051125E0,-1.126983209E-1,-3.011524368E-1,1.702657158E0,1.732753617E0
1.684050125E0,-4.814462151E-1,-5.351536218E-1,1.964329414E0,2.092073111E0
1.694048125E0,-3.485327176E-1,4.481097404E-1,1.794411666E0,1.882070833E0
1.704047125E0,9.775046222E-3,5.341534556E-1,1.926856948E0,1.999548239E0
1.714045125E0,-2.230148150E-2,-4.649915290E-1,2.183438618E0,2.232513981E0
1.724044125E0,-6.960699102E-2,-2.580786303E-1,2.131963824E0,2.148655268E0
1.734042125E0,-1.507102293E-1,2.261002993E-1,1.964032375E0,1.982740046E0
1.744041125E0,-9.256928097E-3,-3.851656333E-1,2.159721141E0,2.193817145E0
1.754039125E0,-7.782229247E-2,-2.371004651E-1,2.034949161E0,2.050192924E0
1.764038125E0,-1.075314105E-1,3.120186831E-1,1.656887493E0,1.689436245E0
1.774036125E0,-1.423452026E-1,-1.336264193E-1,1.821742136E0,1.832174279E0
1.784035125E0,-1.560459415E-1,-9.752253044E-2,1.740946480E0,1.750644346E0
1.794033125E0,-7.886797562E-2,3.962740640E-1,1.372721583E0,1.430949976E0
1.804032125E0,-3.116306473E-2,4.063944248E-1,1.257304562E0,1.321719459E0
1.814030125E0,-1.190508639E-1,-1.561878095E-1,1.172558527E0,1.188890760E0
1.824029125E0,-4.916439420E-2,1.020790920E-1,9.355609363E-1,9.423967022E-1
1.834027125E0,2.085173747E-2,3.424035565E-1,8.168197739E-1,8.859286278E-1
1.844025125E0,-4.550977478E-2,-1.129257227E-1,9.019604963E-1,9.101407009E-1
1.854024125E0,-4.820649236E-2,-1.770430553E-1,1.051783703E0,1.067668988E0
1.864022125E0,-4.719607523E-2,-1.146762786E-2,1.134705407E0,1.135744398E0
1.874021125E0,-2.846398998E-2,-6.692838153E-2,1.183054864E0,1.185288327E0
1.884019125E0,2.233713124E-2,-1.097236778E-1,1.223936257E0,1.229047677E0
1.894018125E0,-4.671932615E-2,-2.428187405E-2,1.155691064E0,1.156889857E0
1.904016125E0,-2.512508001E-1,-1.728096712E-1,1.119770449E0,1.160549872E0
1.914015125E0,-2.002106556E-1,-6.598496526E-2,1.096118461E0,1.116205180E0
1.924013125E0,-2.317966020E-2,1.453167758E-1,1.100603276E0,1.110397151E0
1.934012125E0,4.338190722E-1,3.245531309E-2,1.463788458E0,1.527065482E0
1.944010125E0,5.781476138E-1,-1.576535969E-1,1.306069171E0,1.436985038E0
1.954009125E0,-8.804820652E-1,-4.765650326E-1,8.119443655E-1,1.289037063E0
1.964007125E0,-6.113274928E-1,4.714341374E-1,4.697711527E-1,9.036904256E-1
1.974006125E0,-4.263017090E-1,6.112628445E-1,6.080905473E-1,9.618469348E-1
1.984004125E0,4.579963222E-2,-8.374431228E-1,1.085072486E0,1.371419298E0
1.994003125E0,-3.375492346E-1,-1.377740686E-1,5.761869693E-1,6.818449995E-1
2.004001125E0,-2.844246492E-1,4.107260422E-1,2.455356950E-1,5.566695970E-1
2.014000125E0,-4.149425059E-1,2.858037333E-1,1.616854531E-1,5.291533265E-1
2.023998125E0,3.255842965E-2,1.142253943E-1,2.589451146E-1,2.848860552E-1
2.033997125E0,5.566158269E-2,5.340197188E-2,1.785166633E-1,1.944689730E-1
2.043995125E0,-3.402757913E-2,1.855177173E-1,-7.601789653E-2,2.033554036E-1
2.053994125E0,2.321517472E-1,2.361350715E-1,-6.142792404E-2,3.367901358E-1
2.063992125E0,2.921692863E-2,9.871792059E-2,-5.615315080E-2,1.172690629E-1
2.073991125E0,1.890961037E-1,-2.030312246E-1,-2.659664512E-2,2.787227944E-1
2.083989125E0,1.147845709E-1,-6.930671091E-1,-1.145639116E-1,7.117881745E-1
2.093988125E0,1.082247989E-1,2.974813721E-1,-2.988149393E-1,4.353138428E-1
2.103986125E0,8.056984428E-2,-3.696406545E-1,-2.267982924E-1,4.410931633E-1
2.113985125E0,1.517898811E-1,-1.262981953E-1,-2.170626783E-1,2.934409795E-1
2.123983125E0,-9.891098835E-2,-1.240611054E-1,-4.113498670E-1,4.408891636E-1
2.133982125E0,-1.090651900E-1,6.201701731E-2,-5.645135880E-1,5.782879188E-1
2.143980125E0,-2.313509345E-2,1.955662305E-1,-7.013811189E-1,7.285031620E-1
2.153979125E0,8.632017888E-2,8.526278302E-2,-7.682165480E-1,7.777387608E-1
2.163976875E0,-1.784790950E-1,1.613007794E-1,-9.834297520E-1,1.012426198E0
2.173975875E0,-4.044855282E-2,-6.581887236E-2,-9.075176901E-1,9.107999600E-1
2.183973875E0,-1.876892271E-1,-1.199670038E-2,-9.961415988E-1,1.013740229E0
2.193972875E0,-8.485391647E-2,-6.940567778E-2,-1.009183813E0,1.015120340E0
2.203970875E0,-1.491404711E-1,-1.303933841E-1,-1.092743449E0,1.110555518E0
2.213969875E0,3.584692201E-2,-9.314052653E-2,-1.080353783E0,1.084953666E0
2.223967875E0,-6.693088487E-2,-3.786057060E-2,-1.216910242E0,1.219337404E0
2.233966875E0,7.031459548E-3,2.638367399E-2,-1.233723326E0,1.234025440E0
2.243964875E0,-5.859520387E-2,-4.663233512E-2,-1.249781535E0,1.252023106E0
2.253963875E0,3.910550220E-2,5.600327478E-2,-1.206707436E0,1.208639087E0
2.263961875E0,-4.659646153E-3,3.347805049E-3,-1.182185968E0,1.182199891E0
2.273960875E0,3.849554624E-2,6.745727132E-2,-1.106000256E0,1.108724022E0
2.283958875E0,-9.980053257E-2,-4.664197114E-1,-1.003451203E0,1.111045368E0
2.293957875E0,8.284764541E-2,8.276890900E-2,-1.105045990E0,1.111234028E0
2.303955875E0,-5.835433513E-2,1.388268233E-1,-1.312173080E0,1.320786246E0
2.313954875E0,-1.566285800E-1,-2.784670856E-1,-1.275149680E0,1.314565759E0
2.323952875E0,1.457539466E-1,8.021002125E-2,-1.230909061E0,1.242101034E0
2.333951875E0,-7.329523193E-2,6.924215674E-2,-1.380359216E0,1.384036933E0
2.343949875E0,-8.539299320E-2,-3.383115380E-2,-1.429522020E0,1.432469796E0
2.353948875E0,-8.558386825E-2,-7.489688023E-2,-1.380035865E0,1.384714097E0
2.363946875E0,3.469774313E-2,5.997045985E-3,-1.368695190E0,1.369148064E0
2.373945875E0,-7.238617262E-2,-5.178773836E-2,-1.416625401E0,1.419418633E0
2.383943875E0,-4.055625122E-2,-4.675817359E-3,-1.495842894E0,1.496399892E0
2.393941875E0,-1.572255990E-2,-6.262965476E-2,-1.530292935E0,1.531654706E0
2.403940875E0,6.338617483E-2,-2.335671206E-2,-1.558588781E0,1.560052028E0
2.413938875E0,-1.272259109E-2,-3.433562689E-2,-1.693751848E0,1.694147610E0
2.423937875E0,2.305032710E-2,1.456278751E-2,-1.795522052E0,1.795729053E0
2.433935875E0,-1.106751842E-2,7.914635791E-2,-1.843707202E0,1.845438399E0
2.443934875E0,4.757537680E-2,2.704395255E-2,-1.707919067E0,1.708795579E0
2.453932875E0,-9.150289502E-3,5.347662438E-3,-1.708644122E0,1.708676991E0
2.463931875E0,7.880584896E-4,-1.820614190E-2,-1.619086998E0,1.619189547E0
2.473929875E0,-7.218405996E-3,-1.667955906E-1,-1.423521608E0,1.433278285E0
2.483928875E0,1.194046752E-1,1.984239110E-1,-1.465509294E0,1.483693707E0
2.493926875E0,-4.588995343E-2,4.514845340E-3,-1.428164297E0,1.428908510E0
2.503925875E0,-1.284890556E-1,-2.545811183E-1,-1.320168563E0,1.350616902E0
2.513923875E0,-5.576440232E-2,-3.478728776E-2,-1.272953466E0,1.274649108E0
2.523922875E0,-3.736063823E-2,7.668950407E-2,-1.183532581E0,1.186602911E0
2.533920875E0,-2.647452967E-2,-1.254343331E-1,-9.748068631E-1,9.832004338E-1
2.543919875E0,-2.814615726E-2,-1.359457174E-1,-8.680220872E-1,8.790539165E-1
2.553917875E0,-7.494292248E-2,-1.298281137E-1,-7.835403460E-1,7.977513739E-1
2.563916875E0,9.899032775E-2,7.643334121E-3,-5.297045285E-1,5.389289313E-1
2.573914875E0,8.520250188E-2,-1.288330364E-1,-4.021913731E-1,4.308309624E-1
2.583913875E0,-9.249790840E-2,-1.365136648E-2,-3.719981056E-1,3.835685251E-1
2.593911875E0,-1.406127091E-1,3.528163787E-2,-2.467554241E-1,2.861904388E-1
2.603910875E0,6.886728169E-2,-1.210634938E-2,-4.664850175E-2,8.405562979E-2
2.613908875E0,-2.416391104E-1,-9.545575898E-2,-1.646517456E-2,2.603312574E-1
2.623907875E0,1.047620047E-2,3.378704386E-2,2.000876266E-1,2.031904856E-1
2.633905875E0,2.520285163E-2,6.918293084E-3,3.614064592E-1,3.623502108E-1
2.643904875E0,-2.872048175E-1,2.271430406E-2,3.740545714E-1,4.721433778E-1
2.653902875E0,-8.405186120E-2,4.077459448E-2,5.841304117E-1,5.915535655E-1
2.663901875E0,-2.026086902E-1,7.760145958E-3,6.208421552E-1,6.531121518E-1
2.673899875E0,-1.113312236E-1,2.784402980E-2,6.892680269E-1,6.987562839E-1
2.683898875E0,-1.310407623E-1,5.858850241E-2,7.127679867E-1,7.270780541E-1
2.693896875E0,-1.322680197E-1,4.106406820E-2,7.820533991E-1,7.942220129E-1
2.703895875E0,-1.303556148E-1,2.869272118E-2,8.848585600E-1,8.948690014E-1
2.713893875E0,-7.933332263E-2,8.101004826E-2,9.954399329E-1,1.001876771E0
2.723892875E0,-6.074496925E-2,4.054698247E-2,1.062163680E0,1.064671636E0
2.733890875E0,-6.900898531E-2,4.111131644E-2,1.096251778E0,1.099190767E0
2.743889875E0,-1.478429740E-1,5.872215697E-2,9.951592666E-1,1.007793532E0
2.753887875E0,-6.157408616E-2,3.872078739E-2,9.762370920E-1,9.789430664E-1
2.763886875E0,-9.429771792E-2,1.237075773E-2,9.418893778E-1,9.466787709E-1
2.773884875E0,-4.877277693E-2,3.414566091E-2,8.835920531E-1,8.855956335E-1
2.783883875E0,-8.356255889E-2,3.768979079E-2,7.992506450E-1,8.044904071E-1
2.793881875E0,-7.484691851E-2,5.766505804E-3,7.240326476E-1,7.279138607E-1
2.803880875E0,-5.926092764E-2,-5.458508288E-3,6.125911492E-1,6.154750758E-1
2.813878875E0,-5.702829625E-2,-4.845257335E-2,5.372334033E-1,5.424201398E-1
2.823877875E0,-3.180539964E-2,-1.981601285E-1,4.521564156E-1,4.946963150E-1
2.833875875E0,-1.258849799E-1,-2.067788330E-2,2.346025711E-1,2.670448827E-1
2.843874875E0,-4.916243903E-2,-7.077879131E-2,1.688360131E-1,1.895578593E-1
2.853872875E0,4.056096554E-2,-7.087529321E-2,1.418481892E-1,1.636747015E-1
2.863871875E0,-4.897956736E-4,-5.509178979E-2,4.871081471E-2,7.353970813E-2
2.873869875E0,-8.619199695E-2,-3.680782054E-2,-8.874143779E-2,1.290694339E-1
2.883867875E0,-7.126697900E-2,2.053611116E-2,-1.555376905E-1,1.723156619E-1
2.893866875E0,8.610554952E-3,-3.029634291E-3,-1.554178226E-1,1.556856446E-1
2.903864875E0,5.997416005E-4,2.284080035E-2,-1.993040997E-1,2.006095362E-1
2.913863875E0,-4.233451741E-2,2.965241829E-2,-2.907925594E-1,2.953502833E-1
2.923861875E0,-6.517290121E-2,4.612601192E-2,-3.713578355E-1,3.798443866E-1
2.933860875E0,-2.811790790E-2,4.635106120E-3,-4.034233814E-1,4.044286410E-1
2.943858875E0,1.898042746E-3,-9.079314354E-3,-4.139343363E-1,4.140382486E-1
2.953857875E0,-2.043534262E-2,-2.708176759E-2,-4.620048809E-1,4.632488914E-1
2.963855875E0,-3.663479777E-2,-1.497750128E-2,-5.440571040E-1,5.454947904E-1
2.973854875E0,-4.759123737E-2,-4.689551921E-2,-6.455647677E-1,6.490130853E-1
2.983852875E0,-4.761296343E-3,-3.116835006E-2,-7.524623948E-1,7.531226936E-1
2.993851875E0,-7.096363641E-3,-7.513493956E-2,-8.292644030E-1,8.326914600E-1
3.003849875E0,-1.072401278E-2,-2.389190131E-2,-9.226754272E-1,9.230470039E-1
3.013848875E0,-8.428395912E-2,-2.676185637E-2,-9.587591797E-1,9.628287217E-1
3.023846875E0,-1.049691606E-1,-5.500712394E-2,-9.828614026E-1,9.899802246E-1
3.033845875E0,1.253847688E-2,3.547248550E-2,-9.434891760E-1,9.442390248E-1
3.043843875E0,-1.344494149E-1,-5.023721209E-2,-9.198284179E-1,9.309590437E-1
3.053842875E0,-1.179236303E-1,2.571052699E-2,-8.957139158E-1,9.038088475E-1
3.063840875E0,-1.540062865E-1,2.797322129E-2,-8.880721897E-1,9.017608616E-1
3.073839875E0,-1.064749465E-1,-4.520930098E-3,-7.763950485E-1,7.836750758E-1
3.083837875E0,-9.243866879E-2,-1.763694744E-2,-6.841797799E-1,6.906214163E-1
3.093836875E0,-9.384989429E-2,-4.844390759E-3,-6.350789559E-1,6.419941986E-1
3.103834875E0,-7.853495842E-2,-6.219575481E-2,-5.570852852E-1,5.660212598E-1
3.113833875E0,-6.485791901E-2,-5.627857814E-2,-5.413586140E-1,5.481267891E-1
3.123831875E0,-4.383670365E-2,-7.047240178E-2,-5.461363739E-1,5.524065123E-1
3.133830875E0,-3.002801053E-2,-5.001287087E-2,-5.461159086E-1,5.492226819E-1
3.143828875E0,-2.297157241E-2,-2.894574573E-2,-4.877203506E-1,4.891182779E-1
3.153827875E0,-2.770003298E-2,-2.122376656E-2,-3.975866908E-1,3.991151673E-1
3.163825750E0,-4.177376943E-2,-1.945615327E-2,-3.094036621E-1,3.128165850E-1
3.173824750E0,-4.333910560E-2,2.782406705E-3,-2.159832823E-1,2.203061463E-1
3.183822750E0,-5.186237259E-2,1.317097203E-2,-9.487165868E-2,1.089211266E-1
3.193821750E0,-4.711799663E-2,2.178063619E-2,9.176620245E-3,5.271349048E-2
3.203819750E0,-3.586256331E-2,-3.225575401E-3,1.229552507E-1,1.281191690E-1
3.213818750E0,-4.640165789E-2,-4.367847252E-3,2.060500324E-1,2.112553142E-1
3.223816750E0,-5.664111922E-2,-2.406681986E-3,2.759727913E-1,2.817356741E-1
3.233815750E0,-6.583990406E-2,-7.165031880E-4,3.038341892E-1,3.108868297E-1
3.243813750E0,-5.503949376E-2,-3.992730095E-3,3.212167919E-1,3.259225600E-1
3.253812750E0,-5.629668167E-2,-1.392639118E-2,2.972888160E-1,3.028925566E-1
3.263810750E0,-5.619371586E-2,-8.515925989E-3,2.447749722E-1,2.512867719E-1
3.273809750E0,-6.257375903E-2,-3.957783845E-3,1.516937310E-1,1.641405720E-1
3.283807750E0,-5.923519989E-2,-2.766788243E-3,4.364069402E-2,7.362726532E-2
3.293806750E0,-4.353368998E-2,-1.766580893E-2,-2.055588663E-2,5.128164821E-2
3.303804750E0,-4.539407300E-2,-1.607861422E-2,-1.025724417E-1,1.133148247E-1
3.313803750E0,-4.086551411E-2,-1.755207145E-2,-1.550979799E-1,1.613488420E-1
3.323801750E0,-5.476757996E-2,-1.451957750E-2,-2.080749232E-1,2.156512917E-1
3.333800750E0,-3.974345170E-2,2.659980627E-3,-2.324619055E-1,2.358498568E-1
3.343798750E0,-1.588257261E-2,-4.114026472E-2,-2.825918394E-1,2.860121068E-1
3.353797750E0,-3.829204487E-2,-2.309073227E-2,-3.056269455E-1,3.088807091E-1
3.363795750E0,-5.119381657E-2,-8.279036097E-3,-3.608468807E-1,3.645542766E-1
3.373794750E0,-4.596890911E-2,-1.150041338E-2,-4.237102962E-1,4.263517505E-1
3.383792750E0,-2.885334145E-2,-2.568911613E-2,-4.711581123E-1,4.727392651E-1
3.393790750E0,-2.976318648E-2,-2.941165462E-2,-5.284912312E-1,5.301451444E-1
3.403789750E0,-4.329799237E-2,2.557887328E-3,-5.648685139E-1,5.665312851E-1
3.413787750E0,-4.183260703E-2,5.920881433E-3,-5.569408590E-1,5.585410855E-1
3.423786750E0,-3.444596568E-2,-2.222867453E-2,-4.921332443E-1,4.938377959E-1
3.433784750E0,-4.174648851E-2,-1.858545261E-2,-4.083210093E-1,4.108700950E-1
3.443783750E0,-5.792271925E-2,2.560006944E-3,-3.465159398E-1,3.513330209E-1
3.453781750E0,-6.030312074E-2,-7.294908590E-3,-2.606156641E-1,2.676008342E-1
3.463780750E0,-5.496477731E-2,-1.645359433E-2,-1.471767569E-1,1.579646963E-1
3.473778750E0,-5.103617929E-2,-1.421954225E-2,-8.014252245E-2,9.607138431E-2
3.483777750E0,-5.530658361E-2,-1.701497271E-2,-6.969354808E-2,9.058431504E-2
3.493775750E0,-8.640770439E-2,-8.644284250E-2,-6.328499973E-2,1.376359240E-1
3.503774750E0,-1.259915088E-1,-8.240486501E-2,-1.100247180E-1,1.864667816E-1
3.513772750E0,-9.292533986E-2,-3.879353497E-4,-1.807158011E-1,2.032079478E-1
3.523771750E0,-1.104442010E-1,-3.214076030E-2,-2.229771370E-1,2.508978948E-1
3.533769750E0,-1.566221480E-1,4.182597867E-2,-3.001235461E-1,3.411070986E-1
3.543768750E0,-1.122267612E-1,2.036606682E-2,-2.825193340E-1,3.046749032E-1
3.553766750E0,-1.368247366E-1,3.704423534E-2,-2.772036302E-1,3.113440806E-1
3.563765750E0,-5.564162906E-2,2.267671286E-2,-2.299762541E-1,2.376958175E-1
3.573763750E0,-1.010013862E-1,-6.582484291E-2,-1.538501841E-1,1.954586123E-1
3.583762750E0,-6.403687857E-2,-7.202382797E-2,-1.423779470E-1,1.719291523E-1
3.593760750E0,-4.687268766E-2,9.772760326E-2,-2.416747785E-1,2.648668190E-1
3.603759750E0,-4.681101780E-2,-7.095665173E-2,-1.805006236E-1,1.995158964E-1
3.613757750E0,-5.649660163E-2,-8.254786598E-2,-2.037444752E-1,2.269753893E-1
3.623756750E0,-3.728425898E-2,1.131641795E-2,-2.386576152E-1,2.418173579E-1
3.633754750E0,-1.758895459E-2,8.820561357E-3,-1.907864606E-1,1.917984546E-1
3.643753750E0,-1.603222478E-2,-4.668443472E-2,-1.125179708E-1,1.228688831E-1
3.653751750E0,2.758899070E-3,-4.540997925E-3,-1.189580941E-1,1.190766994E-1
3.663750750E0,2.126741968E-3,8.325795550E-3,-8.781933188E-2,8.823874974E-2
3.673748750E0,-8.405885959E-2,2.818051879E-3,-8.631952107E-2,1.205192641E-1
3.683747750E0,-9.459758872E-2,-1.620051496E-2,-1.701364338E-2,9.747114721E-2
3.693745750E0,-2.345449761E-2,-9.802126139E-4,6.307566941E-2,6.730240966E-2
3.703744750E0,-6.735235948E-2,2.751451179E-2,6.936844289E-2,1.005254672E-1
3.713742750E0,-5.678538099E-2,6.796794338E-4,9.182935238E-2,1.079706970E-1
3.723741750E0,-5.030363280E-2,-5.402128338E-3,1.335954291E-1,1.428543914E-1
3.733739750E0,-9.956854429E-2,-3.255440055E-2,1.882359052E-1,2.154215402E-1
3.743738750E0,-9.585373510E-2,-2.239921222E-2,2.575470454E-1,2.757175073E-1
3.753736750E0,-9.994263818E-2,-6.366174771E-2,4.054511958E-1,4.224121462E-1
3.763735750E0,-1.181961471E-1,-1.854913592E-2,4.636918026E-1,4.788783639E-1
3.773733750E0,-1.254651498E-1,3.213356548E-2,4.524651486E-1,4.706365695E-1
3.783732750E0,-1.490747631E-1,-5.645798716E-2,4.553051412E-1,4.824039396E-1
3.793730750E0,-4.494818626E-2,1.077282789E-2,5.155039805E-1,5.175719730E-1
3.803729750E0,1.659810187E-1,2.141081351E-3,5.618156826E-1,5.858251822E-1
3.813727750E0,-2.277072786E-1,-1.128849293E-2,3.907606512E-1,4.524068096E-1
3.823726750E0,-2.182018621E-1,6.064045027E-2,3.979597431E-1,4.578878400E-1
3.833724750E0,-1.300708371E-1,6.466604811E-2,4.813585800E-1,5.027983721E-1
3.843723750E0,8.327578951E-2,-5.921918857E-2,5.793052894E-1,5.882485765E-1
3.853721750E0,-1.336455689E-1,-7.769198178E-2,4.386364836E-1,4.650797209E-1
3.863720750E0,-9.531838596E-2,1.739849981E-2,3.958605927E-1,4.075462076E-1
3.873718750E0,-3.604839513E-2,4.203955736E-2,3.825815660E-1,3.865688371E-1
3.883716750E0,-1.389178937E-1,-4.278939424E-2,3.552259523E-1,3.838158290E-1
3.893715750E0,-2.308687219E-2,-8.944821085E-2,4.504770952E-1,4.598517146E-1
3.903713750E0,2.722127393E-2,-1.086885014E-2,4.568248326E-1,4.577641940E-1
3.913712750E0,-1.870145497E-1,-1.037965746E-2,3.374205959E-1,3.859207660E-1
3.923710750E0,-6.805919649E-2,3.778968225E-2,3.091785443E-1,3.188283026E-1
3.933709750E0,-4.697689600E-3,-3.062844649E-2,2.981536192E-1,2.997594880E-1
3.943707750E0,-9.268977016E-2,-2.998708002E-2,1.769501942E-1,2.019950240E-1
3.953706750E0,-5.162303874E-2,1.512054336E-2,1.049926043E-1,1.179704027E-1
3.963704750E0,-1.254212409E-1,2.583714662E-2,2.374554276E-2,1.302378463E-1
3.973703750E0,-5.198450631E-2,-7.743458552E-3,3.994876206E-2,6.601707079E-2
3.983701750E0,-3.950514112E-2,-2.287679270E-2,2.352334857E-2,5.135515307E-2
3.993700750E0,-7.027547395E-2,-5.940131564E-4,-3.212928057E-2,7.727409501E-2
4.003698750E0,-1.028995021E-1,2.053966974E-3,-5.351020932E-2,1.159994345E-1
4.013697750E0,-8.742809834E-2,-1.736056600E-3,-3.718244433E-2,9.502221024E-2
4.023695750E0,-5.463559734E-2,-8.092033004E-2,1.238381803E-2,9.842005517E-2
4.033694750E0,-4.952418068E-2,-7.019422506E-2,-3.466814160E-3,8.597611590E-2
4.043692750E0,-1.084769783E-1,-2.244551486E-2,-1.110807252E-1,1.568756943E-1
4.053691750E0,-1.097794456E-1,-7.309805285E-3,-1.492478406E-1,1.854181164E-1
4.063689750E0,-1.925162863E-2,-2.723733093E-2,-1.255940992E-1,1.299475861E-1
4.073688750E0,-5.558295591E-2,-2.317331962E-2,-1.251386011E-1,1.388745376E-1
4.083686750E0,-8.349394547E-2,3.570131720E-3,-1.142089856E-1,1.415191759E-1
4.093685750E0,-1.136645550E-1,3.044045394E-2,-1.131675965E-1,1.632579468E-1
4.103683750E0,-5.464144455E-2,5.721696946E-3,-5.420485854E-2,7.717896066E-2
4.113682750E0,-5.349846007E-2,8.529351745E-4,-2.114353180E-2,5.753139722E-2
4.123680750E0,-7.345327120E-2,2.573249517E-2,-2.505941212E-2,8.176501999E-2
4.133679750E0,-1.041701386E-1,2.928858443E-2,-6.700324416E-2,1.272740102E-1
4.143677750E0,-6.634442741E-2,4.014798766E-4,-8.081027448E-2,1.045564187E-1
4.153676750E0,-5.102353469E-2,-9.605856123E-3,-1.104831398E-1,1.220745581E-1
4.163675042E0,-3.859553363E-2,-6.066646124E-3,-1.617135197E-1,1.663661079E-1
4.173674042E0,-6.972068282E-2,-7.077565757E-3,-1.907946467E-1,2.032576266E-1
4.183672042E0,-6.553796846E-2,-1.530267043E-2,-2.058062035E-1,2.165308071E-1
4.193671042E0,-5.095353255E-2,-1.940911973E-2,-2.227648830E-1,2.293407280E-1
4.203669042E0,-4.361598954E-2,-1.692106551E-2,-2.290962481E-1,2.338242244E-1
4.213668042E0,-6.113291373E-2,-2.479304404E-2,-2.102793235E-1,2.203844869E-1
4.223666042E0,-6.627921268E-2,-1.414272993E-1,-1.724454993E-1,2.326629864E-1
4.233665042E0,-4.298182245E-2,4.297252173E-2,-2.479324687E-1,2.552735468E-1
4.243663042E0,-5.413668366E-2,-8.192393152E-2,-2.356924921E-1,2.553297122E-1
4.253662042E0,-4.446833085E-2,-7.126062472E-2,-2.337792832E-1,2.484114778E-1
4.263660042E0,-5.853309548E-2,-9.822737575E-3,-2.478839368E-1,2.548902814E-1
4.273659042E0,-4.134991938E-2,-2.675563456E-2,-2.115434915E-1,2.172011248E-1
4.283657042E0,-5.029436862E-2,-1.700154239E-2,-2.290898162E-1,2.351610509E-1
4.293656042E0,-5.383663014E-2,-8.294882965E-3,-2.207394075E-1,2.273611090E-1
4.303654042E0,-7.186604451E-2,-1.033778134E-2,-1.519159251E-1,1.683747202E-1
4.313653042E0,-6.270089943E-2,2.330334708E-3,-6.722719252E-2,9.195829850E-2
4.323651042E0,-6.193261184E-2,6.423207507E-3,2.689368367E-2,6.782459897E-2
4.333650042E0,-6.680012651E-2,1.642280965E-2,9.077743828E-2,1.138969222E-1
4.343648042E0,-7.075008513E-2,1.491020348E-2,1.247263724E-1,1.441685010E-1
4.353646042E0,-1.023667659E-1,1.910784194E-2,1.214022303E-1,1.599455091E-1
4.363645042E0,-6.920324078E-2,-5.548825386E-2,2.011646837E-1,2.198528254E-1
4.373643042E0,-8.223582566E-2,-2.703236318E-2,2.315392148E-1,2.471920057E-1
4.383642042E0,-8.617657492E-2,4.198471687E-2,2.328805661E-1,2.518381953E-1
4.393640042E0,-8.908671588E-2,-2.991207121E-2,2.713464743E-1,2.871586392E-1
4.403639042E0,-1.085850787E-1,1.255368878E-2,2.583165389E-1,2.804919762E-1
4.413637042E0,-7.323171655E-2,-3.710413733E-2,3.228335470E-1,3.331082412E-1
4.423636042E0,-8.002974428E-2,2.565263956E-2,3.120618063E-1,3.231801183E-1
4.433634042E0,-7.717622995E-2,-2.808760288E-2,3.363259971E-1,3.462084058E-1
4.443633042E0,-8.901863236E-2,1.223242083E-3,3.043054748E-1,3.170609329E-1
4.453631042E0,-5.452238062E-2,-4.154176744E-2,4.094027442E-1,4.151012110E-1
4.463630042E0,-5.744341202E-2,-1.205705004E-2,4.959397817E-1,4.994010263E-1
4.473628042E0,-8.315444151E-2,-1.339428085E-2,5.145239872E-1,5.213722291E-1
4.483627042E0,-6.454967938E-2,-4.492246765E-2,4.564751691E-1,4.632000315E-1
4.493625042E0,-5.207795212E-2,-1.540796142E-3,3.470877975E-1,3.509763900E-1
4.503624042E0,-5.523564957E-2,-1.678830174E-2,3.138978320E-1,3.191624555E-1
4.513622042E0,-5.870882258E-2,-4.819777636E-3,2.826555741E-1,2.887284705E-1
4.523621042E0,-7.027794074E-2,1.529718409E-3,2.653343672E-1,2.744879877E-1
4.533619042E0,-4.835554155E-2,-1.120104508E-2,2.592462462E-1,2.639551818E-1
4.543618042E0,-5.207661822E-2,-1.424836719E-2,2.401392996E-1,2.461338525E-1
4.553616042E0,-8.996228160E-2,1.937205386E-3,2.223777974E-1,2.398934131E-1
4.563615042E0,-8.080736915E-2,1.774528995E-2,2.044671911E-1,2.205709828E-1
4.573613042E0,-6.172790447E-2,1.697848700E-3,2.295248491E-1,2.376865020E-1
4.583612042E0,-9.021365706E-2,1.418680241E-2,1.774939853E-1,1.996093287E-1
4.593610042E0,-6.803792724E-2,9.907175023E-3,1.830962026E-1,1.955799864E-1
4.603609042E0,-1.044043195E-1,1.423792443E-3,2.023200935E-1,2.276745690E-1
4.613607042E0,-1.185129017E-1,-2.703348694E-2,2.739385450E-1,2.996972534E-1
4.623606042E0,-9.450028740E-2,-4.034008240E-2,4.721913153E-1,4.832414146E-1
4.633604042E0,-1.252957998E-1,-3.833151357E-2,7.436412853E-1,7.550964863E-1
4.643603042E0,-1.079173998E-1,-4.513908871E-2,1.021677559E0,1.028352438E0
4.653601042E0,-1.559800507E-1,-2.051304664E-2,1.157955106E0,1.168593423E0
4.663600042E0,-1.457457056E-1,-4.270093683E-3,1.228966616E0,1.237585952E0
4.673598042E0,-1.110736903E-1,-1.791486377E-2,1.291295012E0,1.296187145E0
4.683597042E0,-1.330603906E-1,5.760982926E-3,1.323533635E0,1.330217854E0
4.693595042E0,-1.545738867E-1,2.027624354E-2,1.429416186E0,1.437892501E0
4.703594042E0,-1.365741469E-1,2.492232689E-2,1.627050905E0,1.632963033E0
4.713592042E0,-1.182404763E-1,2.144570951E-2,1.825881380E0,1.829831562E0
4.723591042E0,-1.432504064E-1,3.097974995E-2,1.889234793E0,1.894911218E0
4.733589042E0,-1.641209828E-1,3.559311173E-2,1.878637884E0,1.886129069E0
4.743588042E0,-1.458815986E-1,2.913577567E-2,1.887490568E0,1.893343862E0
4.753586042E0,-1.518108580E-1,2.958837757E-2,1.958755848E0,1.964852788E0
4.763585042E0,-1.523774166E-1,3.237971499E-2,2.071773171E0,2.077621572E0
4.773583042E0,-1.764950068E-1,4.327736723E-2,2.268006313E0,2.275274940E0
4.783582042E0,-1.841390170E-1,2.640152627E-2,2.496712552E0,2.503632917E0
4.793580042E0,-1.850215263E-1,2.509580647E-2,2.701910645E0,2.708354463E0
4.803579042E0,-1.796964853E-1,1.286315267E-2,2.735561371E0,2.741487243E0
4.813577042E0,-1.755921967E-1,3.413410352E-2,2.546915576E0,2.553189516E0
4.823576042E0,-1.607562939E-1,4.025861424E-2,2.269344741E0,2.275387636E0
4.833574042E0,-1.124610335E-1,-9.549882738E-3,2.058232774E0,2.061325019E0
4.843573042E0,-1.517999127E-1,1.933092692E-2,1.843668026E0,1.850007753E0
4.853571042E0,-1.187053117E-1,1.979698656E-2,1.719367331E0,1.723573871E0
4.863570042E0,-1.161283707E-1,-6.308597513E-5,1.662570986E0,1.666621759E0
4.873568042E0,-6.049569514E-2,5.539588155E-3,1.658914137E0,1.660026064E0
4.883567042E0,-1.230928430E-1,1.590727252E-2,1.672919388E0,1.677517264E0
4.893565042E0,-1.418982926E-1,1.418758356E-2,1.704586739E0,1.710541541E0
4.903563042E0,-1.051173875E-1,1.022249070E-2,1.710801744E0,1.714058568E0
4.913562042E0,-8.039515872E-2,-3.580653054E-2,1.704303734E0,1.706574553E0
4.923560042E0,-1.064581906E-1,-9.426442534E-2,1.555004438E0,1.561492212E0
4.933559042E0,-1.039027198E-1,1.022572950E-2,1.389097295E0,1.393015303E0
4.943557042E0,-9.343158083E-2,-1.032497959E-1,1.281724874E0,1.289266703E0
4.953556042E0,-3.729889529E-2,-2.708131991E-2,1.171067487E0,1.171974259E0
4.963554042E0,-4.795085941E-2,-2.203822888E-2,1.108613377E0,1.109868725E0
4.973553042E0,-1.128009578E-1,4.473910262E-3,1.036131876E0,1.042263564E0
4.983551042E0,-8.085517013E-2,3.071637399E-2,1.035208016E0,1.038815042E0
4.993550042E0,-9.216173004E-2,1.814094545E-2,1.070505903E0,1.074618893E0
5.003548042E0,-2.904929627E-2,3.210367616E-2,1.049674028E0,1.050566548E0
5.013547042E0,-1.036511799E-1,5.743177241E-2,9.480155057E-1,9.553927855E-1
5.023545042E0,-1.078091167E-1,2.246226622E-2,8.571374953E-1,8.641828770E-1
5.033544042E0,-7.432441497E-2,1.908213703E-2,8.559230286E-1,8.593558503E-1
5.043542042E0,-6.614120012E-2,1.620806152E-2,8.265717602E-1,8.293721929E-1
5.053541042E0,-4.882664440E-2,2.737646725E-2,7.755179662E-1,7.775356120E-1
5.063539042E0,-1.154890507E-1,-6.791247249E-2,6.681835520E-1,6.814830034E-1
5.073538042E0,-1.019800639E-1,-8.782231945E-2,5.921434361E-1,6.072450429E-1
5.083536042E0,-6.427029211E-2,-6.570975326E-2,4.198628283E-1,4.298060454E-1
5.093535042E0,-7.032325666E-2,8.025012949E-2,2.100132751E-1,2.355653189E-1
5.103533042E0,-1.851691867E-1,-4.780938876E-2,-1.075946152E-2,1.915440717E-1
5.113532042E0,-1.473720721E-1,4.984554000E-2,-1.589319992E-1,2.224016319E-1
5.123530042E0,-1.235827483E-1,8.451664176E-2,-2.882425886E-1,3.248069401E-1
5.133529042E0,-1.500317513E-1,6.019816322E-2,-2.759470636E-1,3.198126438E-1
5.143527042E0,-1.886271204E-1,-4.373658379E-2,-2.417911381E-1,3.097677094E-1
5.153526042E0,-2.281763349E-1,-1.110671304E-1,-2.935635549E-1,3.880462705E-1
5.163523875E0,-1.129805769E-1,-8.611225555E-2,-3.927884656E-1,4.176873353E-1
5.173522875E0,-8.451854210E-2,-2.693737334E-2,-4.691104174E-1,4.774239099E-1
5.183520875E0,-6.498920728E-2,1.383737646E-2,-5.065127170E-1,5.108524274E-1
5.193519875E0,-9.061897874E-2,-1.942505339E-2,-5.711589485E-1,5.786291355E-1
5.203517875E0,-3.063825885E-2,-1.446949701E-2,-7.263633478E-1,7.271532041E-1
5.213516875E0,-4.105183929E-2,2.411297631E-2,-8.797732365E-1,8.810605183E-1
5.223514875E0,5.230517127E-4,-2.259142573E-2,-8.713655251E-1,8.716584907E-1
5.233513875E0,-4.539780060E-2,-9.400232390E-2,-8.508377051E-1,8.572177073E-1
5.243511875E0,-3.907374451E-2,-9.282533420E-2,-9.180263060E-1,9.235342975E-1
5.253510875E0,-4.417931395E-2,-1.651622806E-2,-1.116947413E0,1.117942808E0
5.263508875E0,2.430486549E-3,-1.151678558E-2,-1.182339165E0,1.182397752E0
5.273507875E0,-2.253350632E-2,-3.804778657E-2,-1.104482319E0,1.105367172E0
5.283505875E0,-4.491410796E-2,-4.470927268E-4,-1.074385530E0,1.075324019E0
5.293504875E0,-6.899692543E-2,-6.549639842E-3,-1.151315008E0,1.153399203E0
5.303502875E0,2.996977592E-2,-3.346250055E-2,-1.245904831E0,1.246714391E0
5.313501875E0,3.165291522E-2,-1.135512652E-1,-1.274925147E0,1.280363201E0
5.323499875E0,-5.543339510E-2,-8.341235854E-4,-1.323561702E0,1.324722286E0
5.333498875E0,4.206826810E-2,1.731545107E-2,-1.213812972E0,1.214665178E0
5.343496875E0,-5.046640467E-3,-1.124312219E-1,-1.153607701E0,1.159084542E0
5.353495875E0,-1.882573206E-2,-5.133707792E-2,-1.241743367E0,1.242946698E0
5.363493875E0,6.500238178E-2,4.558844267E-2,-1.241561519E0,1.244097513E0
5.373492875E0,-6.883133959E-2,3.072789484E-2,-1.281357084E0,1.283572333E0
5.383490875E0,1.275308066E-1,-2.492196144E-2,-1.191806976E0,1.198869918E0
5.393489875E0,-2.651279239E-2,-3.361013361E-2,-1.380981944E0,1.381645287E0
5.403487875E0,-3.322711358E-2,3.400906904E-2,-1.542914734E0,1.543647154E0
5.413486875E0,3.138946161E-2,-6.333805407E-2,-1.487647437E0,1.489325990E0
5.423484875E0,-5.620473420E-2,-7.406022132E-2,-1.415919642E0,1.418968753E0
5.433482875E0,9.139252882E-3,1.574724154E-2,-1.379828289E0,1.379948408E0
5.443481875E0,-4.670023134E-2,-1.759530430E-2,-1.477559820E0,1.478402357E0
5.453479875E0,2.120792426E-2,-6.325657678E-2,-1.578733608E0,1.580142707E0
5.463478875E0,-2.626960304E-2,-4.759546290E-2,-1.756114157E0,1.756955422E0
5.473476875E0,-4.563532546E-2,9.613475776E-3,-1.854162024E0,1.854748450E0
5.483475875E0,-1.186135104E-2,-3.964352827E-3,-1.880065774E0,1.880107370E0
5.493473875E0,1.880334819E-2,-5.094684937E-2,-1.966600472E0,1.967350138E0
5.503472875E0,2.211998027E-2,-3.613522628E-2,-2.134865212E0,2.135285584E0
5.513470875E0,-1.800686605E-3,-1.263812166E-2,-2.243115885E0,2.243152210E0
5.523469875E0,-1.801192755E-2,-4.420691920E-2,-2.288051738E0,2.288549636E0
5.533467875E0,-8.675093595E-3,-8.171299322E-2,-2.271315252E0,2.272801189E0
5.543466875E0,5.790662114E-3,-1.036138673E-1,-2.331972513E0,2.334280439E0
5.553464875E0,-3.211217746E-4,-4.457529835E-2,-2.428258029E0,2.428667148E0
5.563463875E0,9.746924769E-3,-6.705946423E-2,-2.516011872E0,2.516924256E0
5.573461875E0,2.194606215E-3,-6.829565241E-2,-2.572184318E0,2.573091774E0
5.583460875E0,1.291375849E-2,-1.782807830E-2,-2.639887474E0,2.639979258E0
5.593458875E0,1.492041327E-2,-7.117110750E-2,-2.620321521E0,2.621330353E0
5.603457875E0,2.402114762E-2,-6.823695641E-2,-2.573961872E0,2.574978255E0
5.613455875E0,-3.179746935E-2,-4.787744487E-2,-2.539729933E0,2.540380180E0
5.623454875E0,-9.828584790E-3,-5.551796959E-2,-2.479003674E0,2.479644745E0
5.633452875E0,-4.796726815E-4,-6.691591965E-2,-2.449561189E0,2.450475054E0
5.643451875E0,-1.687521055E-2,-3.678300185E-2,-2.486285797E0,2.486615134E0
5.653449875E0,1.378481090E-3,-3.153472837E-2,-2.502505388E0,2.502704449E0
5.663448875E0,-3.167562800E-2,-2.596314041E-2,-2.445081638E0,2.445424635E0
5.673446875E0,-2.503922096E-2,-1.158669179E-2,-2.331379021E0,2.331542269E0
5.683445875E0,-4.740092877E-2,1.543719293E-2,-2.279944573E0,2.280489511E0
5.693443875E0,-2.209412461E-2,-2.830523808E-2,-2.253809273E0,2.254095290E0
5.703442875E0,-3.592090756E-2,-3.431372724E-2,-2.284104282E0,2.284644418E0
5.713440875E0,-5.487900596E-2,-5.243983082E-2,-2.310956451E0,2.312202707E0
5.723439875E0,-4.561612101E-2,-6.806116993E-2,-2.304726827E0,2.306182755E0
5.733437875E0,-5.829509553E-3,-3.221639494E-2,-2.273347744E0,2.273583481E0
5.743436875E0,-5.747392718E-3,-4.070342290E-2,-2.231637216E0,2.232015785E0
5.753434875E0,-2.389428131E-2,-4.884992820E-2,-2.179297619E0,2.179976001E0
5.763433875E0,-1.231999202E-2,-2.318893808E-2,-2.101958252E0,2.102122262E0
5.773431875E0,-5.819459651E-3,-2.742129439E-2,-1.980156657E0,1.980355064E0
5.783430875E0,1.374543356E-2,-4.475741171E-2,-1.882591771E0,1.883173900E0
5.793428875E0,3.112571564E-2,-3.078221456E-2,-1.891293597E0,1.891800155E0
5.803427875E0,3.832075104E-2,-4.541154612E-2,-1.876938098E0,1.877878407E0
5.813425875E0,1.477701031E-2,-3.455265909E-2,-1.839365644E0,1.839749499E0
5.823424875E0,-4.076770116E-3,-4.439536856E-2,-1.717064112E0,1.717642784E0
5.833422875E0,1.808616892E-3,-6.390874232E-2,-1.463629999E0,1.465025724E0
5.843421875E0,-2.505742041E-2,-6.039423681E-2,-1.206150196E0,1.207921204E0
5.853419875E0,-6.408941215E-2,-4.508923206E-2,-1.023060426E0,1.026057077E0
5.863418875E0,-6.858438609E-2,-5.528365612E-2,-9.817241192E-1,9.856684771E-1
5.873416875E0,-7.460714612E-2,-5.262298114E-2,-1.004009027E0,1.008151542E0
5.883415875E0,-9.909272712E-2,-6.892612844E-2,-9.742051846E-1,9.816546854E-1
5.893413875E0,-1.127191150E-1,-6.980782917E-2,-9.053407717E-1,9.149976201E-1
5.903412875E0,-1.002315455E-1,4.268010613E-4,-7.287063271E-1,7.355674381E-1
5.913410875E0,-1.161582463E-1,2.277449383E-3,-5.458013284E-1,5.580295826E-1
5.923409875E0,-1.195320166E-1,-5.554754828E-2,-4.263655168E-1,4.462745646E-1
5.933407875E0,-9.966100339E-2,-1.255663980E-2,-5.404534650E-1,5.497089526E-1
5.943406875E0,-7.468489582E-2,3.257890861E-2,-6.537958932E-1,6.588537690E-1
5.953404875E0,-8.591692200E-2,-1.330827653E-2,-4.059411925E-1,4.151470577E-1
5.963402875E0,-6.770949645E-2,-5.838825812E-2,3.203572512E-2,9.497395579E-2
5.973401875E0,-2.493342290E-2,7.511493112E-3,3.083558410E-1,3.094534259E-1
5.983400875E0,-5.756806735E-2,6.575733955E-2,1.763327283E-1,1.968027976E-1
5.993398875E0,-7.926668264E-2,-1.246758853E-2,-8.811169267E-3,8.072350614E-2
6.003397875E0,2.359306017E-1,-2.437357027E-2,-5.439957082E-2,2.433446795E-1
6.013395875E0,-6.828950370E-2,-3.261822657E-2,-7.772703767E-3,7.607772304E-2
6.023393875E0,-1.334286190E-1,4.254181948E-2,2.440674591E-1,2.813928346E-1
6.033392875E0,-1.631502719E-1,9.255989802E-2,3.714975840E-1,4.161679960E-1
6.043390875E0,-1.687636538E-1,1.510060344E-2,2.894903845E-1,3.354308897E-1
6.053389875E0,-1.241500196E-1,-5.326429279E-2,1.772478175E-1,2.228611700E-1
6.063387875E0,1.980963573E-1,2.250593305E-2,2.635264081E-1,3.304464428E-1
6.073386875E0,-1.479771493E-1,-2.197358061E-2,2.297511363E-1,2.741635636E-1
6.083384875E0,-1.927514357E-1,-1.178244560E-2,2.270795435E-1,2.980890153E-1
6.093383875E0,-1.481051485E-1,6.164803516E-2,2.523898011E-1,2.990589022E-1
6.103381875E0,-8.557491470E-3,1.561456913E-2,4.190319389E-1,4.194100753E-1
6.113380875E0,-2.942035692E-2,-2.585097894E-1,5.855430990E-1,6.407445587E-1
6.123378875E0,-1.507283008E-1,-5.565297175E-2,4.788688356E-1,5.051055688E-1
6.133377875E0,-5.128918100E-2,6.526341885E-2,4.124625921E-1,4.207318431E-1
6.143375875E0,-2.053235889E-1,-4.266347811E-2,3.758286166E-1,4.303778545E-1
6.153374875E0,-1.255234209E-1,-1.400197832E-1,4.350053626E-1,4.739106819E-1
6.163373042E0,6.577373916E-2,-1.826654638E-2,4.971905011E-1,5.018548056E-1
6.173372042E0,-2.037698741E-1,5.732144276E-4,4.241868442E-1,4.705921472E-1
6.183370042E0,-1.346122964E-1,4.095747985E-2,5.022103357E-1,5.215488537E-1
6.193369042E0,-8.240411583E-2,-2.686891066E-2,5.216950125E-1,5.288459725E-1
6.203367042E0,-8.615015281E-2,-1.485594772E-2,4.075059074E-1,4.167776537E-1
6.213366042E0,-6.296731319E-2,2.747921837E-2,2.711576092E-1,2.797256495E-1
6.223364042E0,-1.662881619E-1,1.912141388E-2,2.849248785E-1,3.304535787E-1
6.233363042E0,-1.515429641E-1,3.532561989E-2,4.549572319E-1,4.808318336E-1
6.243361042E0,-5.476973612E-2,6.793322554E-4,6.085238260E-1,6.109839869E-1
6.253360042E0,-1.204463567E-1,3.949446995E-3,4.835132790E-1,4.983051414E-1
6.263358042E0,-1.173634670E-1,-2.239265238E-2,2.854435265E-1,3.094408200E-1
6.273357042E0,-1.563540166E-1,-2.846694100E-3,1.870600301E-1,2.438157851E-1
6.283355042E0,-8.547136417E-2,-4.598410274E-2,3.147076714E-1,3.293338887E-1
6.293354042E0,-7.619261865E-2,-1.570461625E-2,4.449017751E-1,4.516520116E-1
6.303352042E0,-1.107833760E-1,-4.474979206E-3,4.433721435E-1,4.570249878E-1
6.313351042E0,-1.016395733E-1,-4.583572964E-3,3.286743307E-1,3.440616626E-1
6.323349042E0,-9.165181629E-2,-4.446204510E-3,1.687652618E-1,1.920977297E-1
6.333348042E0,-5.089416504E-2,-1.396039182E-2,1.364389300E-2,5.450930555E-2
6.343346042E0,-7.349601069E-2,4.072969425E-3,-9.223631859E-2,1.180075893E-1
6.353345042E0,-1.088805641E-1,1.452445170E-2,-5.711150944E-2,1.238049331E-1
6.363343042E0,-8.611132365E-2,-1.046677183E-2,1.185698390E-1,1.469133081E-1
6.373342042E0,-9.881737808E-2,1.476569503E-2,2.917035556E-1,3.083405006E-1
6.383340042E0,-5.387048917E-2,1.402716885E-2,4.063130754E-1,4.101086519E-1
6.393339042E0,-1.349004545E-1,-3.163448735E-3,3.411423486E-1,3.668599761E-1
6.403337042E0,-1.136520383E-1,6.695130444E-3,2.201418221E-1,2.478387226E-1
6.413336042E0,-8.497330930E-2,-1.294029937E-1,1.787797880E-1,2.364906144E-1
6.423334042E0,-7.904907485E-2,-3.553230983E-2,1.378668201E-1,1.628452067E-1
6.433333042E0,-8.937187728E-2,-5.822836875E-2,2.771860886E-1,2.970016887E-1
6.443331042E0,-1.286978926E-1,-4.372515888E-2,4.374611932E-1,4.580909655E-1
6.453330042E0,-1.410972606E-1,-2.936114472E-2,5.522344351E-1,5.707305713E-1
6.463328042E0,-1.166291299E-1,-3.477482131E-2,6.090810657E-1,6.211210725E-1
6.473327042E0,-1.070777762E-1,1.867925474E-2,5.856922030E-1,5.956928079E-1
6.483325042E0,-1.127657100E-1,-2.738987474E-2,6.001763409E-1,6.112920340E-1
6.493324042E0,-1.199962307E-1,-4.729455513E-2,6.124262577E-1,6.258608404E-1
6.503322042E0,-4.529026665E-2,-1.866341701E-2,6.357736051E-1,6.376579086E-1
6.513321042E0,-2.425770404E-2,1.074289928E-1,5.468631828E-1,5.578429576E-1
6.523319042E0,-1.078036166E-1,-9.130911464E-2,6.407320440E-1,6.561223410E-1
6.533318042E0,-1.671933840E-1,-6.115987945E-2,6.319132733E-1,6.565124093E-1
6.543316042E0,-1.425197054E-1,8.587110358E-2,5.482437104E-1,5.729370636E-1
6.553315042E0,-4.655757755E-2,3.995227496E-2,7.121674776E-1,7.148050842E-1
6.563313042E0,-5.026944486E-2,-5.085297871E-2,8.895778477E-1,8.924470795E-1
6.573312042E0,-1.134367146E-1,2.492355115E-2,9.131070435E-1,9.204637660E-1
6.583310042E0,-1.701589639E-1,-3.578859603E-2,9.972549087E-1,1.012300474E0
6.593309042E0,-1.533733436E-1,5.526221786E-3,9.761634171E-1,9.881543091E-1
6.603307042E0,-1.118057068E-1,7.307604357E-2,8.610574687E-1,8.713556040E-1
6.613305042E0,-1.271544652E-1,2.895232842E-2,7.772294462E-1,7.880939711E-1
6.623304042E0,-1.366444597E-1,-5.871278315E-2,7.513315433E-1,7.659099081E-1
6.633302042E0,-1.134071313E-1,-4.928959313E-2,8.137517399E-1,8.230932727E-1
6.643301042E0,-1.075014618E-1,8.051160967E-2,8.619427371E-1,8.723439491E-1
6.653300042E0,-5.891663628E-2,-2.263902116E-2,1.102060402E0,1.103866308E0
6.663298042E0,1.488636055E-1,-3.771978061E-2,1.277701405E0,1.286897057E0
6.673296042E0,-9.706725162E-2,-4.474009847E-2,1.178672960E0,1.183509052E0
6.683295042E0,-1.927444739E-1,1.300105103E-2,1.059728315E0,1.077192444E0
6.693293042E0,-1.858089270E-1,6.499195729E-2,9.159166306E-1,9.368309272E-1
6.703292042E0,-1.646355013E-1,-2.091338905E-3,9.095104212E-1,9.242934751E-1
6.713290042E0,8.704157911E-2,-6.441636287E-2,1.114646534E0,1.119894013E0
6.723289042E0,-1.612660432E-1,-4.971900717E-2,1.153921112E0,1.166195802E0
6.733287042E0,-2.866545214E-1,5.879902502E-2,1.204998879E0,1.240020338E0
6.743286042E0,-2.395046940E-2,6.372170908E-2,1.396343749E0,1.398002127E0
6.753284042E0,-2.628248336E-1,-1.248943336E-1,1.373473535E0,1.403960483E0
6.763283042E0,-5.607585791E-2,-4.978958946E-2,1.369625482E0,1.371676881E0
6.773281042E0,-2.601722807E-1,-4.886801802E-2,1.168778887E0,1.198382988E0
6.783280042E0,-1.752327574E-1,7.297174386E-3,1.047561429E0,1.062141570E0
6.793278042E0,-1.259671150E-1,-3.353480960E-2,9.680983526E-1,9.768350514E-1
6.803277042E0,-9.103749320E-2,-3.022169498E-2,8.938743818E-1,8.990064440E-1
6.813275042E0,-1.410656308E-1,-1.508502610E-2,7.864154220E-1,7.991096834E-1
6.823274042E0,-1.596519376E-1,4.103740398E-3,6.952631772E-1,7.133697971E-1
6.833272042E0,-1.103679862E-1,-1.674915737E-2,6.645857602E-1,6.738960301E-1
6.843271042E0,-7.793702580E-2,-1.205157284E-2,6.416886485E-1,6.465166216E-1
6.853269042E0,-9.747940723E-2,1.204987349E-2,5.753859007E-1,5.837091477E-1
6.863268042E0,-1.313301264E-1,1.521795889E-2,4.547362071E-1,4.735654194E-1
6.873266042E0,-7.517739583E-2,-4.963102941E-3,3.354366356E-1,3.437935569E-1
6.883265042E0,-7.976603486E-2,-5.689203786E-3,1.884428966E-1,2.047088485E-1
6.893263042E0,-7.703628050E-2,1.122340611E-2,1.070063853E-1,1.323288323E-1
6.903262042E0,-1.053925538E-1,2.056341948E-2,9.218193948E-2,1.415201561E-1
6.913260042E0,-8.531743621E-2,1.467387090E-2,1.676162839E-1,1.886520767E-1
6.923259042E0,-5.930408740E-2,-6.514478889E-3,1.988901168E-1,2.076455918E-1
6.933257042E0,-7.886170814E-2,-6.165158004E-5,1.220892781E-1,1.453442969E-1
6.943256042E0,-1.037391988E-1,2.383742628E-2,5.609233975E-3,1.065903737E-1
6.953254042E0,-8.676761879E-2,1.187806129E-2,-8.916769981E-2,1.249823456E-1
6.963253042E0,-5.910372891E-2,-1.216337343E-2,-1.322979319E-1,1.454095637E-1
6.973251042E0,-6.486352868E-2,-1.910097603E-2,-1.633045471E-1,1.767498224E-1
6.983250042E0,-8.507870536E-2,-3.356173877E-3,-1.814373475E-1,2.004224565E-1
6.993248042E0,-1.242181031E-1,-9.641356945E-2,-1.281709671E-1,2.028632799E-1
7.003247042E0,-7.429448454E-2,-1.498258927E-1,-1.283376127E-1,2.108032528E-1
7.013245042E0,-4.372803681E-2,-2.441318059E-2,-1.995982146E-1,2.057853053E-1
7.023244042E0,-1.044003727E-1,-1.242982283E-1,-2.219082659E-1,2.749413862E-1
7.033242042E0,-8.337742142E-2,3.289308225E-2,-2.901745087E-1,3.037021481E-1
7.043241042E0,-1.163462891E-1,-6.177839153E-2,-2.515682673E-1,2.839711636E-1
7.053239042E0,-1.233877620E-2,-3.753698660E-2,-2.054752511E-1,2.092399330E-1
7.063238042E0,-1.162932073E-1,-9.021888301E-3,-2.725445688E-1,2.964558087E-1
7.073236042E0,-7.568738267E-2,3.583870393E-2,-2.869328123E-1,2.989037159E-1
7.083235042E0,-1.227480400E-1,1.619691527E-2,-3.049223560E-1,3.291003868E-1
7.093233042E0,-9.610357566E-2,3.369259306E-2,-2.257685977E-1,2.476742776E-1
7.103232042E0,-7.848801624E-2,1.073106598E-2,-1.627823907E-1,1.810348894E-1
7.113230042E0,-1.007586902E-1,2.328804382E-2,-1.658118331E-1,1.954180407E-1
7.123229042E0,-7.760536077E-2,-8.398387819E-3,-1.513323730E-1,1.702780434E-1
7.133227042E0,-1.279308658E-1,-1.130301321E-1,-7.293349028E-2,1.856378496E-1
7.143226042E0,-7.541846557E-2,-1.105994445E-1,-2.600841522E-3,1.338915474E-1
7.153224042E0,-3.899330875E-2,5.793912800E-2,-2.462554872E-2,7.405294275E-2
7.163223250E0,-1.329056403E-1,-9.340031650E-2,4.361496627E-2,1.681957004E-1
7.173221250E0,-8.767777445E-2,-1.274385120E-2,7.862750888E-2,1.184570936E-1
7.183220250E0,-9.907556919E-2,-2.235374555E-2,8.684927881E-2,1.336355326E-1
7.193218250E0,-7.393685421E-2,8.014408476E-3,8.339766741E-2,1.117410403E-1
7.203217250E0,-1.142579560E-1,1.123491324E-2,5.718576908E-2,1.282626835E-1
7.213215250E0,-1.208860490E-1,2.808851194E-2,3.979907334E-2,1.303317597E-1
7.223214250E0,-7.887040587E-2,9.303573347E-3,6.866502285E-2,1.049856312E-1
7.233212250E0,-6.386299700E-2,7.576936246E-3,1.003814900E-1,1.192155018E-1
7.243211250E0,-7.616161013E-2,-1.958668779E-2,1.553073102E-1,1.740821352E-1
7.253209250E0,-9.410903558E-2,-8.532902101E-2,2.506555170E-1,2.810084351E-1
7.263208250E0,-8.387529356E-2,2.434234705E-2,2.528985089E-1,2.675542385E-1
7.273206250E0,-6.964620391E-2,-7.501310277E-2,3.162139142E-1,3.323684684E-1
7.283205250E0,-5.617423732E-2,-3.195883423E-2,3.187662238E-1,3.252519292E-1
7.293203250E0,-1.027563549E-1,-4.947926219E-2,3.241655427E-1,3.436427868E-1
7.303202250E0,-1.215881352E-1,-1.111436467E-2,3.343549007E-1,3.559500012E-1
7.313200250E0,-5.145094788E-2,2.445068500E-2,4.256813926E-1,4.294760575E-1
7.323198250E0,-9.867978578E-2,-1.215542944E-2,4.858755541E-1,4.959440580E-1
7.333197250E0,-1.221016121E-1,-2.141280978E-2,5.914283216E-1,6.042803751E-1
7.343196250E0,-1.208734958E-1,-1.095011730E-2,7.326046658E-1,7.425899968E-1
7.353194250E0,-1.255541736E-1,-1.592109114E-2,8.329212517E-1,8.424815387E-1
7.363192250E0,-9.919635074E-2,-8.043301944E-4,9.467145002E-1,9.518975301E-1
7.373191250E0,-1.371408883E-1,7.870384245E-3,1.052728613E0,1.061653003E0
7.383189250E0,-1.248702870E-1,7.174433107E-3,1.179252419E0,1.185866911E0
7.393188250E0,-1.303282060E-1,-3.458372243E-3,1.321047399E0,1.327465115E0
7.403186250E0,-1.257255702E-1,-1.353781172E-2,1.454162772E0,1.459650492E0
7.413185250E0,-1.278141773E-1,-8.911531242E-3,1.580547999E0,1.585732593E0
7.423183250E0,-1.527715190E-1,5.138496570E-3,1.767409224E0,1.774007020E0
7.433182250E0,-1.315368254E-1,-1.244959007E-3,2.026426844E0,2.030691813E0
7.443180250E0,-1.595136144E-1,-8.549771318E-4,2.251915945E0,2.257558581E0
7.453179250E0,-1.689304639E-1,-1.235905416E-2,2.385801980E0,2.391807128E0
7.463177250E0,-1.933185426E-1,-9.892086466E-3,2.373892956E0,2.381771962E0
7.473176250E0,-1.858591765E-1,-9.184902278E-3,2.378599965E0,2.385867932E0
7.483174250E0,-1.764649119E-1,-3.395322813E-3,2.443332151E0,2.449698633E0
7.493173250E0,-1.947208876E-1,9.525507158E-3,2.484863754E0,2.492499716E0
7.503171250E0,-1.936650266E-1,-2.782073230E-2,2.524595000E0,2.532165091E0
7.513170250E0,-2.119582053E-1,-2.750811640E-2,2.470773134E0,2.480000576E0
7.523168250E0,-2.212310853E-1,1.005711956E-3,2.397935538E0,2.408119401E0
7.533167250E0,-1.657136913E-1,1.297691299E-2,2.417755260E0,2.423462384E0
7.543165250E0,-1.840679733E-1,1.455596728E-2,2.427988472E0,2.434999161E0
7.553164250E0,-1.830501923E-1,5.917097189E-2,2.396750892E0,2.404459069E0
7.563162250E0,-1.904573903E-1,5.851892511E-2,2.359216445E0,2.367614985E0
7.573161250E0,-1.610097159E-1,4.022335279E-2,2.354905878E0,2.360746437E0
7.583159250E0,-1.764532905E-1,5.703448151E-2,2.304026915E0,2.311477606E0
7.593158250E0,-2.056533902E-1,6.896082344E-2,2.254186419E0,2.264598269E0
7.603156250E0,-1.722442089E-1,4.919002601E-2,2.186673882E0,2.193998722E0
7.613155250E0,-1.543067968E-1,3.968404307E-2,2.149244100E0,2.155141669E0
7.623153250E0,-1.657707747E-1,3.147946305E-2,2.115702133E0,2.122419944E0
7.633152250E0,-1.761155042E-1,3.133936285E-2,2.106850618E0,2.114430976E0
7.643150250E0,-1.512126878E-1,-1.501670047E-3,2.064917310E0,2.070447061E0
7.653149250E0,-1.416579720E-1,-2.011013693E-2,1.888559439E0,1.893971529E0
7.663147250E0,-1.533953621E-1,-3.425682196E-2,1.724474874E0,1.731622723E0
7.673146250E0,-1.785090985E-1,-2.556950860E-3,1.577895117E0,1.587962543E0
7.683144250E0,-1.424718861E-1,-5.078982878E-3,1.537445249E0,1.544040779E0
7.693143250E0,-9.942632904E-2,-1.956302941E-2,1.449541717E0,1.453079315E0
7.703141250E0,-1.387050550E-1,9.126302213E-3,1.282603126E0,1.290113623E0
7.713140250E0,-1.471137348E-1,3.005349617E-2,1.120000244E0,1.130020447E0
7.723138250E0,-1.351234161E-1,-8.913385905E-3,1.081486974E0,1.089932044E0
7.733137250E0,-6.306033874E-2,-1.775731328E-2,1.034140899E0,1.036213939E0
7.743135250E0,-1.448613326E-1,-9.977168022E-3,8.326107645E-1,8.451775167E-1
7.753134250E0,-1.089043915E-1,-9.460680722E-3,5.698509264E-1,5.802411131E-1
7.763132250E0,-1.057773737E-1,-4.733762810E-2,4.100798517E-1,4.261398698E-1
7.773131250E0,-4.934929412E-2,-4.134221750E-2,2.953662515E-1,3.023007679E-1
7.783129250E0,-9.539754264E-2,-1.563084084E-2,1.665795726E-1,1.925974255E-1
7.793128250E0,-9.782784646E-2,7.757519279E-3,4.422833920E-2,1.076411289E-1
7.803126250E0,-6.746166587E-2,-4.742773003E-2,-5.462001085E-2,9.891315142E-2
7.813125250E0,-4.658959106E-2,-4.599087729E-2,-1.699341202E-1,1.821080888E-1
7.823123250E0,-6.120114343E-2,-3.409596871E-2,-2.844997859E-1,2.929987086E-1
7.833122250E0,-9.608279977E-2,-3.839457214E-2,-4.716627270E-1,4.828786345E-1
7.843120250E0,-4.294564281E-2,-6.044796267E-2,-6.583719242E-1,6.625344330E-1
7.853119250E0,-3.385077395E-2,-4.896426410E-2,-9.013693428E-1,9.033327550E-1
7.863117250E0,-3.830576755E-2,-1.211774231E-2,-1.066074883E0,1.066831677E0
7.873116250E0,-5.059577432E-2,-5.311373156E-3,-1.130193695E0,1.131338116E0
7.883114250E0,-5.204296019E-2,-3.154783436E-2,-1.190865574E0,1.192419621E0
7.893113250E0,-1.620495519E-2,-5.173050874E-2,-1.322937804E0,1.324047990E0
7.903111250E0,-3.050125128E-2,-3.345635641E-2,-1.517274694E0,1.517949983E0
7.913110250E0,-7.126111351E-2,-1.485223382E-1,-1.643350604E0,1.651586582E0
7.923108250E0,-8.444000669E-3,-8.010918419E-3,-1.756698879E0,1.756737438E0
7.933107250E0,2.185961472E-2,7.386417971E-2,-1.862262756E0,1.863855234E0
7.943105250E0,-1.192811528E-1,-7.732926255E-2,-1.893276388E0,1.898605617E0
7.953104250E0,7.393073291E-4,4.343016228E-2,-1.917552858E0,1.918044757E0
7.963102250E0,-1.153986747E-1,2.868260276E-3,-1.978201348E0,1.981566465E0
7.973101250E0,-3.762423802E-2,-3.022004589E-2,-2.018486910E0,2.019063704E0
7.983099250E0,-4.065881504E-2,-4.733430249E-2,-2.056667474E0,2.057613854E0
7.993098250E0,-1.282802735E-1,-6.272757735E-2,-2.027785737E0,2.032807313E0
8.003096250E0,-7.005329803E-2,-3.154756027E-2,-1.941716477E0,1.943235855E0
8.013095250E0,-1.217521130E-1,-6.712597174E-2,-1.848915902E0,1.854135778E0
8.023093250E0,-1.344715247E-2,-1.049448215E-1,-1.699069891E0,1.702360930E0
8.033092250E0,-4.700154567E-2,-5.363893943E-2,-1.654752674E0,1.656288832E0
8.043090250E0,-1.084681710E-1,-4.087852873E-2,-1.646807477E0,1.650881966E0
8.053089250E0,-2.296000589E-2,-6.266514462E-2,-1.591254836E0,1.592653771E0
8.063087250E0,-6.888257582E-3,-6.800673143E-2,-1.528220097E0,1.529748028E0
8.073086250E0,-3.422139606E-2,-4.189259581E-2,-1.490328970E0,1.491310341E0
8.083084250E0,-3.583023917E-2,-3.211755873E-2,-1.452431996E0,1.453228835E0
8.093083250E0,-2.456599848E-2,-3.293512738E-2,-1.422023551E0,1.422617022E0
8.103081250E0,1.249769256E-3,-2.252967822E-2,-1.339367895E0,1.339557952E0
8.113080250E0,-3.111436838E-2,-3.112232608E-2,-1.314942906E0,1.315679121E0
8.123078250E0,-3.476922534E-2,-3.744352251E-2,-1.272704959E0,1.273730281E0
8.133077250E0,-3.133115390E-2,-3.270700375E-2,-1.168041553E0,1.168919355E0
8.143075250E0,-1.010312070E-1,-8.517279985E-2,-1.034634404E0,1.043038859E0
8.153074250E0,-2.711967856E-2,-4.416464566E-2,-9.157394600E-1,9.172048580E-1
8.163071500E0,1.070535650E-2,3.667232045E-3,-9.050618595E-1,9.051325995E-1
8.173070500E0,-8.743973795E-2,-3.626351785E-2,-1.058745398E0,1.062968752E0
8.183068500E0,-4.109216681E-2,8.129000198E-3,-1.217366910E0,1.218087370E0
8.193067500E0,-3.291357491E-2,1.550756052E-2,-1.353683048E0,1.354171918E0
8.203065500E0,-3.260571901E-2,-3.953939301E-2,-1.370543495E0,1.371501355E0
8.213064500E0,-4.148851667E-2,-4.860877623E-2,-1.375572100E0,1.377055813E0
8.223062500E0,-4.058990926E-2,-1.654333082E-2,-1.380301328E0,1.380997096E0
8.233060500E0,-4.592238721E-2,1.254058736E-3,-1.442361921E0,1.443093327E0
8.243059500E0,-4.164905928E-2,1.437107650E-2,-1.558159010E0,1.558781792E0
8.253057500E0,-2.581969634E-2,-2.751269824E-2,-1.663031162E0,1.663459122E0
8.263056500E0,-3.176421331E-2,-3.358651177E-2,-1.787217252E0,1.787815014E0
8.273054500E0,-5.273090338E-2,-2.143917707E-2,-1.953769927E0,1.954598965E0
8.283053500E0,-4.827649450E-2,-4.063583731E-2,-2.110751295E0,2.111694325E0
8.293051500E0,-4.334758407E-2,-3.750689171E-2,-2.294529283E0,2.295245174E0
8.303050500E0,-2.668400617E-2,-1.514064317E-2,-2.461999387E0,2.462190540E0
8.313048500E0,-1.816620268E-2,-3.137367412E-2,-2.632325855E0,2.632575493E0
8.323047500E0,-5.925970338E-4,-3.081730242E-2,-2.798020159E0,2.798189927E0
8.333045500E0,-1.125419078E-2,-1.297573441E-2,-2.950552965E0,2.950602960E0
8.343044500E0,-2.490497254E-2,-2.199765012E-2,-3.046816261E0,3.046997454E0
8.353042500E0,-4.762136880E-3,-4.400683479E-2,-3.127070466E0,3.127383727E0
8.363041500E0,1.168178670E-2,-7.100088957E-2,-3.230688974E0,3.231490189E0
8.373039500E0,2.553259805E-3,-8.274844375E-2,-3.335061774E0,3.336089156E0
8.383038500E0,1.079633553E-3,-1.029973333E-1,-3.385251934E0,3.386818606E0
8.393036500E0,7.779354975E-3,-1.018068128E-1,-3.365545648E0,3.367094096E0
8.403035500E0,-1.585289799E-2,-8.428655382E-2,-3.291656722E0,3.292773833E0
8.413033500E0,2.259762470E-2,-9.461900415E-2,-3.179598927E0,3.181086724E0
8.423032500E0,2.532122120E-2,-9.929975510E-2,-3.059604122E0,3.061319812E0
8.433030500E0,-7.518112343E-3,-6.103876899E-2,-2.928691396E0,2.929337048E0
8.443029500E0,4.517942537E-3,-5.470565429E-2,-2.753764923E0,2.754311959E0
8.453027500E0,1.785452781E-2,-8.410232998E-2,-2.601440277E0,2.602860638E0
8.463026500E0,1.099585349E-2,-6.508354845E-2,-2.523812057E0,2.524675044E0
8.473024500E0,-7.467990741E-3,-6.922240868E-2,-2.394989126E0,2.396000923E0
8.483023500E0,-1.370311433E-2,-5.533105512E-2,-2.212281178E0,2.213015434E0
8.493021500E0,-2.014115458E-2,-6.223466164E-2,-1.981367615E0,1.982447086E0
8.503020500E0,-1.165797757E-2,-3.486739004E-2,-1.740869882E0,1.741258047E0
8.513018500E0,-1.165565696E-2,-3.974364813E-2,-1.453967475E0,1.454557262E0
8.523017500E0,-6.316122148E-2,-6.577885091E-2,-1.283974882E0,1.287209266E0
8.533015500E0,-2.464959539E-2,-5.685915184E-2,-1.223846210E0,1.225414261E0
8.543014500E0,-8.609221056E-3,-2.996094571E-2,-1.303974699E0,1.304347267E0
8.553012500E0,-4.673229966E-2,-3.348060408E-2,-1.349371896E0,1.350595933E0
8.563011500E0,-5.322722236E-2,-2.262771045E-2,-1.202724313E0,1.204114165E0
8.573009500E0,-7.209742980E-2,1.988395932E-3,-9.161136818E-1,9.189484594E-1
8.583008500E0,3.839025982E-3,-1.110431934E-2,-6.242481583E-1,6.243587168E-1
8.593006500E0,-6.861429825E-2,-9.030531216E-3,-5.200846893E-1,5.246689970E-1
8.603005500E0,-8.282692434E-2,1.709820417E-2,-4.539398164E-1,4.617510204E-1
8.613003500E0,-3.572288794E-2,6.127720749E-2,-4.129373860E-1,4.189848514E-1
8.623002500E0,-8.471606836E-2,2.610135854E-2,-4.620475656E-1,4.704742777E-1
8.633000500E0,-1.164007230E-1,2.480020688E-2,-4.667048728E-1,4.816405474E-1
8.642999500E0,-6.879837591E-2,9.151917586E-2,-3.245222229E-1,3.441273735E-1
8.652997500E0,-1.295436923E-1,8.799571680E-2,-3.909623802E-2,1.614104403E-1
8.662996500E0,-1.253599364E-1,6.896971760E-2,2.681825459E-1,3.039635069E-1
8.672994500E0,-6.748956805E-2,-1.443230781E-2,3.733961749E-1,3.797207352E-1
8.682993500E0,-7.041980881E-2,-1.913885411E-1,3.312055904E-1,3.889545812E-1
8.692991500E0,-7.179735800E-2,9.776116993E-2,-2.368005395E-2,1.235833804E-1
8.702990500E0,-1.451710157E-1,-8.918206204E-2,1.438561231E-1,2.229857577E-1
8.712988500E0,-2.244518048E-1,-1.462870299E-1,4.218649149E-1,4.997484509E-1
8.722987500E0,-2.583056302E-1,-3.986309121E-2,6.425236309E-1,6.936479517E-1
8.732985500E0,-2.658041909E-1,-5.494623524E-2,7.121283013E-1,7.621008294E-1
8.742984500E0,-2.049722626E-1,-5.101321070E-2,5.425204557E-1,5.821893343E-1
8.752982500E0,-1.559443644E-1,-2.840739990E-2,2.251622415E-1,2.753609633E-1
8.762981500E0,-1.153644502E-1,-4.916396479E-2,6.333236217E-2,1.404885757E-1
8.772979500E0,-7.342880426E-2,-1.050776082E-1,2.695946485E-1,2.985202967E-1
8.782978500E0,-6.444918036E-2,-3.691144416E-2,6.034080970E-1,6.079617448E-1
8.792976500E0,6.404418759E-2,2.611546038E-2,8.418967277E-1,8.447329609E-1
8.802975500E0,-9.937109113E-2,-2.020165042E-2,6.813204914E-1,6.888253280E-1
8.812973500E0,-1.214651061E-1,-6.766814110E-2,3.982959580E-1,4.218677749E-1
8.822972500E0,-1.254971450E-1,2.426036726E-2,1.670543665E-1,2.103455732E-1
8.832970500E0,-1.344493784E-1,6.018589321E-2,1.571895289E-1,2.154240588E-1
8.842969500E0,-1.372372942E-1,-5.800616085E-3,3.311307460E-1,3.584902970E-1
8.852967500E0,-1.696301015E-2,-5.445593707E-2,6.098792106E-1,6.125404838E-1
8.862966500E0,3.066970591E-2,-2.575361823E-2,6.605248690E-1,6.617378501E-1
8.872964500E0,-2.002816445E-1,-2.293390812E-2,4.308023840E-1,4.756357801E-1
8.882963500E0,-1.730414950E-1,4.317195289E-2,2.461280179E-1,3.039509462E-1
8.892961500E0,-8.974160403E-3,2.469108322E-2,2.193898702E-1,2.209572363E-1
8.902960500E0,-6.660300225E-2,-3.553416449E-2,2.963860059E-1,3.058484939E-1
8.912958500E0,-1.444702452E-1,-2.792215409E-2,4.795061821E-1,5.015749965E-1
8.922957500E0,-5.446772743E-2,5.465874866E-2,7.079902267E-1,7.121828932E-1
8.932955500E0,-1.691544671E-1,1.215733892E-2,6.218215638E-1,6.445332357E-1
8.942954500E0,-1.063180401E-1,-1.434240230E-2,4.621534002E-1,4.744417725E-1
8.952952500E0,-3.726715587E-2,6.905913432E-3,3.665619493E-1,3.685162075E-1
8.962951500E0,-1.685832489E-1,1.463014013E-2,4.284295839E-1,4.606367996E-1
8.972949500E0,-1.192885166E-1,2.813301473E-2,7.705051482E-1,7.801918995E-1
8.982948500E0,-1.267575672E-1,2.063080408E-3,1.058689265E0,1.066252642E0
8.992946500E0,-1.269406398E-1,-3.721981170E-4,1.076978186E0,1.084433528E0
9.002945500E0,-1.153087189E-1,1.451161067E-2,8.491735876E-1,8.570895340E-1
9.012943500E0,-1.447427803E-1,2.000894356E-3,4.779543310E-1,4.993944519E-1
9.022942500E0,-1.223878150E-1,-4.072690769E-2,3.038675183E-1,3.301104769E-1
9.032940500E0,-1.608916387E-1,-1.567332086E-1,4.155317956E-1,4.723537776E-1
9.042939500E0,-1.225290435E-1,-3.788015877E-2,7.499299657E-1,7.608174725E-1
9.052937500E0,-1.948656427E-1,-1.477627484E-1,1.061577204E0,1.089381756E0
9.062936500E0,-1.109946432E-1,-2.698610166E-2,1.071304632E0,1.077377221E0
9.072934500E0,-1.712744665E-1,-4.176961242E-2,8.264109617E-1,8.450057521E-1
9.082933500E0,-1.174253562E-1,-2.184698839E-2,5.699871665E-1,5.823670451E-1
9.092931500E0,-1.424012627E-1,2.141191443E-2,4.123497409E-1,4.367709909E-1
9.102930500E0,-1.120409659E-1,8.516455893E-3,5.440541804E-1,5.555363708E-1
9.112928500E0,-1.582683768E-1,8.951278604E-3,7.178112102E-1,7.351067527E-1
9.122927500E0,-1.603527082E-1,5.232311948E-2,8.262963563E-1,8.433364502E-1
9.132925500E0,-1.565352803E-1,5.428732712E-2,8.510973215E-1,8.670738484E-1
9.142924500E0,-1.183379421E-1,5.215795391E-2,8.330820501E-1,8.430599165E-1
9.152922500E0,-1.460774072E-1,2.810504403E-2,8.352665699E-1,8.484095386E-1
9.162921500E0,-1.596621885E-1,4.465385204E-2,8.747218269E-1,8.902944768E-1
9.172920000E0,-1.283244017E-1,2.203894608E-2,9.250955898E-1,9.342134218E-1
9.182919000E0,-1.240927717E-1,9.902565773E-3,8.537776852E-1,8.628055473E-1
9.192917000E0,-1.108065639E-1,-1.466417732E-4,7.698853433E-1,7.778184608E-1
9.202916000E0,-1.337758522E-1,-1.178632395E-2,7.337495506E-1,7.459378654E-1
9.212914000E0,-1.238636157E-1,-1.090411616E-2,7.962603790E-1,8.059104703E-1
9.222913000E0,-9.830616698E-2,-1.418223153E-1,9.541346169E-1,9.696136028E-1
9.232911000E0,-1.119471912E-1,-2.903073136E-2,9.814902306E-1,9.882803396E-1
9.242910000E0,-1.150624963E-1,-5.242291044E-2,1.003913718E0,1.011844994E0
9.252908000E0,-1.148256110E-1,-2.046238599E-2,9.487961090E-1,9.559381186E-1
9.262907000E0,-1.621423581E-1,-1.588827821E-2,8.754158914E-1,8.904468342E-1
9.272905000E0,-1.236149080E-1,-4.989967700E-2,8.767361927E-1,8.868128184E-1
9.282904000E0,-1.028097838E-1,6.004263185E-2,8.205701780E-1,8.291624608E-1
9.292902000E0,-1.949820389E-1,2.862856169E-2,8.343011945E-1,8.572607965E-1
9.302901000E0,-8.929345150E-2,-4.595804152E-2,9.112119609E-1,9.167293492E-1
9.312899000E0,-1.562878517E-1,-9.165086612E-2,9.016178495E-1,9.196415173E-1
9.322898000E0,-8.411404269E-2,-2.278600554E-2,8.288644534E-1,8.334330545E-1
9.332896000E0,-1.613062977E-1,8.130365157E-2,7.177831435E-1,7.401639322E-1
9.342895000E0,-1.989977787E-1,-1.517477812E-1,9.457514638E-1,9.783012502E-1
9.352893000E0,-1.871599809E-1,-2.898297605E-2,1.068787406E0,1.085437880E0
9.362892000E0,-1.154909511E-1,3.297889471E-2,1.150810978E0,1.157061655E0
9.372890000E0,-9.684883984E-2,-1.620694233E-2,1.152924746E0,1.157098887E0
9.382889000E0,-1.178086594E-1,-2.289824467E-4,9.845500785E-1,9.915733910E-1
9.392887000E0,-1.551752362E-1,1.700104446E-2,8.288907659E-1,8.434620864E-1
9.402886000E0,-1.854899796E-1,-2.424688669E-2,8.260566205E-1,8.469734260E-1
9.412884000E0,-1.297167151E-1,-2.734255797E-2,9.416280073E-1,9.509139529E-1
9.422883000E0,-8.502218837E-2,6.099602037E-2,1.013651671E0,1.019038271E0
9.432881000E0,-2.603931410E-2,1.123163332E-2,1.084794159E0,1.085164763E0
9.442880000E0,-1.508571406E-1,-6.469443908E-2,1.048161353E0,1.060936129E0
9.452878000E0,-1.460497609E-1,-1.201534295E-3,9.567465681E-1,9.678305492E-1
9.462877000E0,-7.283543978E-2,5.922013418E-2,8.264156395E-1,8.317300252E-1
9.472875000E0,-1.462947957E-1,-2.159415113E-2,6.900948232E-1,7.057615317E-1
9.482874000E0,-8.960494364E-2,-2.937150069E-2,6.395497370E-1,6.464639178E-1
9.492872000E0,-5.385174153E-2,1.428122581E-2,5.881135350E-1,5.907465561E-1
9.502871000E0,-1.664948427E-1,-6.028296612E-4,4.537497818E-1,4.833319362E-1
9.512869000E0,-9.486330813E-2,5.127866515E-3,4.006670040E-1,4.117758982E-1
9.522868000E0,-6.080546966E-2,-1.686164775E-2,3.552212745E-1,3.607821700E-1
9.532866000E0,-1.349801411E-1,-9.255429748E-3,2.581276739E-1,2.914364382E-1
9.542865000E0,-1.156856999E-1,1.261209242E-2,1.891726291E-1,2.221002693E-1
9.552863000E0,-9.580233442E-2,-1.525470955E-2,1.205157924E-1,1.547089191E-1
9.562861000E0,-9.950568672E-2,-2.729342309E-2,3.060608089E-2,1.076245549E-1
9.572860000E0,-1.595391595E-1,-1.059657088E-1,-3.820102930E-2,1.952966807E-1
9.582859000E0,-1.487732295E-1,-1.041761137E-1,-8.665164292E-2,2.012328097E-1
9.592857000E0,-1.821094667E-1,-7.231461732E-2,-1.364541328E-1,2.387739351E-1
9.602855000E0,-1.105737533E-1,-8.652928993E-2,-1.328200883E-1,1.932745425E-1
9.612854000E0,-1.543854967E-1,7.006937787E-3,-2.139168763E-1,2.639022712E-1
9.622853000E0,-1.278123501E-1,1.071436944E-2,-2.370981628E-1,2.695669366E-1
9.632851000E0,-1.156352494E-1,-1.526007255E-2,-2.526511717E-1,2.782750353E-1
9.642849000E0,-9.267401922E-2,-7.529400210E-3,-2.524968052E-1,2.690721136E-1
9.652848000E0,-1.208187147E-1,5.093016196E-5,-2.721112901E-1,2.977275913E-1
9.662846000E0,-9.644759294E-2,-1.032052749E-2,-2.176310277E-1,2.382685789E-1
9.672845000E0,-8.759859949E-2,-1.875145872E-2,-1.685418981E-1,1.908703834E-1
9.682844000E0,-8.586974228E-2,-4.395324597E-4,-1.191615772E-1,1.468784781E-1
9.692842000E0,-8.835133715E-2,-1.564983972E-2,-1.193270534E-1,1.492977627E-1
9.702841000E0,-1.085966818E-1,-2.623233617E-2,-1.554219157E-1,1.914088468E-1
9.712839000E0,-9.123078022E-2,-2.812593869E-2,-1.767034417E-1,2.008437950E-1
9.722837000E0,-9.081109632E-2,-2.836432236E-2,-2.074235433E-1,2.282010437E-1
9.732836000E0,-8.856439507E-2,-1.780856778E-2,-1.818571776E-1,2.030586866E-1
9.742834000E0,-9.904048590E-2,-1.164106633E-2,-1.803959584E-1,2.061243171E-1
9.752833000E0,-8.936332572E-2,-2.434136947E-2,-1.371715862E-1,1.655123872E-1
9.762831000E0,-1.011213638E-1,-2.341589685E-2,-1.235902584E-1,1.613951251E-1
9.772830000E0,-8.292705791E-2,-2.740717427E-2,-1.347052306E-1,1.605414254E-1
9.782828000E0,-8.883053474E-2,-1.762934606E-2,-1.426732314E-1,1.689890786E-1
9.792827000E0,-1.007999131E-1,-1.308159186E-2,-1.516954851E-1,1.826013985E-1
9.802825000E0,-9.764104620E-2,-1.450055578E-2,-1.494940084E-1,1.791437930E-1
9.812824000E0,-8.401029116E-2,-2.154703993E-2,-1.327680480E-1,1.585854928E-1
9.822822000E0,-8.556205083E-2,-2.316706584E-2,-1.157456338E-1,1.457896747E-1
9.832821000E0,-1.016266728E-1,-1.386114904E-2,-1.147416669E-1,1.539017940E-1
9.842819000E0,-9.181480743E-2,-1.555419663E-2,-7.826381207E-2,1.216433976E-1
9.852818000E0,-7.807370447E-2,-2.631303689E-2,-1.229610980E-2,8.330110177E-2
9.862816000E0,-8.963540398E-2,-1.377306622E-2,5.352424264E-2,1.053045467E-1
9.872815000E0,-1.020145625E-1,-1.174029083E-2,1.117122245E-1,1.517380193E-1
9.882813000E0,-1.007485124E-1,-3.323941557E-2,2.097179908E-1,2.350250139E-1
9.892812000E0,-8.612608787E-2,-1.225382529E-1,3.656644017E-1,3.951503272E-1
9.902810000E0,-9.053234858E-2,-2.347309906E-2,4.560530001E-1,4.655442314E-1
9.912809000E0,-9.226462277E-2,-2.937004802E-2,5.521356171E-1,5.605614151E-1
9.922807000E0,-1.427108180E-1,-1.397872833E-3,5.889391619E-1,6.059848744E-1
9.932806000E0,-1.723822397E-1,-4.420133694E-2,6.166181266E-1,6.417844723E-1
9.942804000E0,-7.362775577E-2,1.264382727E-2,6.799270999E-1,6.840188404E-1
9.952803000E0,-1.776387952E-1,5.471474945E-2,6.381504983E-1,6.646693192E-1
9.962801000E0,-1.550696575E-1,-4.979667464E-2,7.694228286E-1,7.864717392E-1
9.972800000E0,-1.976539241E-1,-5.395508193E-2,8.607300246E-1,8.847792944E-1
9.982798000E0,-1.613515040E-1,4.605998407E-2,9.694069594E-1,9.838219773E-1
9.992797000E0,-1.623238776E-1,-1.818475845E-2,1.198743528E0,1.209820554E0
1.000279500E1,-1.968204217E-1,1.685207294E-2,1.435566872E0,1.449094377E0
1.001279400E1,-1.777498741E-1,7.506952384E-3,1.701587702E0,1.710862963E0
1.002279200E1,-1.633760658E-1,4.513388561E-2,1.884833009E0,1.892438712E0
1.003279100E1,-1.581450188E-1,2.767849878E-2,2.014490923E0,2.020878429E0
1.004278900E1,-1.590225031E-1,-1.553545356E-2,2.077699909E0,2.083834546E0
1.005278800E1,-1.607187439E-1,-5.086853779E-3,2.075949252E0,2.082167546E0
1.006278600E1,-1.532391866E-1,6.929133274E-4,2.083038417E0,2.088667463E0
1.007278500E1,-1.242903893E-1,-5.154836797E-3,2.090433390E0,2.094131427E0
1.008278300E1,-1.653734930E-1,2.500570910E-3,2.054119842E0,2.060767568E0
1.009278200E1,-1.515369890E-1,-7.237039427E-3,2.022753038E0,2.028434295E0
1.010278000E1,-1.480123605E-1,2.143246648E-3,1.987046431E0,1.992552577E0
1.011277900E1,-1.308717229E-1,1.527233343E-3,1.958529561E0,1.962897802E0
1.012277700E1,-1.586707018E-1,-5.621942533E-3,1.944684523E0,1.951155015E0
1.013277600E1,-1.770480437E-1,-1.011083172E-2,1.986225482E0,1.994126351E0
1.014277400E1,-1.592887159E-1,-1.578676050E-2,2.097967528E0,2.104065081E0
1.015277300E1,-1.862549599E-1,-1.503492277E-2,2.251627677E0,2.259368088E0
1.016277100E1,-1.917818029E-1,-1.440285703E-2,2.339420112E0,2.347312114E0
1.017277000E1,-2.060012447E-1,-1.863461947E-3,2.382599460E0,2.391489112E0
1.018276800E1,-1.795442201E-1,-1.481826059E-2,2.334320755E0,2.341262287E0
1.019276700E1,-2.061931795E-1,-1.736188619E-2,2.208501538E0,2.218174048E0
1.020276500E1,-1.996331152E-1,-5.946695977E-3,2.096147289E0,2.105640568E0
1.021276400E1,-1.937185652E-1,-1.679968554E-2,2.072709310E0,2.081810029E0
1.022276200E1,-2.118072557E-1,1.999053396E-3,2.079355840E0,2.090116509E0
1.023276100E1,-2.279392486E-1,3.669815783E-2,2.057701262E0,2.070612841E0
1.024275900E1,-1.987827108E-1,6.795624895E-3,2.044868377E0,2.054518783E0
1.025275800E1,-1.993825803E-1,3.493543245E-2,1.987417729E0,1.997699459E0
1.026275600E1,-2.137067603E-1,5.027884152E-2,1.940580363E0,1.952959468E0
1.027275500E1,-1.968701048E-1,5.738397142E-2,1.972017918E0,1.982651110E0
1.028275300E1,-1.521357622E-1,3.449085677E-2,1.962133784E0,1.968325150E0
1.029275200E1,-1.899256774E-1,3.126230294E-2,1.871407802E0,1.881280483E0
1.030275000E1,-1.789431629E-1,3.346213510E-2,1.746541681E0,1.756003477E0
1.031274900E1,-1.631911659E-1,3.560401588E-2,1.588882036E0,1.597637357E0
1.032274700E1,-1.424701320E-1,1.232521797E-2,1.449482076E0,1.456519117E0
1.033274600E1,-1.509035711E-1,3.764442005E-3,1.319651084E0,1.328256392E0
1.034274400E1,-1.678585596E-1,1.674050989E-2,1.259570358E0,1.270816363E0
1.035274300E1,-1.524099783E-1,-1.619454440E-2,1.238696968E0,1.248143118E0
1.036274100E1,-1.374690450E-1,-4.516571639E-2,1.202406809E0,1.211082084E0
1.037274000E1,-1.301245949E-1,-5.444575469E-2,1.038131039E0,1.047670179E0
1.038273800E1,-1.427454993E-1,-3.089894417E-2,8.024484873E-1,8.156314101E-1
1.039273700E1,-1.446305868E-1,-3.466891819E-3,6.055294669E-1,6.225720530E-1
1.040273500E1,-8.528328482E-2,-9.756960967E-3,5.732686239E-1,5.796596865E-1
1.041273400E1,-8.539651981E-2,-3.798100040E-2,5.525373209E-1,5.603861284E-1
1.042273200E1,-1.031007194E-1,-3.875454592E-2,3.897543454E-1,4.050186699E-1
1.043273100E1,-1.260113528E-1,-3.499384522E-2,1.272757584E-1,1.824898598E-1
1.044272900E1,-7.342948034E-2,-5.633111172E-2,-5.436741114E-2,1.073354467E-1
1.045272800E1,-4.072596665E-2,-7.566316697E-2,-1.786710298E-1,1.982595675E-1
1.046272600E1,-5.137283273E-2,-6.333287381E-2,-3.537132776E-1,3.629921536E-1
1.047272500E1,-8.630930671E-2,-6.640682817E-3,-5.408832353E-1,5.477664369E-1
1.048272300E1,-6.204644982E-2,-1.636305385E-2,-6.713211679E-1,6.743809176E-1
1.049272200E1,-3.847197466E-2,-4.296236676E-2,-7.459199452E-1,7.481459901E-1
1.050272000E1,-2.642122865E-2,-1.613122088E-2,-8.317389446E-1,8.323148260E-1
1.051271900E1,-8.247797348E-2,-4.805785432E-3,-9.135227805E-1,9.172511010E-1
1.052271700E1,-6.763870860E-2,-1.089723197E-2,-9.360304677E-1,9.385343793E-1
1.053271600E1,-5.351300502E-2,-2.752766803E-2,-9.971531671E-1,9.989673933E-1
1.054271400E1,-5.923596734E-2,-9.317345367E-2,-1.078924139E0,1.084558662E0
1.055271300E1,-5.887705794E-2,-1.694611901E-1,-1.172201262E0,1.185849654E0
1.056271100E1,4.764896035E-3,1.012125986E-1,-1.279100643E0,1.283107614E0
1.057271000E1,-1.099444833E-1,5.377611145E-5,-1.296040612E0,1.300695606E0
1.058270800E1,-1.027567204E-1,-1.210555817E-1,-1.277490320E0,1.287320829E0
1.059270700E1,-2.155079037E-2,8.117559755E-2,-1.360130773E0,1.362721407E0
1.060270500E1,-1.774721313E-1,-4.840785129E-2,-1.455045117E0,1.466627413E0
1.061270400E1,-8.046252960E-2,1.775455870E-2,-1.555190964E0,1.557372267E0
1.062270200E1,-2.058883751E-1,-3.192783942E-2,-1.669704005E0,1.682652927E0
1.063270100E1,-1.482074383E-1,-7.729036029E-2,-1.571207072E0,1.580073070E0
1.064269900E1,-8.267354457E-2,7.204432064E-3,-1.500546395E0,1.502839413E0
1.065269800E1,-1.958957759E-1,-7.671430905E-2,-1.543351521E0,1.557624524E0
1.066269600E1,-6.622344486E-2,-7.522766818E-2,-1.611744649E0,1.614857752E0
1.067269500E1,-1.042173731E-1,-6.239350491E-2,-1.730434940E0,1.734692853E0
1.068269300E1,-8.020804781E-2,-5.459849949E-2,-1.758121507E0,1.760796853E0
1.069269200E1,-4.003358323E-2,-2.954476557E-2,-1.717848809E0,1.718569205E0
1.070269000E1,-4.806681700E-2,-5.663261791E-2,-1.745232489E0,1.746812558E0
1.071268900E1,3.723086659E-3,-3.525102678E-2,-1.856437175E0,1.856775560E0
1.072268700E1,-2.478713287E-2,-1.637658924E-3,-2.035605218E0,2.035756785E0
1.073268600E1,-1.324396173E-2,-2.670217822E-2,-2.111780405E0,2.111990741E0
1.074268400E1,3.596786801E-3,-4.420172980E-2,-2.141546826E0,2.142005961E0
1.075268300E1,-3.493497564E-2,-1.061040503E-1,-2.201096624E0,2.203929416E0
1.076268100E1,-1.019162379E-2,-1.545525078E-1,-2.360026284E0,2.365103467E0
1.077268000E1,9.525558321E-2,9.685879838E-2,-2.580471577E0,2.584045049E0
1.078267800E1,-4.815785084E-2,-7.497206263E-2,-2.748077336E0,2.749521601E0
1.079267700E1,-2.374031682E-2,-1.019734950E-1,-2.856851919E0,2.858769855E0
1.080267500E1,6.113494199E-2,1.954539640E-2,-2.879551980E0,2.880267194E0
1.081267400E1,7.817964870E-3,-3.751267497E-2,-2.826062236E0,2.826322006E0
1.082267200E1,-7.038403116E-3,-1.135032084E-1,-2.706697760E0,2.709085691E0
1.083267100E1,1.301977582E-2,-7.622625841E-2,-2.634777008E0,2.635911576E0
1.084267000E1,-9.733403083E-3,-5.776730665E-2,-2.666144981E0,2.666788492E0
1.085266800E1,-2.080090323E-2,-8.092333588E-2,-2.712780034E0,2.714066465E0
1.086266600E1,1.849689927E-2,-6.949397987E-2,-2.727828428E0,2.728776188E0
1.087266500E1,-3.212602805E-2,-9.791001812E-2,-2.705907801E0,2.707869178E0
1.088266300E1,-1.542743996E-2,-4.333849347E-2,-2.620221534E0,2.620625329E0
1.089266200E1,-2.674136370E-2,-3.293918846E-2,-2.538729474E0,2.539083975E0
1.090266000E1,-1.188620171E-2,-6.544714933E-2,-2.450203214E0,2.451105954E0
1.091265900E1,-5.865619764E-2,-4.671778669E-2,-2.433845628E0,2.435000542E0
1.092265700E1,-4.097792683E-2,-5.151633619E-2,-2.406716301E0,2.407616348E0
1.093265600E1,-6.361227935E-2,-3.321872191E-2,-2.430346069E0,2.431405360E0
1.094265500E1,-3.131377671E-2,-3.165479729E-2,-2.396656167E0,2.397069745E0
1.095265300E1,-4.671731617E-2,6.980981631E-3,-2.374508668E0,2.374978454E0
1.096265100E1,-3.927591199E-2,-7.893046774E-3,-2.327978280E0,2.328322952E0
1.097265000E1,-1.618827235E-2,-2.683575969E-2,-2.332047358E0,2.332257939E0
1.098264900E1,-4.288737165E-2,-3.513901148E-2,-2.453780540E0,2.454406856E0
1.099264700E1,-2.589141609E-2,-6.219291800E-2,-2.593028473E0,2.593903426E0
1.100264600E1,-1.026750969E-2,-6.526721040E-2,-2.756832957E0,2.757624554E0
1.101264400E1,-2.214938080E-2,-4.002909275E-2,-2.892501808E0,2.892863570E0
1.102264300E1,6.575705633E-3,-3.534527202E-2,-2.920546809E0,2.920768082E0
1.103264100E1,1.146662744E-2,-4.013822555E-2,-2.859974917E0,2.860279547E0
1.104264000E1,4.908792358E-3,-3.804805609E-2,-2.816765748E0,2.817026984E0
1.105263800E1,-9.222831521E-3,-4.802703766E-2,-2.753342754E0,2.753777038E0
1.106263700E1,7.813287098E-3,-3.457793460E-2,-2.738568594E0,2.738798025E0
1.107263500E1,-1.880932331E-2,-4.418764166E-2,-2.729191999E0,2.729614497E0
1.108263400E1,-2.840314239E-2,-5.101097688E-2,-2.633150897E0,2.633798114E0
1.109263200E1,-1.144409738E-3,-9.161645891E-2,-2.466758435E0,2.468459451E0
1.110263100E1,-3.982191402E-2,-1.306489349E-1,-2.317578422E0,2.321599594E0
1.111262900E1,-5.003595823E-2,-5.597524926E-2,-2.280220562E0,2.281456253E0
1.112262800E1,-3.935336933E-2,-5.326356646E-2,-2.211722184E0,2.212713428E0
1.113262600E1,-1.508095589E-2,-6.468951463E-2,-2.126007265E0,2.127044678E0
1.114262500E1,-4.691233909E-2,-1.009287711E-1,-1.937006544E0,1.940201468E0
1.115262300E1,-5.697413642E-2,-1.116027171E-1,-1.646959505E0,1.651719356E0
1.116262100E1,-4.822715862E-2,-5.428785246E-2,-1.422324098E0,1.424176558E0
1.117261962E1,-4.748600576E-2,-2.793916126E-2,-1.317434989E0,1.318586542E0
1.118261862E1,-3.316626599E-2,-8.660203295E-2,-1.249656404E0,1.253092591E0
1.119261662E1,-4.210879661E-2,-7.455949588E-2,-1.299527891E0,1.302345964E0
1.120261562E1,-4.992983127E-2,-1.123689582E-2,-1.243570037E0,1.244622712E0
1.121261362E1,-1.640233343E-1,-6.927351700E-3,-1.017431896E0,1.030591726E0
1.122261262E1,-1.857112419E-1,-9.999908209E-3,-5.465702373E-1,5.773453800E-1
1.123261062E1,-1.852358267E-1,-2.395257074E-3,-1.448770469E-1,2.351752697E-1
1.124260962E1,4.737605983E-2,7.669797339E-2,1.426282078E-1,1.687301865E-1
1.125260762E1,-1.195824671E-1,-1.747295679E-1,1.375212497E-1,2.524727361E-1
1.126260662E1,-1.797482514E-1,-2.362253197E-2,-1.442151421E-1,2.316580780E-1
1.127260462E1,-1.713927812E-1,8.985231740E-2,-8.960097849E-2,2.132539794E-1
1.128260362E1,-2.152633074E-1,-3.251698751E-2,2.272789335E-1,3.147242596E-1
1.129260162E1,-1.783541655E-1,8.768579610E-2,4.556846255E-1,4.971393015E-1
1.130260063E1,-1.484238218E-1,-1.341292616E-1,7.779568398E-1,8.032665400E-1
1.131259862E1,-1.774868773E-1,6.209764036E-2,6.929272145E-1,7.179873489E-1
1.132259762E1,-1.142405240E-1,1.022396986E-1,5.896437514E-1,6.092483950E-1
1.133259562E1,-3.922427377E-2,-1.060462908E-2,5.211120450E-1,5.226937586E-1
1.134259462E1,-5.710147781E-2,-2.281163279E-2,4.317829621E-1,4.361392848E-1
1.135259262E1,-9.898287255E-2,-3.916185474E-2,5.087714964E-1,5.197881256E-1
1.136259162E1,-1.538696443E-1,2.465978234E-2,5.996769887E-1,6.195937888E-1
1.137258962E1,-1.663744449E-1,1.891067657E-2,6.967162102E-1,7.165553344E-1
1.138258862E1,-1.482274101E-1,-5.982979777E-2,8.188996285E-1,8.343545837E-1
1.139258662E1,-1.516359166E-1,-3.946814377E-2,7.717815953E-1,7.875265180E-1
1.140258562E1,-1.436875406E-1,-3.367071625E-2,7.303505641E-1,7.451119198E-1
1.141258362E1,-1.080584091E-1,-4.884319476E-2,6.806925005E-1,6.909446849E-1
1.142258262E1,-6.511791911E-2,-6.006832763E-2,6.660715377E-1,6.719373786E-1
1.143258062E1,-9.831046103E-2,-7.052891420E-2,7.506953663E-1,7.603833293E-1
1.144257962E1,-1.790820891E-1,-9.212968913E-3,7.624120170E-1,7.832160347E-1
1.145257762E1,-2.279748253E-1,-2.460008592E-2,7.610893768E-1,7.948803210E-1
1.146257662E1,-1.949181946E-1,-3.609522767E-2,6.537748432E-1,6.831672662E-1
1.147257462E1,-9.782927172E-2,2.783073653E-2,5.874954844E-1,5.962349037E-1
1.148257362E1,2.523964889E-1,-2.334145448E-2,6.486462504E-1,6.964127865E-1
1.149257162E1,-2.705909958E-1,-9.643286526E-2,6.133916330E-1,6.773242059E-1
1.150257062E1,-2.367182034E-1,-5.655034119E-4,7.998049611E-1,8.341005955E-1
1.151256862E1,-2.544041669E-1,1.060050496E-1,9.311053580E-1,9.710384845E-1
1.152256762E1,-8.271928076E-2,-7.893060478E-3,1.105092768E0,1.108212437E0
1.153256562E1,9.169351425E-2,-1.551803343E-1,1.036457566E0,1.052013747E0
1.154256462E1,-2.704327738E-1,-3.626095969E-2,6.798031390E-1,7.325169282E-1
1.155256263E1,-1.489618022E-1,1.447867075E-1,6.395789731E-1,6.724686401E-1
1.156256162E1,-1.821795054E-1,2.897468488E-2,7.407954454E-1,7.634178388E-1
1.157255962E1,-1.738484473E-1,-1.251966530E-1,9.265924770E-1,9.510368568E-1
1.158255862E1,5.376152996E-2,-1.749363584E-3,1.024242148E0,1.025653616E0
1.159255662E1,-2.906924624E-1,2.713493157E-2,8.506388998E-1,8.993469575E-1
1.160255562E1,-1.841045550E-1,7.263746585E-2,8.069549364E-1,8.308712042E-1
1.161255362E1,-9.399161618E-2,-6.645022547E-3,8.484362537E-1,8.536525387E-1
1.162255262E1,-1.178699090E-1,-1.509164076E-2,8.423136342E-1,8.506546487E-1
1.163255062E1,-1.412734079E-1,2.549631790E-2,7.734638393E-1,7.866730888E-1
1.164254962E1,-2.513347807E-1,4.244560537E-2,6.779478174E-1,7.242817439E-1
1.165254762E1,-1.357298455E-1,-1.470763401E-2,7.363006908E-1,7.488508614E-1
1.166254662E1,-1.264120698E-1,-2.989501835E-2,8.206982321E-1,8.309147439E-1
1.167254462E1,-2.158980043E-1,-4.289024044E-4,8.200556231E-1,8.479996210E-1
1.168254362E1,-2.373130479E-1,-4.669412831E-3,8.764309680E-1,9.080035946E-1
1.169254163E1,-1.559201715E-1,-3.630342510E-2,9.119954878E-1,9.259399594E-1
1.170254062E1,-1.620928213E-1,-4.762983813E-2,8.772033852E-1,8.933243886E-1
1.171253862E1,-1.682505241E-1,-3.165107426E-2,8.416610849E-1,8.588966243E-1
1.172253762E1,-2.021529545E-1,4.035666017E-3,8.195843375E-1,8.441567330E-1
1.173253562E1,-1.595690534E-1,-2.601942443E-2,9.654507333E-1,9.788944844E-1
1.174253462E1,-1.137696587E-1,-3.216754785E-2,1.121204771E0,1.127421139E0
1.175253262E1,-1.605190614E-1,-9.747121199E-3,1.133412588E0,1.144764373E0
1.176253162E1,-1.659728874E-1,4.117262084E-4,1.057151447E0,1.070101094E0
1.177252962E1,-1.656674617E-1,-2.133202228E-2,9.575341880E-1,9.719940763E-1
1.178252862E1,-1.329404861E-1,-4.332739747E-2,9.480318779E-1,9.582874713E-1
1.179252662E1,-1.190684238E-1,-7.094255446E-2,1.067274731E0,1.076236725E0
1.180252562E1,-1.853802530E-1,-2.430210176E-2,1.166758674E0,1.181643869E0
1.181252362E1,-1.796143501E-1,-4.191520809E-2,1.271487569E0,1.284795251E0
1.182252262E1,-1.654331163E-1,-5.186676714E-3,1.272036037E0,1.282759018E0
1.183252063E1,-1.437863950E-1,-5.648286981E-2,1.218705922E0,1.228457963E0
1.184251962E1,-1.476830892E-1,-1.309755750E-2,1.079165629E0,1.089302665E0
1.185251762E1,-1.502176562E-1,1.592042419E-2,9.789952236E-1,9.905808660E-1
1.186251662E1,-1.286215864E-1,3.108260156E-2,9.578686488E-1,9.669653504E-1
1.187251462E1,-1.597592523E-1,2.599580716E-3,9.744706482E-1,9.874830736E-1
1.188251362E1,-1.610691200E-1,-5.809473703E-3,1.001251481E0,1.014140788E0
1.189251162E1,-1.350908362E-1,1.114248156E-2,1.038220502E0,1.047031756E0
1.190251062E1,-8.953139663E-2,1.331875127E-2,1.062181222E0,1.066031054E0
1.191250862E1,-1.063990423E-1,1.964032229E-2,1.007415031E0,1.013208538E0
1.192250762E1,-1.489600480E-1,-1.144110069E-2,9.510063565E-1,9.626697693E-1
1.193250562E1,-1.652416565E-1,-1.236553635E-2,8.806807244E-1,8.961340580E-1
1.194250462E1,-1.366650894E-1,-4.000989287E-3,8.741277498E-1,8.847557163E-1
1.195250262E1,-1.265213397E-1,1.915901422E-2,8.822436851E-1,8.914755393E-1
1.196250162E1,-1.541493788E-1,-3.127173157E-2,8.915588844E-1,9.053271213E-1
1.197249963E1,-1.770261532E-1,-4.179199173E-2,8.606037247E-1,8.796155981E-1
1.198249862E1,-1.831475485E-1,-3.396370743E-2,8.383270025E-1,8.587716350E-1
1.199249662E1,-1.492019400E-1,6.381463869E-3,8.202322090E-1,8.337162698E-1
1.200249562E1,-1.492773325E-1,-4.140862451E-2,8.416528988E-1,8.557908613E-1
1.201249362E1,-1.833448920E-1,-6.579819240E-2,8.781921494E-1,8.995366601E-1
1.202249262E1,-1.712557371E-1,5.717179058E-3,8.367365599E-1,8.541014484E-1
1.203249062E1,-1.801300197E-1,-1.905454549E-2,8.347876829E-1,8.542133078E-1
1.204248962E1,-1.793022916E-1,-6.065344662E-2,8.168197739E-1,8.384644867E-1
1.205248762E1,-1.534934308E-1,-3.669086252E-2,7.226597214E-1,7.396915070E-1
1.206248662E1,-1.367639621E-1,1.976869151E-2,5.615823787E-1,5.783337709E-1
1.207248462E1,-1.297428814E-1,-6.317754800E-2,4.350872236E-1,4.583944917E-1
1.208248362E1,1.072201011E-1,-1.768646604E-2,4.830379003E-1,4.951106687E-1
1.209248162E1,2.643685899E-1,-3.644786960E-2,3.954144502E-1,4.770448468E-1
1.210248062E1,-2.498035959E-1,-9.136016814E-2,1.793586624E-1,3.208084267E-1
1.211247863E1,-2.282447839E-1,3.930957003E-2,9.994411826E-2,2.522493815E-1
1.212247763E1,-2.262016937E-1,9.716566756E-2,7.079925656E-2,2.561657821E-1
1.213247562E1,-1.906813387E-1,-5.159314942E-2,4.193389177E-2,2.019397862E-1
1.214247462E1,-1.101764167E-1,-8.227719471E-2,4.242622733E-2,1.439040109E-1
1.215247262E1,2.590733696E-1,4.586199186E-2,3.577501953E-2,2.655224758E-1
1.216247162E1,-3.301203471E-1,-1.500543087E-2,-2.856996346E-1,4.368396591E-1
1.217247025E1,-2.306906377E-1,2.872826129E-2,-3.302782220E-1,4.038900682E-1
1.218246925E1,-4.449139081E-2,9.287984122E-2,-2.223035377E-1,2.450000238E-1
1.219246725E1,-5.877880644E-2,-7.332770225E-2,-2.159739268E-1,2.355347895E-1
1.220246625E1,-3.176063555E-1,-1.531019232E-1,-2.686269343E-1,4.432543578E-1
1.221246425E1,-2.969194181E-2,-2.746758789E-2,-1.905946720E-1,1.948394436E-1
1.222246325E1,-2.782408714E-1,-1.418163493E-1,-3.332199562E-1,4.566896087E-1
1.223246125E1,-1.291610834E-1,2.141958433E-2,-3.903940308E-1,4.117631399E-1
1.224246025E1,-1.498702402E-1,-4.006728695E-2,-3.724056566E-1,4.034258909E-1
1.225245825E1,-2.967741514E-2,-3.729001483E-2,-3.177488083E-1,3.213029712E-1
1.226245725E1,-1.773943634E-1,1.430451417E-2,-3.863091660E-1,4.253329883E-1
1.227245525E1,-8.686203305E-2,1.177536499E-2,-3.312389195E-1,3.426410568E-1
1.228245425E1,-1.607670565E-1,-2.133269379E-2,-3.389005262E-1,3.757055987E-1
1.229245225E1,-4.280185612E-2,-2.345279826E-2,-2.657349014E-1,2.701797003E-1
1.230245125E1,-9.606712192E-2,-2.539066602E-2,-2.615816242E-1,2.798187341E-1
1.231245025E1,-1.332480314E-1,-9.056382305E-3,-2.366280466E-1,2.717165589E-1
1.232244825E1,-1.145674199E-1,-1.329093131E-2,-1.916155958E-1,2.236490088E-1
1.233244625E1,-1.063155733E-1,-4.588084457E-2,-1.711567730E-1,2.066463016E-1
1.234244525E1,-7.883680265E-2,-5.243498859E-2,-1.355735421E-1,1.653627975E-1
1.235244425E1,-1.330841631E-1,-6.158843467E-2,-1.205017591E-1,1.898030656E-1
1.236244225E1,-1.246920748E-1,-9.261002876E-2,-3.342619300E-2,1.588774412E-1
1.237244025E1,-1.104406013E-1,-4.189978606E-2,4.557144463E-2,1.266075631E-1
1.238243925E1,-9.668659788E-2,-6.641060145E-2,1.399893594E-1,1.826353934E-1
1.239243825E1,-1.022822005E-1,-4.917925891E-2,1.706422180E-1,2.049366112E-1
1.240243625E1,-1.393290260E-1,-2.706948843E-2,2.244991672E-1,2.656034841E-1
1.241243525E1,-1.106804285E-1,-3.240628784E-2,3.142814094E-1,3.347732502E-1
1.242243325E1,-1.002405904E-1,-4.016747990E-2,3.932878178E-1,4.078442228E-1
1.243243225E1,-1.195123919E-1,-1.423653572E-2,4.332295632E-1,4.496373486E-1
1.244243025E1,-1.409140052E-1,-2.548723645E-3,4.799037927E-1,5.001708739E-1
1.245242925E1,-1.343607382E-1,1.244758923E-2,5.533728880E-1,5.695869588E-1
1.246242725E1,-9.851494912E-2,4.948197110E-3,6.930032283E-1,6.999879673E-1
1.247242625E1,-1.208066183E-1,4.171220921E-3,9.082257879E-1,9.162345332E-1
1.248242425E1,-1.575141408E-1,2.595080188E-2,1.162967924E0,1.173873307E0
1.249242325E1,-1.541640151E-1,2.307855818E-2,1.453334806E0,1.461670695E0
1.250242125E1,-1.179934497E-1,1.220604440E-2,1.641169592E0,1.645451024E0
1.251242025E1,-1.189902904E-1,7.289901911E-3,1.689351234E0,1.693552309E0
1.252241825E1,-1.623820940E-1,1.489140560E-2,1.632899290E0,1.641020960E0
1.253241725E1,-1.681520716E-1,-1.173791084E-2,1.659678953E0,1.668216750E0
1.254241525E1,-1.343480205E-1,-4.444129662E-2,1.816091387E0,1.821596099E0
1.255241425E1,-1.377814507E-1,-4.209129151E-2,2.036584627E0,2.041673908E0
1.256241225E1,-1.875274054E-1,-6.228063537E-2,2.251996636E0,2.260649078E0
1.257241125E1,-2.240152370E-1,5.728767509E-2,2.334489155E0,2.345912257E0
1.258240925E1,-1.995466312E-1,4.563919467E-2,2.493477287E0,2.501865459E0
1.259240825E1,-2.070748483E-1,4.517164126E-2,2.605020527E0,2.613628209E0
1.260240625E1,-2.662374148E-1,1.915997352E-2,2.614333388E0,2.627924757E0
1.261240525E1,-2.387487587E-1,7.975903647E-3,2.642513459E0,2.653288896E0
1.262240325E1,-2.716851194E-1,-2.688600920E-2,2.586424627E0,2.600793728E0
1.263240225E1,-2.160971386E-1,1.188197618E-2,2.616120297E0,2.625057059E0
1.264240025E1,-2.560330002E-1,5.785956932E-4,2.639826663E0,2.652213800E0
1.265239925E1,-2.369945391E-1,7.938321582E-3,2.660990660E0,2.671535274E0
1.266239725E1,-2.224588178E-1,1.918179095E-3,2.641742796E0,2.651093473E0
1.267239625E1,-2.130866813E-1,-6.173028904E-3,2.593009762E0,2.601757803E0
1.268239425E1,-1.901522936E-1,-4.012642605E-2,2.542335452E0,2.549752454E0
1.269239325E1,-2.430276232E-1,-1.959023267E-2,2.453340830E0,2.465426419E0
1.270239125E1,-1.822414128E-1,-1.632232890E-2,2.424223450E0,2.431118608E0
1.271239025E1,-1.757219318E-1,-3.899494414E-3,2.375799149E0,2.382291963E0
1.272238825E1,-1.973736780E-1,-2.240968239E-3,2.360155508E0,2.368395113E0
1.273238725E1,-2.211435232E-1,-3.270519020E-2,2.318015209E0,2.328769761E0
1.274238525E1,-2.006326784E-1,-6.687180515E-2,2.299975380E0,2.309677912E0
1.275238425E1,-2.090542221E-1,-2.826048404E-2,2.229396563E0,2.239355121E0
1.276238225E1,-2.160506715E-1,-2.204498516E-2,2.163310162E0,2.174183693E0
1.277238125E1,-2.105810581E-1,-3.223631659E-2,2.108446323E0,2.119181318E0
1.278237925E1,-2.238512774E-1,1.349350079E-2,1.957026241E0,1.969833287E0
1.279237825E1,-1.755973678E-1,2.235303749E-2,1.882839693E0,1.891142354E0
1.280237625E1,-1.923799914E-1,2.760100490E-2,1.768083408E0,1.778732924E0
1.281237525E1,-1.697880311E-1,4.399400289E-2,1.685800804E0,1.694900528E0
1.282237325E1,-1.989957504E-1,5.115185366E-2,1.506653227E0,1.520598489E0
1.283237225E1,-1.399073156E-1,5.270005932E-2,1.328843492E0,1.337227123E0
1.284237025E1,-1.625631932E-1,6.104261993E-2,1.147575713E0,1.160639053E0
1.285236925E1,-1.394059717E-1,3.443114664E-2,1.072731938E0,1.082300023E0
1.286236725E1,-1.803208765E-1,3.953690794E-2,9.532616276E-1,9.709719441E-1
1.287236625E1,-1.514778408E-1,4.457654089E-2,7.869288075E-1,8.026141989E-1
1.288236425E1,-1.291623442E-1,4.315285808E-2,6.026234007E-1,6.178187788E-1
1.289236325E1,-1.178905204E-1,1.435210959E-2,4.662090290E-1,4.810977204E-1
1.290236125E1,-1.513381106E-1,9.002428036E-3,3.950536770E-1,4.231449812E-1
1.291236025E1,-1.624968273E-1,3.193083155E-2,3.277767831E-1,3.672361862E-1
1.292235825E1,-1.248863851E-1,-3.538721208E-3,2.827976614E-1,3.091660541E-1
1.293235725E1,-1.431091778E-1,-9.288291100E-2,1.810835910E-1,2.487945716E-1
1.294235525E1,-1.086087051E-1,-1.005073970E-1,7.373923659E-3,1.481619466E-1
1.295235425E1,-1.831788128E-1,-1.129388607E-1,-2.007735050E-1,2.943121880E-1
1.296235225E1,-6.864731675E-2,-6.568173231E-2,-3.459002280E-1,3.587109028E-1
1.297235125E1,-8.063944442E-2,-7.815150898E-2,-5.065969169E-1,5.188938375E-1
1.298234925E1,-5.839395002E-2,-3.748692895E-2,-5.098187327E-1,5.145194491E-1
1.299234825E1,-1.314062315E-1,-2.130293695E-2,-4.850569439E-1,5.029926954E-1
1.300234625E1,-8.070365416E-2,-5.466086370E-2,-4.438270569E-1,4.544043862E-1
1.301234525E1,-4.918694252E-2,-1.207159225E-1,-6.067614752E-1,6.206054923E-1
1.302234325E1,-4.152423950E-2,-1.311186947E-1,-9.093496227E-1,9.196918565E-1
1.303234225E1,-9.007023582E-2,-6.307457305E-2,-1.244123184E0,1.248972997E0
1.304234025E1,-9.479416480E-2,-3.745888973E-2,-1.406754717E0,1.410442461E0
1.305233925E1,-1.503191236E-3,-4.985804756E-2,-1.469835064E0,1.470681202E0
1.306233725E1,-2.414569331E-2,-8.982917522E-3,-1.619137284E0,1.619342228E0
1.307233625E1,-8.439010436E-2,3.432515216E-2,-1.788950951E0,1.791269218E0
1.308233425E1,-7.588987906E-2,-4.109624615E-2,-1.919544420E0,1.921483530E0
1.309233325E1,-1.118563218E-2,-6.827305840E-2,-1.953881609E0,1.955106051E0
1.310233125E1,-8.221938036E-2,-1.432949731E-1,-1.944349478E0,1.951355521E0
1.311233025E1,1.194534995E-2,1.335289353E-1,-1.963853450E0,1.968424000E0
1.312232825E1,-8.830388334E-2,-5.769451339E-2,-1.921678653E0,1.924571401E0
1.313232725E1,-9.855763379E-2,-6.415735405E-2,-1.920668839E0,1.924265721E0
1.314232525E1,-4.473688250E-2,2.061555015E-1,-1.973245833E0,1.984490009E0
1.315232425E1,-1.410938436E-1,-1.578169900E-1,-1.980603384E0,1.991884395E0
1.316232225E1,-4.729116557E-2,-1.183223921E-1,-2.046775739E0,2.050738299E0
1.317232125E1,-2.103948791E-2,2.083736793E-1,-2.244375376E0,2.254125790E0
1.318232025E1,-2.073028531E-1,-9.775850214E-2,-2.262794105E0,2.274372080E0
1.319231825E1,-1.077490183E-1,-1.405462062E-1,-2.201569079E0,2.208680488E0
1.320231725E1,-2.063325260E-2,-3.127285990E-2,-2.297960429E0,2.298265837E0
1.321231525E1,-9.691946324E-2,-4.166236626E-2,-2.407071812E0,2.409382461E0
1.322231425E1,-1.349177952E-1,-1.745038288E-1,-2.396274344E0,2.406405022E0
1.323231225E1,-4.631033169E-2,-1.134076064E-1,-2.390262821E0,2.393399734E0
1.324231125E1,-7.975655140E-2,-4.110228980E-2,-2.499658379E0,2.501268182E0
1.325230925E1,-7.609038373E-2,-7.807418869E-2,-2.581363862E0,2.583664977E0
1.326230825E1,3.940621354E-3,-1.210639414E-1,-2.656326921E0,2.659087196E0
1.327230625E1,1.196782518E-2,-5.889168054E-2,-2.792812044E0,2.793458532E0
1.328230525E1,-4.226619635E-2,-4.359154087E-3,-2.921664796E0,2.921973754E0
1.329230325E1,-7.441276275E-3,-4.745505663E-2,-2.964892677E0,2.965281764E0
1.330230225E1,4.632431019E-2,-9.482829792E-2,-2.973385173E0,2.975257591E0
1.331230025E1,-5.862235688E-3,-7.051209889E-2,-3.060611013E0,3.061428766E0
1.332229925E1,-2.049037954E-2,-5.447090229E-2,-3.147835098E0,3.148373030E0
1.333229725E1,-3.052471323E-2,-1.502070398E-1,-3.171884111E0,3.175585415E0
1.334229625E1,2.324010579E-2,-6.194643502E-2,-3.194281871E0,3.194967000E0
1.335229425E1,3.629143830E-2,5.029563399E-2,-3.171173090E0,3.171779545E0
1.336229325E1,-7.094582068E-2,-1.564094007E-1,-3.047021499E0,3.051857995E0
1.337229125E1,2.777650360E-2,-3.096508166E-2,-2.983187445E0,2.983477452E0
1.338229025E1,-5.305120289E-2,-3.131787890E-2,-3.008122897E0,3.008753662E0
1.339228825E1,3.364158981E-3,-3.331137287E-2,-2.992491535E0,2.992678825E0
1.340228725E1,2.475904796E-2,-1.033002008E-1,-3.010688655E0,3.012562052E0
1.341228525E1,-1.591169722E-1,-1.485100043E-2,-3.089528418E0,3.093658773E0
1.342228425E1,-1.305400031E-2,-2.140171835E-2,-2.942192032E0,2.942298828E0
1.343228225E1,1.912520086E-2,-8.398087235E-2,-2.794108956E0,2.795436177E0
1.344228125E1,-3.918884329E-2,-4.497102695E-2,-2.763088893E0,2.763732691E0
1.345227925E1,-3.779070094E-2,-7.934351871E-4,-2.757974918E0,2.758233930E0
1.346227825E1,-5.057859812E-3,-2.339701217E-2,-2.732504447E0,2.732609294E0
1.347227625E1,-4.645461174E-2,-2.421624819E-2,-2.735791751E0,2.736293289E0
1.348227525E1,-4.436454277E-2,-2.424047759E-2,-2.647024001E0,2.647506728E0
1.349227325E1,-3.101173148E-2,-4.251556182E-2,-2.501376876E0,2.501930370E0
1.350227225E1,-6.621005109E-2,-7.361687447E-2,-2.336879497E0,2.338976057E0
1.351227025E1,-8.197924253E-2,-9.912622070E-2,-2.137514586E0,2.141381612E0
1.352226925E1,-8.298218619E-2,-1.109262673E-1,-1.972431901E0,1.977290642E0
1.353226725E1,-7.952712128E-2,-9.024285659E-2,-1.874266505E0,1.878122272E0
1.354226625E1,-8.113760892E-2,-5.697046364E-2,-1.767578793E0,1.770356951E0
1.355226425E1,-6.151130168E-2,-1.287399743E-2,-1.648473349E0,1.649670804E0
1.356226325E1,-9.726828620E-2,-3.085925619E-2,-1.488061420E0,1.491556302E0
1.357226125E1,-4.889986251E-2,-7.584808974E-2,-1.321961904E0,1.325038642E0
1.358226025E1,-5.883181510E-2,-3.224044162E-2,-1.200465533E0,1.202338607E0
1.359225825E1,-9.277073583E-2,-3.123981857E-2,-1.125074458E0,1.129324963E0
1.360225725E1,-7.862058358E-2,-3.407956910E-2,-1.067498680E0,1.070932325E0
1.361225525E1,-9.881361393E-2,-2.461197678E-2,-1.080584748E0,1.085372414E0
1.362225425E1,-8.437795311E-2,-2.151146784E-2,-1.056094855E0,1.059678595E0
1.363225225E1,-7.783552179E-2,-3.849620862E-2,-9.277250826E-1,9.317801004E-1
1.364225125E1,-9.714841828E-2,-2.872517323E-2,-7.710676503E-1,7.776942022E-1
1.365224925E1,-1.175115478E-1,-9.727039668E-3,-6.545303035E-1,6.650665360E-1
1.366224825E1,-1.128233782E-1,-5.900041591E-3,-5.945729542E-1,6.052114696E-1
1.367224625E1,-7.317856170E-2,-1.100298892E-1,-4.461314446E-1,4.652901721E-1
1.368224525E1,-8.770110849E-2,-6.049715694E-2,-3.520170003E-1,3.677871109E-1
1.369224325E1,-1.111494300E-1,7.658904159E-2,-3.204730260E-1,3.477398992E-1
1.370224225E1,-1.257937268E-1,-3.355931765E-2,-1.428293520E-1,1.932628089E-1
1.371224025E1,-1.193242943E-1,-9.453992969E-2,-1.494460613E-1,2.133312231E-1
1.372223925E1,-9.799038079E-2,-2.082649394E-2,-3.285018378E-1,3.434374980E-1
1.373223725E1,-8.212714054E-2,2.545740651E-2,-4.478300607E-1,4.560095504E-1
1.374223625E1,-1.201965709E-1,-1.396411029E-2,-4.134320605E-1,4.307763697E-1
1.375223425E1,-9.513624519E-2,-4.250185741E-2,-1.754486293E-1,2.040576745E-1
1.376223325E1,-1.124691648E-1,-2.884495435E-3,4.337698460E-2,1.205785891E-1
1.377223125E1,-1.336772535E-1,8.737677075E-3,1.134108406E-1,1.755220040E-1
1.378223025E1,-1.776607771E-1,-6.464015591E-2,7.058174014E-2,2.018006034E-1
1.379222825E1,-1.548057470E-1,-1.438935818E-2,-1.151977497E-1,1.935003733E-1
1.380222725E1,-1.394998743E-1,1.836613177E-2,-2.593579280E-1,2.950662037E-1
1.381222525E1,-1.226899699E-1,-9.375375328E-2,-1.527760506E-1,2.172167502E-1
1.382222425E1,-1.689678312E-1,-4.276321881E-2,4.287353933E-2,1.794908389E-1
1.383222325E1,-2.263694174E-1,-3.020849763E-2,2.560361248E-1,3.430891483E-1
1.384222125E1,-2.126282962E-1,-4.152572871E-2,3.302899164E-1,3.950020346E-1
1.385221925E1,-1.478632200E-1,-1.243759414E-2,2.077071333E-1,2.552655065E-1
1.386221825E1,-7.296533933E-2,-5.429605683E-2,1.084869003E-1,1.415676873E-1
1.387221725E1,-1.345887248E-1,1.870813907E-2,7.621845603E-3,1.360963330E-1
1.388221525E1,-1.496114644E-1,-5.365041002E-2,1.299485207E-1,2.053011807E-1
1.389221425E1,-1.128951345E-1,-1.047579299E-1,3.700895745E-1,4.008563688E-1
1.390221225E1,-1.050736613E-1,-1.750276754E-2,4.894365084E-1,5.008941175E-1
1.391221125E1,-1.591890209E-1,3.337048000E-2,5.706069714E-1,5.933355283E-1
1.392220925E1,-1.783010107E-1,-5.586858782E-2,6.324675894E-1,6.594905618E-1
1.393220825E1,-1.621910728E-1,-5.519215634E-2,6.295059747E-1,6.524031655E-1
1.394220625E1,-1.595783175E-1,2.372285740E-2,6.115655476E-1,6.324874958E-1
1.395220525E1,-1.824823181E-1,2.482001889E-2,5.909307235E-1,6.189628016E-1
1.396220325E1,-2.016361155E-2,-5.451507160E-2,6.489017737E-1,6.514997898E-1
1.397220225E1,-7.034903923E-2,-7.730536206E-2,5.771008891E-1,5.864900191E-1
1.398220025E1,-2.095634233E-1,-1.659313722E-2,5.301395613E-1,5.702982685E-1
1.399219925E1,-1.985488770E-1,3.461739874E-2,5.828697520E-1,6.167310343E-1
1.400219725E1,-5.777792757E-2,-3.101227508E-2,7.821633267E-1,7.849073320E-1
1.401219625E1,-1.501446939E-1,-8.982649829E-2,8.765309554E-1,8.938225466E-1
1.402219425E1,-1.256269532E-1,1.435527988E-2,9.262971926E-1,9.348875303E-1
1.403219325E1,-1.584943899E-1,2.297023851E-2,8.844504243E-1,8.988329414E-1
1.404219125E1,-2.253465384E-1,-2.559096971E-2,7.786719543E-1,8.110277261E-1
1.405219025E1,-7.996823888E-2,3.874282865E-3,7.829234648E-1,7.870064047E-1
1.406218825E1,-1.434076234E-1,6.565052737E-3,7.385132772E-1,7.523368308E-1
1.407218725E1,-1.955170591E-1,3.213220417E-2,8.144487280E-1,8.382041096E-1
1.408218525E1,-1.469846393E-1,4.414455956E-3,9.164259231E-1,9.281489343E-1
1.409218425E1,-1.719865660E-1,1.103600741E-2,9.055319756E-1,9.217859465E-1
1.410218225E1,-1.148078866E-1,3.897479866E-3,8.600575948E-1,8.676952849E-1
1.411218125E1,-1.894775249E-1,1.663827955E-2,7.506515121E-1,7.743747526E-1
1.412217925E1,-1.664480102E-1,1.027387310E-2,7.476659238E-1,7.660383974E-1
1.413217825E1,-1.663564647E-1,-6.914168056E-3,7.587411350E-1,7.767949466E-1
1.414217625E1,-1.384427160E-1,-1.194719547E-2,8.808818686E-1,8.917746282E-1
1.415217525E1,-1.728438774E-1,-1.808359249E-2,9.447907662E-1,9.606412516E-1
1.416217325E1,-2.107694663E-1,-6.941151586E-2,9.504660738E-1,9.760263745E-1
1.417217237E1,-1.789155531E-1,-8.558158418E-2,8.806970966E-1,9.027526564E-1
1.418217037E1,-1.962997455E-1,-3.000102198E-2,8.797784990E-1,9.019112255E-1
1.419216937E1,-1.626954134E-1,-1.086816492E-2,1.121500640E0,1.133292372E0
1.420216737E1,-1.821615983E-1,-1.549167254E-2,1.377892275E0,1.389967612E0
1.421216637E1,-2.062433559E-1,-1.255445166E-2,1.470520357E0,1.484966012E0
1.422216437E1,-1.981502430E-1,-7.045465456E-3,1.345792816E0,1.360320352E0
1.423216337E1,-1.629104082E-1,-4.836031068E-3,1.145611634E0,1.157147010E0
1.424216137E1,-1.561425119E-1,-1.391894055E-2,9.303083825E-1,9.434235038E-1
1.425216037E1,-1.635611667E-1,-7.478328436E-3,8.645371467E-1,8.799049146E-1
1.426215838E1,-2.014617953E-1,3.042703732E-3,9.318298280E-1,9.533640131E-1
1.427215737E1,-1.638809912E-1,1.046668047E-2,1.100609708E0,1.112792999E0
1.428215537E1,-1.534434737E-1,-3.445101804E-3,1.195894765E0,1.205703552E0
1.429215437E1,-1.737714468E-1,-8.433146775E-4,1.148974367E0,1.162041016E0
1.430215237E1,-1.912204702E-1,2.910958654E-3,1.042029963E0,1.059433898E0
1.431215137E1,-2.080340292E-1,9.722882663E-3,9.380746543E-1,9.609145378E-1
1.432214937E1,-1.239670931E-1,-1.273453677E-2,1.014051620E0,1.021680330E0
1.433214837E1,-1.686382127E-1,-1.158849803E-1,1.173720953E0,1.191423120E0
1.434214637E1,-1.845558686E-1,1.192292496E-2,1.155265971E0,1.169975423E0
1.435214537E1,-2.075847072E-1,1.646352089E-2,1.057323940E0,1.077634619E0
1.436214337E1,-1.927560221E-1,-5.887407951E-2,9.426161867E-1,9.639223604E-1
1.437214237E1,-1.369080960E-1,-2.325259964E-2,8.457278234E-1,8.570531263E-1
1.438214037E1,-1.793504763E-1,-6.137238462E-2,8.464429379E-1,8.674092517E-1
1.439213937E1,-1.465065198E-1,4.665740962E-2,9.080889630E-1,9.210139190E-1
1.440213738E1,-1.114152773E-1,-5.036734461E-2,1.038904626E0,1.046075071E0
1.441213638E1,-1.155917059E-1,-1.191109805E-2,9.895085174E-1,9.963083974E-1
1.442213537E1,-1.548705780E-1,-1.416753857E-2,9.239477813E-1,9.369445649E-1
1.443213337E1,-1.860227340E-1,-2.851032003E-2,8.886294293E-1,9.083389008E-1
1.444213137E1,-1.517733262E-1,3.021822777E-4,8.685875130E-1,8.817479807E-1
1.445213037E1,-1.174201302E-1,1.194727770E-2,8.367289585E-1,8.450121741E-1
1.446212937E1,-1.448201462E-1,-4.917041043E-2,7.920018518E-1,8.066334591E-1
1.447212737E1,-1.984265971E-1,-5.617115383E-2,7.137485647E-1,7.429436900E-1
1.448212637E1,-1.889425046E-1,3.573289216E-2,6.426709807E-1,6.708219578E-1
1.449212437E1,-1.802869079E-1,-2.349047169E-2,6.697874433E-1,6.940247766E-1
1.450212337E1,-1.855588306E-1,-4.947944492E-2,6.665118331E-1,6.936269305E-1
1.451212137E1,-1.905100152E-1,1.944737331E-2,5.588944137E-1,5.907920378E-1
1.452212037E1,-1.657663710E-1,2.122406349E-2,4.273221213E-1,4.588389107E-1
1.453211837E1,-1.638468398E-1,-3.334710484E-2,3.360114169E-1,3.753151857E-1
1.454211737E1,-1.629129663E-1,-5.964641904E-2,2.547257638E-1,3.081940049E-1
1.455211538E1,-1.507605153E-1,-2.486328372E-2,1.701457894E-1,2.286842922E-1
1.456211437E1,-1.234262988E-1,-3.563708462E-2,1.286802596E-1,1.818314116E-1
1.457211237E1,-8.595054349E-2,-3.281379309E-2,8.467703819E-2,1.250377613E-1
1.458211137E1,-8.343932882E-2,-3.944458589E-2,1.508113861E-2,9.351704493E-2
1.459210937E1,-1.427706606E-1,-3.349163156E-2,-8.251122952E-2,1.682654270E-1
1.460210837E1,-1.641342670E-1,-1.518087475E-2,-1.477696645E-1,2.213738700E-1
1.461210637E1,1.163379568E-1,2.812756495E-2,-8.060971498E-3,1.199610744E-1
1.462210537E1,1.459557669E-1,-5.955761902E-2,-6.336627603E-2,1.698984426E-1
1.463210337E1,-1.948804435E-1,-7.332082720E-2,-2.887191367E-1,3.559677947E-1
1.464210237E1,-1.941535980E-1,4.075064373E-2,-3.905975139E-1,4.380897767E-1
1.465210037E1,-2.022006276E-1,7.687594802E-2,-4.082251149E-1,4.619986468E-1
1.466209937E1,-1.700335228E-1,-4.946826668E-2,-3.236270142E-1,3.689077833E-1
1.467209737E1,-1.754973256E-1,-1.092616929E-1,-2.698694676E-1,3.399514059E-1
1.468209637E1,1.684324821E-1,4.902508428E-2,-1.445115960E-1,2.272807983E-1
1.469209438E1,-5.561310561E-2,-2.791387205E-2,-2.929396570E-1,2.994756157E-1
1.470209337E1,-2.841967357E-1,-1.667157030E-1,-3.741726851E-1,4.985650494E-1
1.471209137E1,-2.953748396E-1,-7.150987142E-2,-4.206995648E-1,5.189875542E-1
1.472209037E1,-1.236242636E-1,1.072365098E-1,-3.178271610E-1,3.574866876E-1
1.473208837E1,-9.295611084E-3,-2.358622989E-1,-1.902391613E-1,3.031639341E-1
1.474208737E1,-2.994314733E-1,-3.768489375E-2,-3.099456990E-1,4.326033920E-1
1.475208537E1,-1.174810144E-1,2.637340939E-3,-2.914953947E-1,3.142901676E-1
1.476208437E1,-2.863417502E-1,4.493922814E-2,-3.793579960E-1,4.774134699E-1
1.477208237E1,-1.196757668E-1,1.049008761E-3,-2.899897367E-1,3.137155351E-1
1.478208137E1,-1.654038437E-1,3.388571563E-2,-2.892477250E-1,3.349192733E-1
1.479207937E1,-1.142350422E-1,-3.690588931E-3,-2.124626738E-1,2.412543327E-1
1.480207837E1,-1.948746511E-1,-7.433373397E-3,-2.213159430E-1,2.949781879E-1
1.481207637E1,-1.465046011E-1,2.618963323E-3,-1.503962338E-1,2.099749610E-1
1.482207537E1,-9.845750023E-2,-3.421579552E-2,-3.456113756E-2,1.098138072E-1
1.483207338E1,-1.088900658E-1,-4.414343580E-2,5.477671623E-2,1.296386440E-1
1.484207237E1,-1.395481687E-1,-2.809580269E-2,4.562348485E-2,1.494809951E-1
1.485207037E1,-1.720047106E-1,-1.317998040E-2,7.571559548E-3,1.726750152E-1
1.486206937E1,-1.214215443E-1,-5.558427610E-2,5.080528736E-2,1.428775014E-1
1.487206737E1,-1.180775217E-1,-6.127769628E-2,1.154415786E-1,1.761363542E-1
1.488206637E1,-1.354220079E-1,-2.600966689E-2,1.904081458E-1,2.350976073E-1
1.489206437E1,-1.712316356E-1,-1.198834525E-2,3.432075852E-1,3.837387653E-1
1.490206337E1,-1.554797483E-1,-4.191777539E-2,5.347752339E-1,5.584940490E-1
1.491206137E1,-1.108055954E-1,-3.931382753E-2,6.537479460E-1,6.642362787E-1
1.492206037E1,-1.581448909E-1,-2.172259344E-2,6.766164064E-1,6.951916563E-1
1.493205837E1,-1.663100707E-1,-1.476817096E-2,7.439394933E-1,7.624454788E-1
1.494205737E1,-1.526572242E-1,-2.533193348E-2,8.816174483E-1,8.950951123E-1
1.495205637E1,-1.264352211E-1,-3.016378471E-2,1.055671517E0,1.063643770E0
1.496205437E1,-1.445686611E-1,-2.030234131E-2,1.177786523E0,1.186799636E0
1.497205337E1,-1.901429746E-1,-5.385879474E-3,1.263980328E0,1.278213452E0
1.498205138E1,-1.559548894E-1,-1.897357982E-2,1.441933905E0,1.450467273E0
1.499205037E1,-1.262627648E-1,-1.451753554E-2,1.628723794E0,1.633675072E0
1.500204837E1,-1.573569238E-1,4.186524181E-3,1.795460656E0,1.802347829E0
1.501204737E1,-1.726370504E-1,-7.945265151E-3,1.896787056E0,1.904643750E0
1.502204537E1,-1.873887533E-1,1.666981340E-2,1.900964892E0,1.910251279E0
1.503204437E1,-1.393672887E-1,-2.349502612E-3,1.919519277E0,1.924573463E0
1.504204237E1,-1.564679094E-1,1.127214356E-2,1.932240479E0,1.938598085E0
1.505204137E1,-2.020593260E-1,1.639618655E-2,1.974156244E0,1.984537650E0
1.506203937E1,-1.883720357E-1,1.867147977E-2,2.131186144E0,2.139576367E0
1.507203837E1,-1.663128116E-1,1.558068269E-2,2.324594496E0,2.330588398E0
1.508203637E1,-1.789609603E-1,2.477293510E-2,2.531626276E0,2.538064681E0
1.509203537E1,-2.075202599E-1,2.413656161E-2,2.677138916E0,2.685278385E0
1.510203337E1,-2.186658570E-1,3.360457419E-2,2.731196424E0,2.740141955E0
1.511203237E1,-1.982590926E-1,2.265500964E-2,2.745893986E0,2.753135249E0
1.512203038E1,-2.175078159E-1,3.747647249E-2,2.692186725E0,2.701218891E0
1.513202937E1,-2.341788673E-1,4.169296822E-2,2.641328813E0,2.652017335E0
1.514202737E1,-2.282360679E-1,4.166650043E-2,2.583586974E0,2.593983317E0
1.515202637E1,-2.415043504E-1,6.716573737E-2,2.470163269E0,2.482849605E0
1.516202437E1,-2.956064989E-1,-1.002006100E-1,2.410187209E0,2.430313919E0
1.517202325E1,-2.774266101E-1,-8.441621583E-2,2.242441117E0,2.261113395E0
1.518202125E1,-3.171545850E-1,-8.330375564E-2,2.183222855E0,2.207711164E0
1.519202025E1,-2.416583697E-1,-7.949170908E-2,2.213372853E0,2.227944588E0
1.520201825E1,-2.528742978E-1,2.833877277E-2,2.128560160E0,2.143715665E0
1.521201725E1,-2.413061115E-1,2.471136575E-2,2.055274082E0,2.069538800E0
1.522201525E1,-1.944072576E-1,5.498790122E-3,1.981085780E0,1.990609275E0
1.523201425E1,-1.863077127E-1,2.074203365E-2,1.873217515E0,1.882573944E0
1.524201225E1,-1.792638461E-1,-4.430732229E-3,1.758017426E0,1.767139052E0
1.525201125E1,-2.143390087E-1,1.284440047E-2,1.591320909E0,1.605742329E0
1.526200925E1,-1.965104462E-1,-2.423756769E-2,1.593622958E0,1.605876069E0
1.527200825E1,-1.827203180E-1,-7.579678955E-2,1.564192168E0,1.576651199E0
1.528200625E1,-2.125693672E-1,-2.718087789E-2,1.446145070E0,1.461937105E0
1.529200525E1,-1.889534864E-1,2.198523849E-2,1.266571230E0,1.280776893E0
1.530200325E1,-1.692451903E-1,-3.412255527E-2,1.183397511E0,1.195925563E0
1.531200225E1,-1.390376154E-1,-3.234960639E-2,1.156810221E0,1.165584764E0
1.532200025E1,-2.031222219E-1,5.638273624E-3,1.154314045E0,1.172062857E0
1.533199925E1,-1.757463439E-1,9.799330439E-3,1.181602415E0,1.194640981E0
1.534199725E1,-1.537226965E-1,2.845269755E-2,1.148555122E0,1.159145846E0
1.535199625E1,-1.263403501E-1,-1.398870971E-2,1.069252260E0,1.076781298E0
1.536199425E1,-1.754134181E-1,2.375091489E-2,8.969827616E-1,9.142822583E-1
1.537199325E1,-1.716416716E-1,4.680213278E-2,8.094288933E-1,8.287499239E-1
1.538199125E1,-1.247452662E-1,1.301261298E-2,7.670780951E-1,7.772641208E-1
1.539199025E1,-1.321227164E-1,-1.998539024E-2,7.268165070E-1,7.389980127E-1
1.540198925E1,-1.960460859E-1,4.560261760E-3,6.480667913E-1,6.770859840E-1
1.541198725E1,-1.753907236E-1,1.225575487E-2,5.781387699E-1,6.042818437E-1
1.542198625E1,-1.483145154E-1,-4.406213209E-2,5.472678101E-1,5.687184918E-1
1.543198425E1,-1.269593875E-1,-5.668321917E-2,4.538304734E-1,4.746512109E-1
1.544198325E1,-2.061065859E-1,1.350130774E-2,3.810373163E-1,4.334185581E-1
1.545198125E1,-1.784741431E-1,1.495544631E-2,3.607726210E-1,4.027822851E-1
1.546198025E1,-1.229476311E-1,-4.424840702E-2,2.713482285E-1,3.011708860E-1
1.547197825E1,-8.967686439E-2,-6.815650238E-2,4.375880778E-2,1.208390751E-1
1.548197725E1,-1.639631994E-1,-5.093396722E-2,-1.944637746E-1,2.594115637E-1
1.549197525E1,-1.341226835E-1,-4.687713702E-2,-2.704290462E-1,3.054803254E-1
1.550197425E1,-9.126423726E-2,-8.854635092E-2,-3.266354066E-1,3.505143451E-1
1.551197225E1,-5.056191528E-2,-7.644794554E-2,-4.557395893E-1,4.648648932E-1
1.552197125E1,-1.098501056E-1,-2.716179221E-2,-7.261516786E-1,7.349156883E-1
1.553196925E1,-1.008738804E-1,-1.778677320E-2,-9.540580183E-1,9.595408336E-1
1.554196825E1,-9.124817569E-2,-5.032993157E-2,-1.136309883E0,1.141078210E0
1.555196625E1,-4.255428135E-2,-5.405795638E-2,-1.275448472E0,1.277302601E0
1.556196525E1,-4.135554733E-2,-7.300510040E-2,-1.353959037E0,1.356556339E0
1.557196325E1,-7.781412464E-2,-4.975257384E-2,-1.445496613E0,1.448444274E0
1.558196225E1,-8.538663436E-2,-3.773253942E-2,-1.586128582E0,1.588873343E0
1.559196025E1,-3.861609025E-2,-4.874832826E-2,-1.736489148E0,1.737602418E0
1.560195925E1,-2.309666628E-2,-7.010992922E-2,-1.849570790E0,1.851043210E0
1.561195725E1,-4.901985833E-2,-4.821582507E-2,-1.981364692E0,1.982557377E0
1.562195625E1,-4.757998148E-2,-1.536343122E-1,-2.088446506E0,2.094630317E0
1.563195425E1,-3.564349372E-2,-7.064552504E-2,-2.220811681E0,2.222220910E0
1.564195325E1,1.273138018E-2,7.434893216E-2,-2.365000511E0,2.366203133E0
1.565195125E1,-4.994351741E-2,-8.095417080E-2,-2.314584063E0,2.316537787E0
1.566195025E1,-4.407095773E-2,-3.571746100E-2,-2.272848392E0,2.273556201E0
1.567194825E1,-1.971052542E-2,3.401701760E-2,-2.257901739E0,2.258243992E0
1.568194725E1,-1.056621835E-1,-4.542310808E-2,-2.299381887E0,2.302256463E0
1.569194525E1,-1.063582946E-1,-7.254337136E-2,-2.374986970E0,2.378473825E0
1.570194425E1,-8.057002701E-2,1.901881808E-2,-2.374546675E0,2.375989301E0
1.571194225E1,-1.788480177E-1,-3.072502605E-2,-2.413773306E0,2.420585097E0
1.572194125E1,-1.607885267E-1,-5.759730343E-2,-2.293277979E0,2.299629163E0
1.573193925E1,-1.710484533E-1,-1.154948248E-1,-2.137304086E0,2.147246000E0
1.574193825E1,-1.749282819E-1,-1.222008503E-1,-2.068451952E0,2.079429352E0
1.575193625E1,-1.353125188E-1,-9.717675900E-2,-2.151079541E0,2.157520798E0
1.576193525E1,-1.366572870E-1,-1.159852600E-1,-2.251516580E0,2.258640012E0
1.577193325E1,-1.315565963E-1,-1.219625123E-1,-2.284442251E0,2.291475156E0
1.578193225E1,-4.588903980E-2,-3.832075104E-2,-2.239079552E0,2.239877569E0
1.579193025E1,-2.748631725E-2,1.363672103E-2,-2.144464586E0,2.144684084E0
1.580192925E1,-8.642254170E-2,-5.379599199E-2,-2.143261814E0,2.145677997E0
1.581192725E1,-5.255901352E-2,-7.002439085E-2,-2.178283712E0,2.180042613E0
1.582192625E1,1.394608442E-2,2.137728338E-2,-2.200579730E0,2.200727750E0
1.583192425E1,-1.691544671E-3,2.139807754E-2,-2.213742397E0,2.213846458E0
1.584192325E1,-3.482539516E-2,-1.783342667E-1,-2.196952118E0,2.204453340E0
1.585192125E1,-5.090337440E-2,-1.032964366E-1,-2.285681861E0,2.288580975E0
1.586192025E1,1.422958301E-2,1.678569151E-1,-2.358842223E0,2.364849902E0
1.587191925E1,-7.158901440E-2,-1.964406816E-1,-2.171533687E0,2.181575687E0
1.588191725E1,-1.115250405E-2,-1.245409974E-1,-2.099921667E0,2.103641092E0
1.589191625E1,-1.002393661E-2,2.470324817E-2,-2.241916621E0,2.242075125E0
